Trial,CorrectionTrial,StartTime,CenterReward,SpkrIdx,SpkrPos,duration,HoldTime,Atten,Response,RespTime,Correct,ComputerTime,Modality,Condition,SessionDate,originalFile,LeftTemperature,RightTemperature
1,0,1067.214,0,7,60,250,901,0.0,7,1068.154,1,736148.67652,Aud,Left,2015-07-03 15:56:00,3_7_2015 level5_250_cooling 15_56 log,12.0,36.0
2,0,1084.179,0,4,-30,250,601,4.5,4,1085.177,1,736148.676717,Aud,Left,2015-07-03 15:56:00,3_7_2015 level5_250_cooling 15_56 log,12.0,35.0
3,0,1090.898,0,8,90,250,701,9.0,8,1091.867,1,736148.676795,Vis,Left,2015-07-03 15:56:00,3_7_2015 level5_250_cooling 15_56 log,12.0,35.0
4,0,1100.888,0,6,30,250,1001,0.0,6,1101.935,1,736148.676911,Aud,Left,2015-07-03 15:56:00,3_7_2015 level5_250_cooling 15_56 log,12.0,35.0
5,0,1107.777,0,3,-60,250,501,0.0,3,1108.666,1,736148.676989,Vis,Left,2015-07-03 15:56:00,3_7_2015 level5_250_cooling 15_56 log,12.0,35.0
6,0,1121.612,0,7,60,250,651,9.0,7,1122.504,1,736148.677149,Aud,Left,2015-07-03 15:56:00,3_7_2015 level5_250_cooling 15_56 log,12.0,35.0
7,0,1130.676,0,5,0,250,851,9.0,4,1131.536,0,736148.677253,Vis,Left,2015-07-03 15:56:00,3_7_2015 level5_250_cooling 15_56 log,12.0,35.0
8,0,1142.738,0,4,-30,250,801,0.0,4,1143.822,1,736148.677396,Vis,Left,2015-07-03 15:56:00,3_7_2015 level5_250_cooling 15_56 log,12.0,35.0
9,0,1156.044,0,7,60,250,551,9.0,7,1157.091,1,736148.67755,Vis,Left,2015-07-03 15:56:00,3_7_2015 level5_250_cooling 15_56 log,12.0,35.0
10,0,1164.929,0,8,90,250,951,4.5,8,1165.94,1,736148.677652,Vis,Left,2015-07-03 15:56:00,3_7_2015 level5_250_cooling 15_56 log,12.0,35.0
11,0,1172.273,0,4,-30,250,551,0.0,4,1173.529,1,736148.677739,Vis,Left,2015-07-03 15:56:00,3_7_2015 level5_250_cooling 15_56 log,11.0,35.0
12,0,1186.79,0,6,30,250,951,9.0,2,1187.522,0,736148.677903,Vis,Left,2015-07-03 15:56:00,3_7_2015 level5_250_cooling 15_56 log,11.0,35.0
13,0,1206.988,0,2,-90,250,701,0.0,8,1207.501,0,736148.678137,Vis,Left,2015-07-03 15:56:00,3_7_2015 level5_250_cooling 15_56 log,11.0,35.0
14,0,1222.896,0,2,-90,250,1001,9.0,3,1223.321,0,736148.678321,Aud,Left,2015-07-03 15:56:00,3_7_2015 level5_250_cooling 15_56 log,11.0,35.0
15,0,1236.321,0,2,-90,250,901,4.5,2,1237.172,1,736148.678476,Vis,Left,2015-07-03 15:56:00,3_7_2015 level5_250_cooling 15_56 log,11.0,35.0
16,0,1247.109,0,3,-60,250,801,9.0,3,1247.787,1,736148.678601,Aud,Left,2015-07-03 15:56:00,3_7_2015 level5_250_cooling 15_56 log,11.0,35.0
17,0,1254.473,1,4,-30,250,851,0.0,4,1255.31,1,736148.678687,Aud,Left,2015-07-03 15:56:00,3_7_2015 level5_250_cooling 15_56 log,11.0,35.0
18,0,1264.476,0,5,0,250,651,9.0,4,1265.402,0,736148.678803,Vis,Left,2015-07-03 15:56:00,3_7_2015 level5_250_cooling 15_56 log,11.0,35.0
19,0,1272.35,0,8,90,250,601,4.5,7,1273.315,0,736148.678894,Aud,Left,2015-07-03 15:56:00,3_7_2015 level5_250_cooling 15_56 log,11.0,35.0
20,0,1281.447,0,6,30,250,751,0.0,6,1282.468,1,736148.679001,Vis,Left,2015-07-03 15:56:00,3_7_2015 level5_250_cooling 15_56 log,11.0,35.0
21,0,1288.853,0,2,-90,250,551,4.5,3,1289.707,0,736148.679085,Aud,Left,2015-07-03 15:56:00,3_7_2015 level5_250_cooling 15_56 log,11.0,35.0
22,0,1302.891,0,3,-60,250,951,0.0,3,1303.709,1,736148.679247,Vis,Left,2015-07-03 15:56:00,3_7_2015 level5_250_cooling 15_56 log,11.0,35.0
23,0,1311.415,0,5,0,250,901,9.0,7,1312.462,0,736148.679348,Aud,Left,2015-07-03 15:56:00,3_7_2015 level5_250_cooling 15_56 log,11.0,35.0
24,0,1320.749,0,3,-60,250,601,4.5,4,1323.072,0,736148.679471,Aud,Left,2015-07-03 15:56:00,3_7_2015 level5_250_cooling 15_56 log,11.0,35.0
25,0,1334.503,0,6,30,250,651,0.0,6,1335.346,1,736148.679613,Aud,Left,2015-07-03 15:56:00,3_7_2015 level5_250_cooling 15_56 log,11.0,35.0
26,0,1353.128,0,5,0,250,701,9.0,7,1354.726,0,736148.679837,Aud,Left,2015-07-03 15:56:00,3_7_2015 level5_250_cooling 15_56 log,11.0,35.0
27,0,1365.084,0,8,90,250,501,9.0,8,1365.825,1,736148.679967,Aud,Left,2015-07-03 15:56:00,3_7_2015 level5_250_cooling 15_56 log,11.0,35.0
28,0,1374.292,1,7,60,250,751,0.0,7,1375.464,1,736148.680077,Vis,Left,2015-07-03 15:56:00,3_7_2015 level5_250_cooling 15_56 log,11.0,35.0
29,0,1387.697,0,7,60,250,1001,4.5,7,1392.001,1,736148.680268,Aud,Left,2015-07-03 15:56:00,3_7_2015 level5_250_cooling 15_56 log,11.0,35.0
30,0,1405.658,0,5,0,250,851,0.0,4,1406.455,0,736148.680436,Aud,Left,2015-07-03 15:56:00,3_7_2015 level5_250_cooling 15_56 log,11.0,35.0
31,0,1415.522,0,2,-90,250,751,0.0,2,1416.709,1,736148.680554,Vis,Left,2015-07-03 15:56:00,3_7_2015 level5_250_cooling 15_56 log,11.0,35.0
32,0,1425.911,0,3,-60,250,651,4.5,4,1426.746,0,736148.68067,Aud,Left,2015-07-03 15:56:00,3_7_2015 level5_250_cooling 15_56 log,11.0,35.0
33,0,1434.722,0,2,-90,250,801,9.0,6,1436.258,0,736148.68078,Aud,Left,2015-07-03 15:56:00,3_7_2015 level5_250_cooling 15_56 log,11.0,35.0
34,0,1446.499,0,3,-60,250,501,4.5,3,1447.295,1,736148.680908,Vis,Left,2015-07-03 15:56:00,3_7_2015 level5_250_cooling 15_56 log,11.0,35.0
35,0,1456.081,0,8,90,250,901,9.0,8,1456.794,1,736148.68102,Aud,Left,2015-07-03 15:56:00,3_7_2015 level5_250_cooling 15_56 log,11.0,35.0
36,0,1466.411,0,8,90,250,1001,0.0,8,1467.245,1,736148.681139,Vis,Left,2015-07-03 15:56:00,3_7_2015 level5_250_cooling 15_56 log,11.0,35.0
37,0,1477.574,0,8,90,250,851,0.0,8,1478.864,1,736148.681274,Aud,Left,2015-07-03 15:56:00,3_7_2015 level5_250_cooling 15_56 log,11.0,35.0
38,0,1488.43,0,7,60,250,951,9.0,8,1489.422,0,736148.681396,Vis,Left,2015-07-03 15:56:00,3_7_2015 level5_250_cooling 15_56 log,11.0,35.0
39,0,1499.259,0,4,-30,250,551,4.5,3,1500.199,0,736148.681521,Vis,Left,2015-07-03 15:56:00,3_7_2015 level5_250_cooling 15_56 log,11.0,35.0
40,0,1510.567,0,4,-30,250,701,9.0,4,1511.613,1,736148.681653,Aud,Left,2015-07-03 15:56:00,3_7_2015 level5_250_cooling 15_56 log,11.0,35.0
41,0,1521.473,1,6,30,250,701,0.0,6,1522.561,1,736148.681781,Aud,Left,2015-07-03 15:56:00,3_7_2015 level5_250_cooling 15_56 log,11.0,35.0
42,0,1528.944,0,2,-90,250,651,4.5,3,1532.615,0,736148.681896,Aud,Left,2015-07-03 15:56:00,3_7_2015 level5_250_cooling 15_56 log,11.0,35.0
43,0,1541.476,1,5,0,250,851,4.5,4,1542.254,0,736148.682008,Vis,Left,2015-07-03 15:56:00,3_7_2015 level5_250_cooling 15_56 log,11.0,35.0
44,0,1564.387,0,5,0,250,601,9.0,5,1565.436,1,736148.682275,Aud,Left,2015-07-03 15:56:00,3_7_2015 level5_250_cooling 15_56 log,11.0,35.0
45,0,1574.23,0,3,-60,250,751,9.0,3,1575.079,1,736148.682387,Vis,Left,2015-07-03 15:56:00,3_7_2015 level5_250_cooling 15_56 log,11.0,35.0
46,0,1582.361,0,2,-90,250,551,4.5,2,1583.553,1,736148.682485,Vis,Left,2015-07-03 15:56:00,3_7_2015 level5_250_cooling 15_56 log,11.0,35.0
47,0,1592.2,0,4,-30,250,501,4.5,4,1593.211,1,736148.682598,Vis,Left,2015-07-03 15:56:00,3_7_2015 level5_250_cooling 15_56 log,11.0,35.0
48,0,1603.431,0,7,60,250,901,0.0,7,1604.273,1,736148.682725,Aud,Left,2015-07-03 15:56:00,3_7_2015 level5_250_cooling 15_56 log,11.0,35.0
49,0,1615.694,0,6,30,250,951,4.5,7,1616.781,0,736148.682871,Aud,Left,2015-07-03 15:56:00,3_7_2015 level5_250_cooling 15_56 log,11.0,35.0
50,0,1625.107,0,6,30,250,1001,0.0,7,1626.535,0,736148.682982,Vis,Left,2015-07-03 15:56:00,3_7_2015 level5_250_cooling 15_56 log,10.0,35.0
51,0,1637.314,0,6,30,250,501,9.0,4,1638.31,0,736148.683119,Vis,Left,2015-07-03 15:56:00,3_7_2015 level5_250_cooling 15_56 log,10.0,35.0
52,0,1644.507,0,4,-30,250,601,0.0,4,1645.938,1,736148.683207,Aud,Left,2015-07-03 15:56:00,3_7_2015 level5_250_cooling 15_56 log,10.0,35.0
53,0,1656.898,0,8,90,250,951,9.0,8,1657.918,1,736148.683346,Vis,Left,2015-07-03 15:56:00,3_7_2015 level5_250_cooling 15_56 log,10.0,35.0
54,0,1666.258,0,3,-60,250,851,4.5,4,1667.098,0,736148.683453,Aud,Left,2015-07-03 15:56:00,3_7_2015 level5_250_cooling 15_56 log,10.0,35.0
55,0,1676.069,0,7,60,250,1001,0.0,7,1677.039,1,736148.683567,Vis,Left,2015-07-03 15:56:00,3_7_2015 level5_250_cooling 15_56 log,10.0,35.0
56,0,1685.421,0,5,0,250,801,4.5,5,1686.499,1,736148.683677,Vis,Left,2015-07-03 15:56:00,3_7_2015 level5_250_cooling 15_56 log,10.0,35.0
57,0,1694.415,0,2,-90,250,701,9.0,4,1695.062,0,736148.683778,Aud,Left,2015-07-03 15:56:00,3_7_2015 level5_250_cooling 15_56 log,10.0,35.0
58,0,1703.907,0,4,-30,250,751,4.5,4,1704.784,1,736148.683888,Vis,Left,2015-07-03 15:56:00,3_7_2015 level5_250_cooling 15_56 log,11.0,35.0
59,0,1712.298,0,5,0,250,551,9.0,8,1714.198,0,736148.683998,Aud,Left,2015-07-03 15:56:00,3_7_2015 level5_250_cooling 15_56 log,11.0,35.0
60,0,1727.366,0,5,0,250,901,0.0,4,1728.374,0,736148.684161,Vis,Left,2015-07-03 15:56:00,3_7_2015 level5_250_cooling 15_56 log,11.0,35.0
61,0,1741.571,1,4,-30,250,601,0.0,5,1742.639,0,736148.684327,Aud,Left,2015-07-03 15:56:00,3_7_2015 level5_250_cooling 15_56 log,11.0,35.0
62,0,1749.274,0,7,60,250,651,4.5,7,1751.335,1,736148.684427,Aud,Left,2015-07-03 15:56:00,3_7_2015 level5_250_cooling 15_56 log,11.0,35.0
63,0,1760.964,0,7,60,250,751,0.0,8,1761.849,0,736148.684548,Vis,Left,2015-07-03 15:56:00,3_7_2015 level5_250_cooling 15_56 log,11.0,35.0
64,0,1773.848,0,6,30,250,501,4.5,6,1774.874,1,736148.6847,Vis,Left,2015-07-03 15:56:00,3_7_2015 level5_250_cooling 15_56 log,11.0,35.0
65,0,1789.971,0,3,-60,250,901,0.0,3,1790.654,1,736148.684885,Vis,Left,2015-07-03 15:56:00,3_7_2015 level5_250_cooling 15_56 log,11.0,35.0
66,0,1797.7,0,2,-90,250,551,4.5,2,1798.822,1,736148.684977,Vis,Left,2015-07-03 15:56:00,3_7_2015 level5_250_cooling 15_56 log,11.0,35.0
67,0,1808.381,0,8,90,250,1001,4.5,8,1809.411,1,736148.685099,Vis,Left,2015-07-03 15:56:00,3_7_2015 level5_250_cooling 15_56 log,11.0,35.0
68,0,1820.904,0,3,-60,250,801,9.0,3,1821.808,1,736148.685243,Vis,Left,2015-07-03 15:56:00,3_7_2015 level5_250_cooling 15_56 log,11.0,35.0
69,0,1829.944,0,7,60,250,851,9.0,2,1830.967,0,736148.685348,Vis,Left,2015-07-03 15:56:00,3_7_2015 level5_250_cooling 15_56 log,11.0,35.0
70,0,1845.287,0,6,30,250,701,0.0,6,1846.165,1,736148.685524,Vis,Left,2015-07-03 15:56:00,3_7_2015 level5_250_cooling 15_56 log,11.0,35.0
71,0,1854.338,0,3,-60,250,501,9.0,4,1855.089,0,736148.685629,Aud,Left,2015-07-03 15:56:00,3_7_2015 level5_250_cooling 15_56 log,11.0,35.0
72,0,1861.659,0,3,-60,250,801,0.0,7,1863.081,0,736148.685721,Aud,Left,2015-07-03 15:56:00,3_7_2015 level5_250_cooling 15_56 log,11.0,34.0
73,0,1873.031,0,6,30,250,551,9.0,7,1874.079,0,736148.685848,Aud,Left,2015-07-03 15:56:00,3_7_2015 level5_250_cooling 15_56 log,11.0,34.0
74,0,1885.01,0,2,-90,250,951,4.5,8,1886.104,0,736148.685987,Aud,Left,2015-07-03 15:56:00,3_7_2015 level5_250_cooling 15_56 log,11.0,34.0
75,0,1917.9,0,4,-30,250,751,4.5,4,1918.915,1,736148.686367,Vis,Left,2015-07-03 15:56:00,3_7_2015 level5_250_cooling 15_56 log,11.0,34.0
76,0,1926.415,0,5,0,250,901,0.0,4,1927.26,0,736148.686463,Vis,Left,2015-07-03 15:56:00,3_7_2015 level5_250_cooling 15_56 log,11.0,34.0
77,0,1964.638,0,5,0,250,601,9.0,6,1966.141,0,736148.686913,Aud,Left,2015-07-03 15:56:00,3_7_2015 level5_250_cooling 15_56 log,11.0,34.0
78,0,1972.707,0,6,30,250,701,0.0,6,1973.829,1,736148.687002,Aud,Left,2015-07-03 15:56:00,3_7_2015 level5_250_cooling 15_56 log,11.0,35.0
79,0,1984.578,0,8,90,250,1001,0.0,8,1985.465,1,736148.687137,Aud,Left,2015-07-03 15:56:00,3_7_2015 level5_250_cooling 15_56 log,11.0,35.0
80,0,1994.741,0,8,90,250,651,9.0,8,1995.97,1,736148.687259,Aud,Left,2015-07-03 15:56:00,3_7_2015 level5_250_cooling 15_56 log,11.0,35.0
81,0,2003.596,0,2,-90,250,751,9.0,2,2004.542,1,736148.687358,Vis,Left,2015-07-03 15:56:00,3_7_2015 level5_250_cooling 15_56 log,11.0,35.0
82,0,2012.843,0,8,90,250,601,4.5,8,2014.098,1,736148.687469,Vis,Left,2015-07-03 15:56:00,3_7_2015 level5_250_cooling 15_56 log,11.0,35.0
83,0,2022.577,0,7,60,250,1001,4.5,8,2023.482,0,736148.687577,Aud,Left,2015-07-03 15:56:00,3_7_2015 level5_250_cooling 15_56 log,11.0,35.0
84,0,2036.0,0,4,-30,250,901,9.0,4,2036.92,1,736148.687733,Aud,Left,2015-07-03 15:56:00,3_7_2015 level5_250_cooling 15_56 log,11.0,35.0
85,0,2044.338,1,2,-90,250,651,0.0,2,2045.338,1,736148.68783,Vis,Left,2015-07-03 15:56:00,3_7_2015 level5_250_cooling 15_56 log,11.0,35.0
86,0,2054.203,0,4,-30,250,501,4.5,3,2057.909,0,736148.687976,Vis,Left,2015-07-03 15:56:00,3_7_2015 level5_250_cooling 15_56 log,11.0,35.0
87,0,2074.362,0,4,-30,250,551,4.5,4,2075.27,1,736148.688176,Vis,Left,2015-07-03 15:56:00,3_7_2015 level5_250_cooling 15_56 log,11.0,35.0
88,0,2085.542,0,3,-60,250,801,0.0,3,2086.433,1,736148.688305,Vis,Left,2015-07-03 15:56:00,3_7_2015 level5_250_cooling 15_56 log,11.0,35.0
89,0,2096.202,0,7,60,250,851,4.5,7,2097.316,1,736148.688432,Vis,Left,2015-07-03 15:56:00,3_7_2015 level5_250_cooling 15_56 log,11.0,34.0
90,0,2104.947,0,5,0,250,701,0.0,4,2105.616,0,736148.688529,Vis,Left,2015-07-03 15:56:00,3_7_2015 level5_250_cooling 15_56 log,11.0,34.0
91,0,2113.717,0,4,-30,250,1001,4.5,3,2114.418,0,736148.688631,Aud,Left,2015-07-03 15:56:00,3_7_2015 level5_250_cooling 15_56 log,11.0,34.0
92,0,2127.717,0,4,-30,250,951,0.0,4,2128.386,1,736148.688793,Aud,Left,2015-07-03 15:56:00,3_7_2015 level5_250_cooling 15_56 log,11.0,34.0
93,0,2136.611,0,8,90,250,851,4.5,8,2138.075,1,736148.688903,Aud,Left,2015-07-03 15:56:00,3_7_2015 level5_250_cooling 15_56 log,11.0,34.0
94,0,2144.544,0,7,60,250,751,0.0,7,2145.411,1,736148.688988,Aud,Left,2015-07-03 15:56:00,3_7_2015 level5_250_cooling 15_56 log,11.0,34.0
95,0,2152.679,0,6,30,250,701,4.5,6,2154.001,1,736148.689088,Vis,Left,2015-07-03 15:56:00,3_7_2015 level5_250_cooling 15_56 log,11.0,34.0
96,0,2172.512,0,8,90,250,801,9.0,8,2173.349,1,736148.689312,Aud,Left,2015-07-03 15:56:00,3_7_2015 level5_250_cooling 15_56 log,11.0,34.0
97,0,2181.384,0,2,-90,250,901,0.0,4,2182.249,0,736148.689415,Aud,Left,2015-07-03 15:56:00,3_7_2015 level5_250_cooling 15_56 log,10.0,35.0
98,0,2188.955,0,6,30,250,601,4.5,6,2189.923,1,736148.689504,Aud,Left,2015-07-03 15:56:00,3_7_2015 level5_250_cooling 15_56 log,10.0,35.0
99,0,2198.632,0,7,60,250,501,4.5,6,2199.739,0,736148.689617,Aud,Left,2015-07-03 15:56:00,3_7_2015 level5_250_cooling 15_56 log,10.0,35.0
100,0,2207.444,0,8,90,250,551,9.0,8,2208.418,1,736148.689717,Vis,Left,2015-07-03 15:56:00,3_7_2015 level5_250_cooling 15_56 log,10.0,35.0
101,0,2215.323,0,5,0,250,951,4.5,5,2216.288,1,736148.689808,Aud,Left,2015-07-03 15:56:00,3_7_2015 level5_250_cooling 15_56 log,10.0,35.0
102,0,2225.068,0,6,30,250,501,9.0,6,2226.223,1,736148.689924,Vis,Left,2015-07-03 15:56:00,3_7_2015 level5_250_cooling 15_56 log,10.0,35.0
103,0,2235.397,1,5,0,250,801,0.0,4,2236.122,0,736148.69004,Aud,Left,2015-07-03 15:56:00,3_7_2015 level5_250_cooling 15_56 log,10.0,35.0
104,0,2245.767,0,2,-90,250,851,4.5,2,2246.52,1,736148.690159,Aud,Left,2015-07-03 15:56:00,3_7_2015 level5_250_cooling 15_56 log,10.0,35.0
105,0,2256.623,0,6,30,250,901,9.0,3,2257.75,0,736148.690288,Aud,Left,2015-07-03 15:56:00,3_7_2015 level5_250_cooling 15_56 log,10.0,35.0
106,0,2268.389,1,5,0,250,651,4.5,6,2269.436,0,736148.690424,Vis,Left,2015-07-03 15:56:00,3_7_2015 level5_250_cooling 15_56 log,10.0,35.0
107,0,2275.915,0,2,-90,250,701,9.0,3,2278.799,0,736148.690532,Vis,Left,2015-07-03 15:56:00,3_7_2015 level5_250_cooling 15_56 log,10.0,35.0
108,0,2292.114,0,7,60,250,1001,4.5,7,2293.085,1,736148.690697,Vis,Left,2015-07-03 15:56:00,3_7_2015 level5_250_cooling 15_56 log,9.0,35.0
109,0,2303.657,0,3,-60,250,751,4.5,3,2304.5,1,736148.69083,Vis,Left,2015-07-03 15:56:00,3_7_2015 level5_250_cooling 15_56 log,9.0,35.0
110,0,2312.629,0,3,-60,250,551,0.0,4,2313.557,0,736148.690934,Aud,Left,2015-07-03 15:56:00,3_7_2015 level5_250_cooling 15_56 log,9.0,35.0
111,0,2322.695,0,8,90,250,1001,9.0,8,2323.618,1,736148.691051,Vis,Left,2015-07-03 15:56:00,3_7_2015 level5_250_cooling 15_56 log,9.0,35.0
112,0,2331.49,0,3,-60,250,901,4.5,4,2332.61,0,736148.691155,Aud,Left,2015-07-03 15:56:00,3_7_2015 level5_250_cooling 15_56 log,9.0,35.0
113,0,2340.256,0,6,30,250,701,4.5,6,2341.27,1,736148.691256,Vis,Left,2015-07-03 15:56:00,3_7_2015 level5_250_cooling 15_56 log,9.0,35.0
114,0,2347.077,0,4,-30,250,801,0.0,8,2347.644,0,736148.691333,Vis,Left,2015-07-03 15:56:00,3_7_2015 level5_250_cooling 15_56 log,9.0,35.0
115,0,2357.436,0,5,0,250,651,9.0,6,2358.322,0,736148.691453,Aud,Left,2015-07-03 15:56:00,3_7_2015 level5_250_cooling 15_56 log,10.0,35.0
116,0,2369.727,0,4,-30,250,751,0.0,3,2374.042,0,736148.691635,Aud,Left,2015-07-03 15:56:00,3_7_2015 level5_250_cooling 15_56 log,10.0,35.0
117,0,2387.678,0,8,90,250,601,9.0,8,2388.677,1,736148.691804,Aud,Left,2015-07-03 15:56:00,3_7_2015 level5_250_cooling 15_56 log,10.0,35.0
118,0,2396.211,0,2,-90,250,951,4.5,8,2397.399,0,736148.691905,Aud,Left,2015-07-03 15:56:00,3_7_2015 level5_250_cooling 15_56 log,10.0,35.0
119,0,2412.425,0,6,30,250,501,4.5,2,2419.961,0,736148.692165,Aud,Left,2015-07-03 15:56:00,3_7_2015 level5_250_cooling 15_56 log,10.0,35.0
1,0,1589.059,0,4,-30,100,951,4.5,4,1598.152,1,736183.587562,Aud,Left,2015-08-07 13:39:00,7_8_2015 level5_100_cooling 13_39 log,11.0,35.0
2,0,1606.821,0,2,-90,100,551,0.0,2,1616.307,1,736183.587773,Aud,Left,2015-08-07 13:39:00,7_8_2015 level5_100_cooling 13_39 log,10.0,36.0
3,0,1620.593,0,5,0,100,501,4.5,8,1623.108,0,736183.587852,Aud,Left,2015-08-07 13:39:00,7_8_2015 level5_100_cooling 13_39 log,10.0,36.0
4,0,1679.251,0,2,-90,100,901,9.0,3,1680.521,0,736183.588516,Aud,Left,2015-08-07 13:39:00,7_8_2015 level5_100_cooling 13_39 log,9.0,35.0
5,0,1689.08,0,3,-60,100,651,0.0,2,1690.034,0,736183.588626,Aud,Left,2015-08-07 13:39:00,7_8_2015 level5_100_cooling 13_39 log,9.0,35.0
6,0,1709.564,0,8,90,100,701,9.0,8,1710.706,1,736183.588865,Aud,Left,2015-08-07 13:39:00,7_8_2015 level5_100_cooling 13_39 log,9.0,35.0
7,0,1717.231,0,7,60,100,751,9.0,8,1717.915,0,736183.58895,Aud,Left,2015-08-07 13:39:00,7_8_2015 level5_100_cooling 13_39 log,9.0,35.0
8,0,1727.175,0,8,90,100,801,0.0,8,1727.83,1,736183.589066,Aud,Left,2015-08-07 13:39:00,7_8_2015 level5_100_cooling 13_39 log,9.0,35.0
9,0,1735.017,0,6,30,100,1001,9.0,7,1736.018,0,736183.589158,Aud,Left,2015-08-07 13:39:00,7_8_2015 level5_100_cooling 13_39 log,9.0,35.0
10,0,1744.837,0,3,-60,100,601,0.0,2,1745.814,0,736183.589272,Aud,Left,2015-08-07 13:39:00,7_8_2015 level5_100_cooling 13_39 log,8.0,35.0
11,0,1756.174,0,6,30,100,801,4.5,7,1758.462,0,736183.589419,Aud,Left,2015-08-07 13:39:00,7_8_2015 level5_100_cooling 13_39 log,8.0,35.0
12,0,1768.863,0,4,-30,100,951,9.0,8,1774.453,0,736183.589603,Aud,Left,2015-08-07 13:39:00,7_8_2015 level5_100_cooling 13_39 log,8.0,35.0
13,0,1786.504,0,5,0,100,701,9.0,4,1787.86,0,736183.589759,Aud,Left,2015-08-07 13:39:00,7_8_2015 level5_100_cooling 13_39 log,8.0,35.0
14,0,1799.929,0,7,60,100,501,4.5,7,1801.323,1,736183.589914,Aud,Left,2015-08-07 13:39:00,7_8_2015 level5_100_cooling 13_39 log,8.0,35.0
15,0,1807.922,0,6,30,100,751,4.5,8,1809.408,0,736183.590008,Aud,Left,2015-08-07 13:39:00,7_8_2015 level5_100_cooling 13_39 log,8.0,35.0
16,0,1817.079,0,3,-60,100,651,0.0,3,1818.46,1,736183.590113,Aud,Left,2015-08-07 13:39:00,7_8_2015 level5_100_cooling 13_39 log,8.0,35.0
17,0,1824.086,0,5,0,100,901,9.0,4,1824.957,0,736183.590187,Aud,Left,2015-08-07 13:39:00,7_8_2015 level5_100_cooling 13_39 log,8.0,35.0
18,0,1837.727,0,5,0,100,1001,0.0,6,1838.608,0,736183.590346,Aud,Left,2015-08-07 13:39:00,7_8_2015 level5_100_cooling 13_39 log,8.0,35.0
19,0,1864.68,0,8,90,100,601,0.0,8,1865.454,1,736183.590657,Aud,Left,2015-08-07 13:39:00,7_8_2015 level5_100_cooling 13_39 log,8.0,35.0
20,0,1871.896,0,7,60,100,551,9.0,8,1872.571,0,736183.590741,Aud,Left,2015-08-07 13:39:00,7_8_2015 level5_100_cooling 13_39 log,8.0,35.0
21,0,1881.645,0,6,30,100,751,4.5,6,1882.518,1,736183.590854,Aud,Left,2015-08-07 13:39:00,7_8_2015 level5_100_cooling 13_39 log,8.0,35.0
22,0,1894.185,0,2,-90,100,951,0.0,2,1894.902,1,736183.590999,Aud,Left,2015-08-07 13:39:00,7_8_2015 level5_100_cooling 13_39 log,8.0,35.0
23,0,1907.754,0,7,60,100,901,0.0,7,1908.572,1,736183.591156,Aud,Left,2015-08-07 13:39:00,7_8_2015 level5_100_cooling 13_39 log,8.0,35.0
24,0,1916.432,0,8,90,100,801,4.5,8,1917.025,1,736183.591256,Aud,Left,2015-08-07 13:39:00,7_8_2015 level5_100_cooling 13_39 log,8.0,35.0
25,0,1924.974,0,4,-30,100,651,9.0,6,1926.703,0,736183.591365,Aud,Left,2015-08-07 13:39:00,7_8_2015 level5_100_cooling 13_39 log,8.0,35.0
26,0,1935.455,0,2,-90,100,601,4.5,3,1936.571,0,736183.59148,Aud,Left,2015-08-07 13:39:00,7_8_2015 level5_100_cooling 13_39 log,8.0,35.0
27,0,1956.228,0,4,-30,100,701,0.0,2,1956.987,0,736183.591716,Aud,Left,2015-08-07 13:39:00,7_8_2015 level5_100_cooling 13_39 log,8.0,35.0
28,0,1968.849,0,3,-60,100,551,9.0,3,1970.576,1,736183.591873,Aud,Left,2015-08-07 13:39:00,7_8_2015 level5_100_cooling 13_39 log,8.0,35.0
29,0,1978.279,0,4,-30,100,501,4.5,4,1979.193,1,736183.591973,Aud,Left,2015-08-07 13:39:00,7_8_2015 level5_100_cooling 13_39 log,8.0,35.0
30,0,1983.286,0,6,30,100,1001,9.0,7,1984.207,0,736183.59203,Aud,Left,2015-08-07 13:39:00,7_8_2015 level5_100_cooling 13_39 log,8.0,35.0
31,0,1993.93,1,3,-60,100,551,9.0,4,1995.02,0,736183.592156,Aud,Left,2015-08-07 13:39:00,7_8_2015 level5_100_cooling 13_39 log,8.0,35.0
32,0,2002.638,0,5,0,100,651,0.0,6,2004.005,0,736183.59226,Aud,Left,2015-08-07 13:39:00,7_8_2015 level5_100_cooling 13_39 log,8.0,35.0
33,0,2011.893,0,8,90,100,851,4.5,8,2012.745,1,736183.592361,Aud,Left,2015-08-07 13:39:00,7_8_2015 level5_100_cooling 13_39 log,8.0,35.0
34,0,2021.78,0,4,-30,100,801,9.0,5,2023.018,0,736183.59248,Aud,Left,2015-08-07 13:39:00,7_8_2015 level5_100_cooling 13_39 log,8.0,35.0
35,0,2034.418,0,7,60,100,601,0.0,7,2035.2,1,736183.592623,Aud,Left,2015-08-07 13:39:00,7_8_2015 level5_100_cooling 13_39 log,8.0,35.0
36,0,2041.433,0,7,60,100,701,9.0,7,2042.27,1,736183.592703,Aud,Left,2015-08-07 13:39:00,7_8_2015 level5_100_cooling 13_39 log,8.0,35.0
37,0,2049.699,0,6,30,100,901,9.0,6,2050.359,1,736183.592799,Aud,Left,2015-08-07 13:39:00,7_8_2015 level5_100_cooling 13_39 log,8.0,35.0
38,0,2060.177,0,2,-90,100,501,4.5,2,2061.254,1,736183.592923,Aud,Left,2015-08-07 13:39:00,7_8_2015 level5_100_cooling 13_39 log,8.0,34.0
39,0,2069.405,0,8,90,100,1001,4.5,8,2070.275,1,736183.593027,Aud,Left,2015-08-07 13:39:00,7_8_2015 level5_100_cooling 13_39 log,8.0,34.0
40,0,2078.076,0,3,-60,100,751,0.0,3,2078.889,1,736183.593127,Aud,Left,2015-08-07 13:39:00,7_8_2015 level5_100_cooling 13_39 log,8.0,34.0
41,0,2085.582,1,2,-90,100,651,0.0,3,2086.404,0,736183.593214,Aud,Left,2015-08-07 13:39:00,7_8_2015 level5_100_cooling 13_39 log,8.0,34.0
42,0,2093.856,0,5,0,100,501,4.5,6,2094.998,0,736183.593313,Aud,Left,2015-08-07 13:39:00,7_8_2015 level5_100_cooling 13_39 log,8.0,34.0
43,0,2103.879,0,6,30,100,601,9.0,7,2104.707,0,736183.593426,Aud,Left,2015-08-07 13:39:00,7_8_2015 level5_100_cooling 13_39 log,8.0,34.0
44,0,2114.79,0,8,90,100,751,0.0,8,2115.438,1,736183.593552,Aud,Left,2015-08-07 13:39:00,7_8_2015 level5_100_cooling 13_39 log,8.0,34.0
45,0,2122.797,0,6,30,100,851,9.0,8,2123.646,0,736183.593644,Aud,Left,2015-08-07 13:39:00,7_8_2015 level5_100_cooling 13_39 log,8.0,34.0
46,0,2133.735,0,3,-60,100,551,4.5,3,2134.902,1,736183.593775,Aud,Left,2015-08-07 13:39:00,7_8_2015 level5_100_cooling 13_39 log,8.0,34.0
47,0,2142.353,0,8,90,100,1001,4.5,8,2143.155,1,736183.593871,Aud,Left,2015-08-07 13:39:00,7_8_2015 level5_100_cooling 13_39 log,8.0,34.0
48,0,2150.594,0,5,0,100,951,9.0,5,2151.69,1,736183.59397,Aud,Left,2015-08-07 13:39:00,7_8_2015 level5_100_cooling 13_39 log,8.0,34.0
49,0,2161.149,0,7,60,100,901,9.0,6,2162.101,0,736183.59409,Aud,Left,2015-08-07 13:39:00,7_8_2015 level5_100_cooling 13_39 log,8.0,34.0
50,0,2173.628,0,2,-90,100,801,4.5,3,2174.68,0,736183.594235,Aud,Left,2015-08-07 13:39:00,7_8_2015 level5_100_cooling 13_39 log,8.0,35.0
51,0,2181.964,0,4,-30,100,751,4.5,3,2182.849,0,736183.59433,Aud,Left,2015-08-07 13:39:00,7_8_2015 level5_100_cooling 13_39 log,8.0,35.0
52,0,2191.523,0,2,-90,100,701,9.0,2,2192.434,1,736183.594441,Aud,Left,2015-08-07 13:39:00,7_8_2015 level5_100_cooling 13_39 log,8.0,35.0
53,0,2201.128,0,3,-60,100,951,9.0,3,2202.137,1,736183.594553,Aud,Left,2015-08-07 13:39:00,7_8_2015 level5_100_cooling 13_39 log,8.0,35.0
54,0,2209.362,0,7,60,100,601,4.5,6,2210.419,0,736183.594649,Aud,Left,2015-08-07 13:39:00,7_8_2015 level5_100_cooling 13_39 log,8.0,35.0
55,0,2220.952,0,5,0,100,551,4.5,4,2222.069,0,736183.594784,Aud,Left,2015-08-07 13:39:00,7_8_2015 level5_100_cooling 13_39 log,8.0,35.0
56,0,2240.054,0,4,-30,100,801,9.0,2,2240.901,0,736183.595002,Aud,Left,2015-08-07 13:39:00,7_8_2015 level5_100_cooling 13_39 log,8.0,35.0
57,0,2256.921,0,2,-90,100,501,4.5,4,2258.171,0,736183.595202,Aud,Left,2015-08-07 13:39:00,7_8_2015 level5_100_cooling 13_39 log,8.0,35.0
58,0,2286.677,0,5,0,100,1001,9.0,5,2287.551,1,736183.595542,Aud,Left,2015-08-07 13:39:00,7_8_2015 level5_100_cooling 13_39 log,8.0,35.0
59,0,2295.208,0,7,60,100,851,4.5,7,2296.106,1,736183.595641,Aud,Left,2015-08-07 13:39:00,7_8_2015 level5_100_cooling 13_39 log,8.0,35.0
60,0,2300.955,0,8,90,100,651,0.0,8,2301.581,1,736183.595707,Aud,Left,2015-08-07 13:39:00,7_8_2015 level5_100_cooling 13_39 log,8.0,35.0
61,0,2307.779,0,7,60,100,851,9.0,6,2308.678,0,736183.595786,Aud,Left,2015-08-07 13:39:00,7_8_2015 level5_100_cooling 13_39 log,8.0,35.0
62,0,2317.448,0,8,90,100,601,4.5,8,2318.161,1,736183.595897,Aud,Left,2015-08-07 13:39:00,7_8_2015 level5_100_cooling 13_39 log,8.0,35.0
63,0,2325.568,0,6,30,100,1001,0.0,8,2326.213,0,736183.595992,Aud,Left,2015-08-07 13:39:00,7_8_2015 level5_100_cooling 13_39 log,8.0,35.0
64,0,2338.446,0,4,-30,100,651,4.5,2,2339.367,0,736183.596141,Aud,Left,2015-08-07 13:39:00,7_8_2015 level5_100_cooling 13_39 log,8.0,35.0
65,0,2348.759,0,3,-60,100,751,4.5,3,2349.501,1,736183.59626,Aud,Left,2015-08-07 13:39:00,7_8_2015 level5_100_cooling 13_39 log,7.0,35.0
66,0,2358.057,1,3,-60,100,501,9.0,4,2359.211,0,736183.596371,Aud,Left,2015-08-07 13:39:00,7_8_2015 level5_100_cooling 13_39 log,7.0,35.0
67,0,2367.875,0,6,30,100,901,4.5,5,2369.183,0,736183.596487,Aud,Left,2015-08-07 13:39:00,7_8_2015 level5_100_cooling 13_39 log,7.0,35.0
68,0,2378.589,0,4,-30,100,701,9.0,3,2380.131,0,736183.596613,Aud,Left,2015-08-07 13:39:00,7_8_2015 level5_100_cooling 13_39 log,8.0,34.0
69,0,2392.047,0,2,-90,100,801,0.0,2,2392.819,1,736183.596761,Aud,Left,2015-08-07 13:39:00,7_8_2015 level5_100_cooling 13_39 log,8.0,35.0
70,0,2424.711,0,5,0,100,951,9.0,5,2425.537,1,736183.597139,Aud,Left,2015-08-07 13:39:00,7_8_2015 level5_100_cooling 13_39 log,8.0,35.0
71,0,2433.976,0,3,-60,100,951,4.5,3,2434.901,1,736183.597247,Aud,Left,2015-08-07 13:39:00,7_8_2015 level5_100_cooling 13_39 log,8.0,35.0
72,0,2443.318,0,3,-60,100,851,0.0,4,2444.113,0,736183.597354,Aud,Left,2015-08-07 13:39:00,7_8_2015 level5_100_cooling 13_39 log,8.0,35.0
73,0,2452.308,0,5,0,100,551,4.5,5,2453.078,1,736183.597458,Aud,Left,2015-08-07 13:39:00,7_8_2015 level5_100_cooling 13_39 log,8.0,35.0
74,0,2462.226,0,6,30,100,651,9.0,5,2463.135,0,736183.597574,Aud,Left,2015-08-07 13:39:00,7_8_2015 level5_100_cooling 13_39 log,8.0,35.0
75,0,2469.761,0,5,0,100,601,4.5,4,2470.674,0,736183.597662,Aud,Left,2015-08-07 13:39:00,7_8_2015 level5_100_cooling 13_39 log,8.0,35.0
76,0,2479.169,0,4,-30,100,501,0.0,3,2480.076,0,736183.59777,Aud,Left,2015-08-07 13:39:00,7_8_2015 level5_100_cooling 13_39 log,8.0,35.0
77,0,2487.467,0,8,90,100,901,4.5,8,2488.091,1,736183.597867,Aud,Left,2015-08-07 13:39:00,7_8_2015 level5_100_cooling 13_39 log,8.0,35.0
78,0,2496.307,0,7,60,100,751,0.0,8,2497.016,0,736183.597968,Aud,Left,2015-08-07 13:39:00,7_8_2015 level5_100_cooling 13_39 log,8.0,35.0
79,0,2505.081,0,4,-30,100,801,0.0,3,2506.056,0,736183.59807,Aud,Left,2015-08-07 13:39:00,7_8_2015 level5_100_cooling 13_39 log,8.0,35.0
80,0,2516.231,0,2,-90,100,701,4.5,2,2517.266,1,736183.598201,Aud,Left,2015-08-07 13:39:00,7_8_2015 level5_100_cooling 13_39 log,8.0,35.0
81,0,2528.145,0,2,-90,100,501,4.5,3,2528.977,0,736183.598336,Aud,Left,2015-08-07 13:39:00,7_8_2015 level5_100_cooling 13_39 log,8.0,35.0
82,0,2536.997,0,6,30,100,751,0.0,6,2537.771,1,736183.598439,Aud,Left,2015-08-07 13:39:00,7_8_2015 level5_100_cooling 13_39 log,8.0,35.0
83,0,2545.409,0,8,90,100,801,4.5,7,2546.323,0,736183.598537,Aud,Left,2015-08-07 13:39:00,7_8_2015 level5_100_cooling 13_39 log,8.0,35.0
84,0,2555.859,0,7,60,100,701,0.0,6,2556.616,0,736183.598658,Aud,Left,2015-08-07 13:39:00,7_8_2015 level5_100_cooling 13_39 log,8.0,35.0
85,0,2566.089,0,7,60,100,551,0.0,7,2567.153,1,736183.598778,Aud,Left,2015-08-07 13:39:00,7_8_2015 level5_100_cooling 13_39 log,8.0,35.0
86,0,2572.773,0,7,60,100,1001,9.0,7,2573.548,1,736183.598853,Aud,Left,2015-08-07 13:39:00,7_8_2015 level5_100_cooling 13_39 log,8.0,35.0
87,0,2581.516,0,2,-90,100,601,4.5,3,2582.629,0,736183.598957,Aud,Left,2015-08-07 13:39:00,7_8_2015 level5_100_cooling 13_39 log,8.0,35.0
88,0,2595.816,0,4,-30,100,951,0.0,3,2596.693,0,736183.59912,Aud,Left,2015-08-07 13:39:00,7_8_2015 level5_100_cooling 13_39 log,8.0,35.0
89,0,2605.043,0,5,0,100,901,0.0,8,2606.663,0,736183.599235,Aud,Left,2015-08-07 13:39:00,7_8_2015 level5_100_cooling 13_39 log,8.0,35.0
90,0,2632.688,0,8,90,100,851,9.0,8,2633.565,1,736183.599546,Aud,Left,2015-08-07 13:39:00,7_8_2015 level5_100_cooling 13_39 log,8.0,34.0
91,0,2642.71,0,3,-60,100,501,4.5,3,2644.739,1,736183.599675,Aud,Left,2015-08-07 13:39:00,7_8_2015 level5_100_cooling 13_39 log,8.0,34.0
92,0,2656.9,0,3,-60,100,951,0.0,3,2658.028,1,736183.599829,Aud,Left,2015-08-07 13:39:00,7_8_2015 level5_100_cooling 13_39 log,8.0,34.0
93,0,2665.531,0,4,-30,100,601,0.0,4,2666.481,1,736183.599928,Aud,Left,2015-08-07 13:39:00,7_8_2015 level5_100_cooling 13_39 log,8.0,34.0
94,0,2675.143,0,6,30,100,1001,4.5,6,2676.042,1,736183.600038,Aud,Left,2015-08-07 13:39:00,7_8_2015 level5_100_cooling 13_39 log,8.0,34.0
95,0,2686.739,0,6,30,100,901,4.5,7,2687.557,0,736183.600171,Aud,Left,2015-08-07 13:39:00,7_8_2015 level5_100_cooling 13_39 log,8.0,34.0
96,0,2697.549,0,8,90,100,701,0.0,8,2698.266,1,736183.600296,Aud,Left,2015-08-07 13:39:00,7_8_2015 level5_100_cooling 13_39 log,8.0,34.0
97,0,2706.204,0,2,-90,100,551,4.5,3,2706.978,0,736183.600397,Aud,Left,2015-08-07 13:39:00,7_8_2015 level5_100_cooling 13_39 log,8.0,34.0
98,0,2714.497,0,5,0,100,651,0.0,5,2715.361,1,736183.600493,Aud,Left,2015-08-07 13:39:00,7_8_2015 level5_100_cooling 13_39 log,8.0,34.0
99,0,2723.867,0,4,-30,100,851,0.0,3,2724.697,0,736183.600601,Aud,Left,2015-08-07 13:39:00,7_8_2015 level5_100_cooling 13_39 log,8.0,34.0
100,0,2733.036,0,7,60,100,751,4.5,7,2733.998,1,736183.600709,Aud,Left,2015-08-07 13:39:00,7_8_2015 level5_100_cooling 13_39 log,8.0,34.0
101,0,2740.25,0,8,90,100,851,4.5,8,2740.917,1,736183.60079,Aud,Left,2015-08-07 13:39:00,7_8_2015 level5_100_cooling 13_39 log,8.0,34.0
102,0,2747.825,0,8,90,100,651,0.0,8,2748.43,1,736183.600878,Aud,Left,2015-08-07 13:39:00,7_8_2015 level5_100_cooling 13_39 log,8.0,34.0
103,0,2754.634,0,7,60,100,801,9.0,6,2755.549,0,736183.600958,Aud,Left,2015-08-07 13:39:00,7_8_2015 level5_100_cooling 13_39 log,8.0,34.0
104,0,2764.002,0,3,-60,100,501,4.5,2,2764.905,0,736183.601067,Aud,Left,2015-08-07 13:39:00,7_8_2015 level5_100_cooling 13_39 log,8.0,34.0
105,0,2773.679,0,2,-90,100,751,9.0,3,2774.537,0,736183.601178,Aud,Left,2015-08-07 13:39:00,7_8_2015 level5_100_cooling 13_39 log,8.0,34.0
106,0,2782.123,0,3,-60,100,1001,4.5,3,2783.124,1,736183.601278,Aud,Left,2015-08-07 13:39:00,7_8_2015 level5_100_cooling 13_39 log,8.0,34.0
107,0,2790.424,0,4,-30,100,701,4.5,3,2791.403,0,736183.601374,Aud,Left,2015-08-07 13:39:00,7_8_2015 level5_100_cooling 13_39 log,8.0,34.0
108,0,2801.192,0,2,-90,100,551,0.0,3,2802.281,0,736183.6015,Aud,Left,2015-08-07 13:39:00,7_8_2015 level5_100_cooling 13_39 log,8.0,34.0
109,0,2812.596,0,6,30,100,601,0.0,6,2813.406,1,736183.601628,Aud,Left,2015-08-07 13:39:00,7_8_2015 level5_100_cooling 13_39 log,8.0,34.0
110,0,2822.306,0,5,0,100,901,4.5,4,2823.298,0,736183.601743,Aud,Left,2015-08-07 13:39:00,7_8_2015 level5_100_cooling 13_39 log,8.0,34.0
111,0,2831.333,0,6,30,100,601,9.0,6,2832.215,1,736183.601846,Aud,Left,2015-08-07 13:39:00,7_8_2015 level5_100_cooling 13_39 log,8.0,34.0
112,0,2840.975,0,5,0,100,851,0.0,5,2841.957,1,736183.601958,Aud,Left,2015-08-07 13:39:00,7_8_2015 level5_100_cooling 13_39 log,8.0,34.0
113,0,2846.719,0,7,60,100,551,4.5,6,2847.493,0,736183.602023,Aud,Left,2015-08-07 13:39:00,7_8_2015 level5_100_cooling 13_39 log,8.0,34.0
114,0,2856.21,0,3,-60,100,701,9.0,3,2857.125,1,736183.602134,Aud,Left,2015-08-07 13:39:00,7_8_2015 level5_100_cooling 13_39 log,8.0,34.0
115,0,2863.473,1,6,30,100,501,9.0,6,2864.405,1,736183.602218,Aud,Left,2015-08-07 13:39:00,7_8_2015 level5_100_cooling 13_39 log,8.0,34.0
116,0,2872.184,0,6,30,100,901,0.0,6,2876.369,1,736183.602357,Aud,Left,2015-08-07 13:39:00,7_8_2015 level5_100_cooling 13_39 log,9.0,34.0
117,0,2884.163,0,3,-60,100,1001,0.0,3,2885.367,1,736183.602461,Aud,Left,2015-08-07 13:39:00,7_8_2015 level5_100_cooling 13_39 log,9.0,34.0
118,0,2892.758,0,5,0,100,651,9.0,4,2893.585,0,736183.602557,Aud,Left,2015-08-07 13:39:00,7_8_2015 level5_100_cooling 13_39 log,9.0,34.0
119,0,2901.494,0,8,90,100,951,4.5,8,2902.185,1,736183.602657,Aud,Left,2015-08-07 13:39:00,7_8_2015 level5_100_cooling 13_39 log,9.0,34.0
120,0,2912.67,0,2,-90,100,751,0.0,3,2913.685,0,736183.602789,Aud,Left,2015-08-07 13:39:00,7_8_2015 level5_100_cooling 13_39 log,9.0,34.0
121,0,2922.669,0,2,-90,100,601,9.0,4,2923.754,0,736183.602905,Aud,Left,2015-08-07 13:39:00,7_8_2015 level5_100_cooling 13_39 log,8.0,34.0
122,0,2937.839,0,7,60,100,501,0.0,7,2938.6,1,736183.603078,Aud,Left,2015-08-07 13:39:00,7_8_2015 level5_100_cooling 13_39 log,9.0,34.0
123,0,2943.679,0,4,-30,100,801,9.0,5,2944.596,0,736183.603147,Aud,Left,2015-08-07 13:39:00,7_8_2015 level5_100_cooling 13_39 log,9.0,34.0
124,0,2954.346,0,5,0,100,951,4.5,4,2955.807,0,736183.603276,Aud,Left,2015-08-07 13:39:00,7_8_2015 level5_100_cooling 13_39 log,9.0,34.0
125,0,2965.934,0,8,90,100,851,9.0,8,2966.574,1,736183.603404,Aud,Left,2015-08-07 13:39:00,7_8_2015 level5_100_cooling 13_39 log,9.0,34.0
126,0,2972.539,0,4,-30,100,1001,0.0,3,2973.542,0,736183.603481,Aud,Left,2015-08-07 13:39:00,7_8_2015 level5_100_cooling 13_39 log,9.0,34.0
127,0,2983.081,0,2,-90,100,751,0.0,3,2983.984,0,736183.603602,Aud,Left,2015-08-07 13:39:00,7_8_2015 level5_100_cooling 13_39 log,9.0,34.0
1,0,560.205,1,7,60,250,951,4.5,8,561.592,0,736131.689127,Vis,Left,2015-06-16 16:23:00,16_6_2015 level5_250_cooling 16_23 log,9.0,35.0
2,0,573.442,1,6,30,250,501,9.0,8,579.097,0,736131.68933,Vis,Left,2015-06-16 16:23:00,16_6_2015 level5_250_cooling 16_23 log,9.0,35.0
3,0,591.427,0,2,-90,250,1001,4.5,3,592.293,0,736131.689482,Vis,Left,2015-06-16 16:23:00,16_6_2015 level5_250_cooling 16_23 log,9.0,35.0
4,0,604.484,0,8,90,250,901,9.0,8,605.196,1,736131.689633,Vis,Left,2015-06-16 16:23:00,16_6_2015 level5_250_cooling 16_23 log,9.0,35.0
5,0,632.765,0,5,0,250,851,9.0,7,633.544,0,736131.68996,Vis,Left,2015-06-16 16:23:00,16_6_2015 level5_250_cooling 16_23 log,9.0,35.0
6,0,656.057,0,4,-30,250,751,4.5,4,656.891,1,736131.690231,Aud,Left,2015-06-16 16:23:00,16_6_2015 level5_250_cooling 16_23 log,9.0,35.0
7,0,664.18,0,7,60,250,651,0.0,8,665.117,0,736131.690325,Aud,Left,2015-06-16 16:23:00,16_6_2015 level5_250_cooling 16_23 log,9.0,35.0
8,0,679.187,0,8,90,250,701,4.5,8,680.313,1,736131.6905,Aud,Left,2015-06-16 16:23:00,16_6_2015 level5_250_cooling 16_23 log,9.0,34.0
9,0,695.49,0,4,-30,250,551,0.0,4,696.196,1,736131.690686,Aud,Left,2015-06-16 16:23:00,16_6_2015 level5_250_cooling 16_23 log,9.0,34.0
10,0,703.381,0,8,90,250,801,9.0,8,704.75,1,736131.690784,Aud,Left,2015-06-16 16:23:00,16_6_2015 level5_250_cooling 16_23 log,9.0,34.0
11,0,717.058,0,5,0,250,951,9.0,4,717.78,0,736131.690936,Aud,Left,2015-06-16 16:23:00,16_6_2015 level5_250_cooling 16_23 log,9.0,35.0
12,0,725.591,0,2,-90,250,851,4.5,3,726.309,0,736131.691035,Aud,Left,2015-06-16 16:23:00,16_6_2015 level5_250_cooling 16_23 log,9.0,35.0
13,0,738.855,0,5,0,250,901,0.0,7,739.919,0,736131.691191,Vis,Left,2015-06-16 16:23:00,16_6_2015 level5_250_cooling 16_23 log,9.0,34.0
14,0,753.298,0,7,60,250,1001,4.5,8,754.138,0,736131.691356,Vis,Left,2015-06-16 16:23:00,16_6_2015 level5_250_cooling 16_23 log,9.0,34.0
15,0,769.051,0,6,30,250,501,4.5,8,772.429,0,736131.691567,Aud,Left,2015-06-16 16:23:00,16_6_2015 level5_250_cooling 16_23 log,9.0,34.0
16,0,800.968,0,3,-60,250,801,9.0,3,802.364,1,736131.691914,Aud,Left,2015-06-16 16:23:00,16_6_2015 level5_250_cooling 16_23 log,8.0,34.0
17,0,811.137,0,4,-30,250,601,9.0,4,812.263,1,736131.692028,Vis,Left,2015-06-16 16:23:00,16_6_2015 level5_250_cooling 16_23 log,8.0,34.0
18,0,822.018,0,5,0,250,751,4.5,4,822.682,0,736131.69215,Aud,Left,2015-06-16 16:23:00,16_6_2015 level5_250_cooling 16_23 log,8.0,34.0
19,0,830.793,0,7,60,250,651,4.5,6,832.073,0,736131.692258,Aud,Left,2015-06-16 16:23:00,16_6_2015 level5_250_cooling 16_23 log,8.0,34.0
20,0,847.117,0,6,30,250,551,9.0,7,848.052,0,736131.692443,Aud,Left,2015-06-16 16:23:00,16_6_2015 level5_250_cooling 16_23 log,9.0,34.0
21,0,859.385,0,2,-90,250,951,4.5,3,859.998,0,736131.692583,Aud,Left,2015-06-16 16:23:00,16_6_2015 level5_250_cooling 16_23 log,9.0,34.0
22,0,872.474,0,8,90,250,751,0.0,8,873.722,1,736131.69274,Vis,Left,2015-06-16 16:23:00,16_6_2015 level5_250_cooling 16_23 log,9.0,34.0
23,0,882.204,0,3,-60,250,851,9.0,3,882.908,1,736131.692847,Aud,Left,2015-06-16 16:23:00,16_6_2015 level5_250_cooling 16_23 log,9.0,34.0
24,0,889.21,0,3,-60,250,901,4.5,8,890.035,0,736131.692928,Vis,Left,2015-06-16 16:23:00,16_6_2015 level5_250_cooling 16_23 log,9.0,34.0
25,0,898.617,0,6,30,250,501,4.5,7,899.673,0,736131.69304,Vis,Left,2015-06-16 16:23:00,16_6_2015 level5_250_cooling 16_23 log,9.0,34.0
26,0,907.221,0,2,-90,250,701,9.0,3,908.521,0,736131.693143,Vis,Left,2015-06-16 16:23:00,16_6_2015 level5_250_cooling 16_23 log,9.0,34.0
27,0,917.548,0,3,-60,250,1001,0.0,3,918.404,1,736131.693257,Vis,Left,2015-06-16 16:23:00,16_6_2015 level5_250_cooling 16_23 log,9.0,34.0
28,0,925.042,0,4,-30,250,551,9.0,4,926.068,1,736131.693345,Vis,Left,2015-06-16 16:23:00,16_6_2015 level5_250_cooling 16_23 log,9.0,34.0
29,0,933.252,0,6,30,250,601,4.5,5,934.319,0,736131.693441,Vis,Left,2015-06-16 16:23:00,16_6_2015 level5_250_cooling 16_23 log,9.0,34.0
30,0,941.741,0,5,0,250,651,9.0,5,942.923,1,736131.693541,Vis,Left,2015-06-16 16:23:00,16_6_2015 level5_250_cooling 16_23 log,9.0,34.0
31,0,946.567,0,2,-90,250,601,0.0,3,947.284,0,736131.693592,Aud,Left,2015-06-16 16:23:00,16_6_2015 level5_250_cooling 16_23 log,9.0,34.0
32,0,957.073,0,3,-60,250,801,9.0,3,958.601,1,736131.693722,Vis,Left,2015-06-16 16:23:00,16_6_2015 level5_250_cooling 16_23 log,9.0,34.0
33,0,965.467,0,7,60,250,551,0.0,8,966.235,0,736131.693811,Aud,Left,2015-06-16 16:23:00,16_6_2015 level5_250_cooling 16_23 log,9.0,34.0
34,0,983.791,0,7,60,250,1001,9.0,8,984.597,0,736131.694023,Vis,Left,2015-06-16 16:23:00,16_6_2015 level5_250_cooling 16_23 log,9.0,34.0
35,0,1012.217,0,2,-90,250,901,9.0,3,1013.155,0,736131.694354,Vis,Left,2015-06-16 16:23:00,16_6_2015 level5_250_cooling 16_23 log,9.0,34.0
36,0,1021.018,0,8,90,250,851,0.0,8,1022.228,1,736131.694459,Vis,Left,2015-06-16 16:23:00,16_6_2015 level5_250_cooling 16_23 log,9.0,34.0
37,0,1031.321,0,3,-60,250,751,4.5,3,1032.088,1,736131.694573,Aud,Left,2015-06-16 16:23:00,16_6_2015 level5_250_cooling 16_23 log,9.0,34.0
38,0,1040.523,0,5,0,250,651,0.0,8,1041.357,0,736131.69468,Vis,Left,2015-06-16 16:23:00,16_6_2015 level5_250_cooling 16_23 log,9.0,34.0
39,0,1051.667,0,8,90,250,951,9.0,8,1052.776,1,736131.694812,Vis,Left,2015-06-16 16:23:00,16_6_2015 level5_250_cooling 16_23 log,9.0,34.0
40,0,1062.292,0,6,30,250,501,0.0,8,1063.827,0,736131.69494,Aud,Left,2015-06-16 16:23:00,16_6_2015 level5_250_cooling 16_23 log,9.0,34.0
41,0,1074.131,0,8,90,250,501,9.0,8,1075.002,1,736131.695069,Aud,Left,2015-06-16 16:23:00,16_6_2015 level5_250_cooling 16_23 log,9.0,34.0
42,0,1087.833,0,6,30,250,901,0.0,8,1088.414,0,736131.695228,Vis,Left,2015-06-16 16:23:00,16_6_2015 level5_250_cooling 16_23 log,9.0,34.0
43,0,1099.38,0,7,60,250,601,0.0,8,1100.204,0,736131.695361,Vis,Left,2015-06-16 16:23:00,16_6_2015 level5_250_cooling 16_23 log,9.0,34.0
44,0,1112.984,0,4,-30,250,951,4.5,4,1114.006,1,736131.69552,Vis,Left,2015-06-16 16:23:00,16_6_2015 level5_250_cooling 16_23 log,9.0,34.0
45,0,1124.143,0,4,-30,250,751,9.0,4,1126.048,1,736131.695661,Aud,Left,2015-06-16 16:23:00,16_6_2015 level5_250_cooling 16_23 log,9.0,34.0
46,0,1134.753,0,8,90,250,851,0.0,8,1135.585,1,736131.695771,Aud,Left,2015-06-16 16:23:00,16_6_2015 level5_250_cooling 16_23 log,9.0,34.0
47,0,1150.501,0,2,-90,250,551,9.0,4,1151.444,0,736131.695954,Aud,Left,2015-06-16 16:23:00,16_6_2015 level5_250_cooling 16_23 log,9.0,34.0
48,0,1161.247,0,6,30,250,701,4.5,6,1162.538,1,736131.696083,Aud,Left,2015-06-16 16:23:00,16_6_2015 level5_250_cooling 16_23 log,9.0,34.0
49,0,1173.121,0,7,60,250,1001,9.0,8,1173.872,0,736131.696215,Aud,Left,2015-06-16 16:23:00,16_6_2015 level5_250_cooling 16_23 log,9.0,34.0
50,0,1185.026,0,2,-90,250,801,0.0,3,1185.822,0,736131.696352,Vis,Left,2015-06-16 16:23:00,16_6_2015 level5_250_cooling 16_23 log,9.0,34.0
51,0,1200.536,0,3,-60,250,651,9.0,3,1201.266,1,736131.696532,Aud,Left,2015-06-16 16:23:00,16_6_2015 level5_250_cooling 16_23 log,9.0,34.0
52,0,1210.445,0,5,0,250,1001,4.5,8,1210.862,0,736131.696646,Aud,Left,2015-06-16 16:23:00,16_6_2015 level5_250_cooling 16_23 log,9.0,34.0
53,0,1223.897,0,4,-30,250,751,0.0,4,1224.721,1,736131.696802,Vis,Left,2015-06-16 16:23:00,16_6_2015 level5_250_cooling 16_23 log,9.0,34.0
54,0,1234.944,0,3,-60,250,501,9.0,3,1235.828,1,736131.69693,Vis,Left,2015-06-16 16:23:00,16_6_2015 level5_250_cooling 16_23 log,9.0,34.0
55,0,1241.992,0,4,-30,250,801,9.0,4,1242.794,1,736131.697011,Aud,Left,2015-06-16 16:23:00,16_6_2015 level5_250_cooling 16_23 log,9.0,34.0
56,0,1249.61,0,5,0,250,551,0.0,4,1250.438,0,736131.697099,Aud,Left,2015-06-16 16:23:00,16_6_2015 level5_250_cooling 16_23 log,9.0,34.0
57,0,1261.435,0,2,-90,250,951,0.0,8,1262.342,0,736131.697238,Vis,Left,2015-06-16 16:23:00,16_6_2015 level5_250_cooling 16_23 log,9.0,34.0
58,0,1274.014,0,8,90,250,601,4.5,8,1274.899,1,736131.697382,Vis,Left,2015-06-16 16:23:00,16_6_2015 level5_250_cooling 16_23 log,9.0,34.0
59,0,1282.963,0,3,-60,250,901,9.0,3,1283.666,1,736131.697486,Vis,Left,2015-06-16 16:23:00,16_6_2015 level5_250_cooling 16_23 log,9.0,34.0
60,0,1291.419,0,5,0,250,851,0.0,8,1292.319,0,736131.697584,Vis,Left,2015-06-16 16:23:00,16_6_2015 level5_250_cooling 16_23 log,9.0,34.0
61,0,1304.817,0,4,-30,250,851,9.0,4,1305.765,1,736131.69774,Vis,Left,2015-06-16 16:23:00,16_6_2015 level5_250_cooling 16_23 log,9.0,34.0
62,0,1314.572,0,8,90,250,951,4.5,8,1315.338,1,736131.697851,Aud,Left,2015-06-16 16:23:00,16_6_2015 level5_250_cooling 16_23 log,9.0,34.0
63,0,1324.097,0,4,-30,250,601,9.0,4,1324.801,1,736131.697961,Aud,Left,2015-06-16 16:23:00,16_6_2015 level5_250_cooling 16_23 log,9.0,34.0
64,0,1334.005,0,2,-90,250,651,0.0,3,1334.718,0,736131.698076,Aud,Left,2015-06-16 16:23:00,16_6_2015 level5_250_cooling 16_23 log,9.0,34.0
65,0,1346.14,0,8,90,250,801,9.0,8,1346.918,1,736131.698216,Aud,Left,2015-06-16 16:23:00,16_6_2015 level5_250_cooling 16_23 log,9.0,34.0
66,0,1356.647,0,5,0,250,701,0.0,4,1358.206,0,736131.698347,Aud,Left,2015-06-16 16:23:00,16_6_2015 level5_250_cooling 16_23 log,9.0,34.0
67,0,1367.821,0,6,30,250,501,9.0,7,1369.314,0,736131.698475,Vis,Left,2015-06-16 16:23:00,16_6_2015 level5_250_cooling 16_23 log,9.0,34.0
68,0,1384.55,0,6,30,250,901,4.5,8,1385.461,0,736131.698662,Aud,Left,2015-06-16 16:23:00,16_6_2015 level5_250_cooling 16_23 log,9.0,34.0
69,0,1400.439,0,8,90,250,551,9.0,8,1401.521,1,736131.698848,Vis,Left,2015-06-16 16:23:00,16_6_2015 level5_250_cooling 16_23 log,10.0,34.0
70,0,1409.388,0,7,60,250,751,0.0,7,1410.253,1,736131.69895,Aud,Left,2015-06-16 16:23:00,16_6_2015 level5_250_cooling 16_23 log,10.0,34.0
71,0,1417.226,0,7,60,250,851,4.5,8,1417.956,0,736131.699039,Vis,Left,2015-06-16 16:23:00,16_6_2015 level5_250_cooling 16_23 log,10.0,34.0
72,0,1430.355,0,3,-60,250,951,0.0,3,1431.058,1,736131.699192,Aud,Left,2015-06-16 16:23:00,16_6_2015 level5_250_cooling 16_23 log,9.0,34.0
73,0,1437.336,0,2,-90,250,751,9.0,3,1438.316,0,736131.699274,Vis,Left,2015-06-16 16:23:00,16_6_2015 level5_250_cooling 16_23 log,9.0,34.0
74,0,1452.079,0,7,60,250,501,4.5,6,1453.07,0,736131.699445,Aud,Left,2015-06-16 16:23:00,16_6_2015 level5_250_cooling 16_23 log,9.0,34.0
75,0,1461.878,0,3,-60,250,601,9.0,4,1463.092,0,736131.699561,Vis,Left,2015-06-16 16:23:00,16_6_2015 level5_250_cooling 16_23 log,9.0,34.0
76,0,1471.63,0,4,-30,250,901,4.5,4,1472.538,1,736131.69967,Vis,Left,2015-06-16 16:23:00,16_6_2015 level5_250_cooling 16_23 log,9.0,34.0
77,0,1481.54,0,6,30,250,551,9.0,6,1483.14,1,736131.699793,Vis,Left,2015-06-16 16:23:00,16_6_2015 level5_250_cooling 16_23 log,9.0,34.0
78,0,1492.61,0,5,0,250,801,4.5,4,1493.408,0,736131.699912,Aud,Left,2015-06-16 16:23:00,16_6_2015 level5_250_cooling 16_23 log,9.0,34.0
79,0,1503.121,0,4,-30,250,651,0.0,4,1503.862,1,736131.700034,Aud,Left,2015-06-16 16:23:00,16_6_2015 level5_250_cooling 16_23 log,9.0,34.0
80,0,1511.495,0,2,-90,250,1001,4.5,3,1512.099,0,736131.70013,Aud,Left,2015-06-16 16:23:00,16_6_2015 level5_250_cooling 16_23 log,9.0,34.0
81,0,1536.33,0,6,30,250,551,4.5,8,1537.375,0,736131.700421,Aud,Left,2015-06-16 16:23:00,16_6_2015 level5_250_cooling 16_23 log,10.0,34.0
82,0,1559.185,0,5,0,250,801,9.0,6,1566.009,0,736131.700752,Vis,Left,2015-06-16 16:23:00,16_6_2015 level5_250_cooling 16_23 log,10.0,34.0
83,0,1718.345,0,3,-60,250,501,0.0,4,1721.135,0,736131.702548,Aud,Left,2015-06-16 16:23:00,16_6_2015 level5_250_cooling 16_23 log,11.0,34.0
84,0,1767.536,0,7,60,250,701,9.0,8,1769.129,0,736131.703104,Vis,Left,2015-06-16 16:23:00,16_6_2015 level5_250_cooling 16_23 log,9.0,34.0
1,0,951.191,0,3,-60,250,501,4.5,2,953.219,0,736126.591271,Aud,Left,2015-06-11 13:55:00,11_6_2015 level5_250_cooling 13_55 log,11.0,35.0
2,0,977.429,0,6,30,250,601,0.0,3,983.095,0,736126.591617,Vis,Left,2015-06-11 13:55:00,11_6_2015 level5_250_cooling 13_55 log,10.0,35.0
3,0,1015.673,0,7,60,250,1001,0.0,7,1018.542,1,736126.592027,Aud,Left,2015-06-11 13:55:00,11_6_2015 level5_250_cooling 13_55 log,9.0,35.0
4,0,1035.785,0,4,-30,250,651,4.5,4,1037.217,1,736126.592243,Aud,Left,2015-06-11 13:55:00,11_6_2015 level5_250_cooling 13_55 log,9.0,35.0
5,0,1056.431,0,2,-90,250,801,9.0,4,1057.822,0,736126.592481,Aud,Left,2015-06-11 13:55:00,11_6_2015 level5_250_cooling 13_55 log,9.0,35.0
6,0,1065.433,0,7,60,250,701,4.5,6,1069.344,0,736126.592615,Vis,Left,2015-06-11 13:55:00,11_6_2015 level5_250_cooling 13_55 log,9.0,35.0
7,0,1091.584,0,8,90,250,751,9.0,8,1092.579,1,736126.592885,Vis,Left,2015-06-11 13:55:00,11_6_2015 level5_250_cooling 13_55 log,9.0,35.0
8,0,1099.395,0,6,30,250,551,0.0,7,1100.25,0,736126.592973,Aud,Left,2015-06-11 13:55:00,11_6_2015 level5_250_cooling 13_55 log,9.0,35.0
9,0,1111.621,0,2,-90,250,851,0.0,8,1112.35,0,736126.593114,Vis,Left,2015-06-11 13:55:00,11_6_2015 level5_250_cooling 13_55 log,9.0,35.0
10,0,1133.589,0,8,90,250,901,9.0,8,1134.373,1,736126.593369,Aud,Left,2015-06-11 13:55:00,11_6_2015 level5_250_cooling 13_55 log,8.0,35.0
11,0,1148.142,0,4,-30,250,701,9.0,4,1149.06,1,736126.593537,Aud,Left,2015-06-11 13:55:00,11_6_2015 level5_250_cooling 13_55 log,9.0,35.0
12,0,1160.302,0,5,0,250,551,4.5,2,1161.631,0,736126.593683,Aud,Left,2015-06-11 13:55:00,11_6_2015 level5_250_cooling 13_55 log,9.0,34.0
13,0,1176.733,0,6,30,250,901,4.5,5,1178.035,0,736126.593873,Vis,Left,2015-06-11 13:55:00,11_6_2015 level5_250_cooling 13_55 log,9.0,34.0
14,0,1184.407,0,6,30,250,801,9.0,6,1185.304,1,736126.593957,Aud,Left,2015-06-11 13:55:00,11_6_2015 level5_250_cooling 13_55 log,9.0,35.0
15,0,1198.591,0,2,-90,250,751,4.5,2,1199.617,1,736126.594123,Vis,Left,2015-06-11 13:55:00,11_6_2015 level5_250_cooling 13_55 log,9.0,35.0
16,0,1207.947,1,4,-30,250,501,0.0,4,1209.2,1,736126.594234,Vis,Left,2015-06-11 13:55:00,11_6_2015 level5_250_cooling 13_55 log,9.0,35.0
17,0,1219.812,0,5,0,250,601,4.5,3,1223.998,0,736126.594404,Vis,Left,2015-06-11 13:55:00,11_6_2015 level5_250_cooling 13_55 log,9.0,35.0
18,0,1235.64,0,8,90,250,851,0.0,8,1236.515,1,736126.59455,Vis,Left,2015-06-11 13:55:00,11_6_2015 level5_250_cooling 13_55 log,9.0,34.0
19,0,1240.018,0,8,90,250,1001,0.0,8,1241.286,1,736126.594605,Aud,Left,2015-06-11 13:55:00,11_6_2015 level5_250_cooling 13_55 log,9.0,34.0
20,0,1249.64,0,4,-30,250,951,4.5,4,1250.732,1,736126.594714,Vis,Left,2015-06-11 13:55:00,11_6_2015 level5_250_cooling 13_55 log,9.0,34.0
21,0,1259.985,0,3,-60,250,701,9.0,3,1260.958,1,736126.594833,Vis,Left,2015-06-11 13:55:00,11_6_2015 level5_250_cooling 13_55 log,9.0,34.0
22,0,1267.472,0,3,-60,250,501,0.0,4,1268.439,0,736126.594919,Aud,Left,2015-06-11 13:55:00,11_6_2015 level5_250_cooling 13_55 log,9.0,34.0
23,0,1274.79,0,3,-60,250,851,9.0,4,1276.448,0,736126.595012,Vis,Left,2015-06-11 13:55:00,11_6_2015 level5_250_cooling 13_55 log,9.0,34.0
24,0,1282.997,0,5,0,250,551,0.0,6,1284.475,0,736126.595105,Vis,Left,2015-06-11 13:55:00,11_6_2015 level5_250_cooling 13_55 log,9.0,34.0
25,0,1292.503,0,2,-90,250,901,4.5,4,1293.548,0,736126.59521,Aud,Left,2015-06-11 13:55:00,11_6_2015 level5_250_cooling 13_55 log,9.0,34.0
26,0,1303.566,0,7,60,250,951,0.0,8,1304.479,0,736126.595336,Vis,Left,2015-06-11 13:55:00,11_6_2015 level5_250_cooling 13_55 log,9.0,34.0
27,0,1319.569,0,7,60,250,651,0.0,7,1320.371,1,736126.595521,Aud,Left,2015-06-11 13:55:00,11_6_2015 level5_250_cooling 13_55 log,9.0,34.0
28,0,1330.326,0,5,0,250,801,9.0,5,1331.582,1,736126.595651,Aud,Left,2015-06-11 13:55:00,11_6_2015 level5_250_cooling 13_55 log,9.0,34.0
29,0,1334.13,0,3,-60,250,1001,4.5,3,1334.855,1,736126.595689,Vis,Left,2015-06-11 13:55:00,11_6_2015 level5_250_cooling 13_55 log,9.0,34.0
30,0,1340.6,0,8,90,250,751,9.0,8,1341.375,1,736126.595765,Aud,Left,2015-06-11 13:55:00,11_6_2015 level5_250_cooling 13_55 log,9.0,34.0
31,0,1348.061,0,6,30,250,901,9.0,7,1350.408,0,736126.595868,Vis,Left,2015-06-11 13:55:00,11_6_2015 level5_250_cooling 13_55 log,9.0,34.0
32,0,1358.057,0,8,90,250,701,0.0,5,1358.738,0,736126.595967,Vis,Left,2015-06-11 13:55:00,11_6_2015 level5_250_cooling 13_55 log,9.0,34.0
33,0,1363.882,0,5,0,250,601,0.0,5,1364.837,1,736126.596035,Aud,Left,2015-06-11 13:55:00,11_6_2015 level5_250_cooling 13_55 log,9.0,34.0
34,0,1388.253,0,2,-90,250,801,9.0,3,1388.982,0,736126.596315,Aud,Left,2015-06-11 13:55:00,11_6_2015 level5_250_cooling 13_55 log,9.0,34.0
35,0,1435.637,0,5,0,250,951,9.0,6,1436.557,0,736126.596865,Vis,Left,2015-06-11 13:55:00,11_6_2015 level5_250_cooling 13_55 log,9.0,34.0
36,0,1445.553,0,2,-90,250,751,0.0,2,1446.71,1,736126.596983,Vis,Left,2015-06-11 13:55:00,11_6_2015 level5_250_cooling 13_55 log,9.0,34.0
37,0,1456.352,0,4,-30,250,551,0.0,4,1457.139,1,736126.597104,Aud,Left,2015-06-11 13:55:00,11_6_2015 level5_250_cooling 13_55 log,8.0,34.0
38,0,1465.952,0,7,60,250,851,4.5,8,1466.68,0,736126.597215,Aud,Left,2015-06-11 13:55:00,11_6_2015 level5_250_cooling 13_55 log,8.0,34.0
39,0,1476.385,0,8,90,250,651,0.0,8,1477.405,1,736126.597338,Vis,Left,2015-06-11 13:55:00,11_6_2015 level5_250_cooling 13_55 log,8.0,34.0
40,0,1484.81,0,8,90,250,501,4.5,8,1485.579,1,736126.597433,Aud,Left,2015-06-11 13:55:00,11_6_2015 level5_250_cooling 13_55 log,8.0,34.0
41,0,1495.529,0,4,-30,250,651,9.0,4,1496.427,1,736126.597558,Aud,Left,2015-06-11 13:55:00,11_6_2015 level5_250_cooling 13_55 log,8.0,34.0
42,0,1503.995,0,2,-90,250,901,0.0,3,1504.943,0,736126.597657,Vis,Left,2015-06-11 13:55:00,11_6_2015 level5_250_cooling 13_55 log,9.0,34.0
43,0,1513.928,0,6,30,250,1001,9.0,5,1514.586,0,736126.59777,Aud,Left,2015-06-11 13:55:00,11_6_2015 level5_250_cooling 13_55 log,9.0,34.0
44,0,1526.078,0,3,-60,250,801,0.0,4,1527.193,0,736126.597914,Vis,Left,2015-06-11 13:55:00,11_6_2015 level5_250_cooling 13_55 log,9.0,34.0
45,0,1535.563,0,5,0,250,551,9.0,4,1536.509,0,736126.598022,Aud,Left,2015-06-11 13:55:00,11_6_2015 level5_250_cooling 13_55 log,9.0,34.0
46,0,1544.581,0,5,0,250,601,4.5,7,1545.623,0,736126.598128,Vis,Left,2015-06-11 13:55:00,11_6_2015 level5_250_cooling 13_55 log,9.0,34.0
47,0,1553.152,0,3,-60,250,501,0.0,4,1554.448,0,736126.598229,Aud,Left,2015-06-11 13:55:00,11_6_2015 level5_250_cooling 13_55 log,9.0,34.0
48,0,1561.974,0,4,-30,250,701,9.0,4,1563.578,1,736126.598336,Vis,Left,2015-06-11 13:55:00,11_6_2015 level5_250_cooling 13_55 log,9.0,34.0
49,0,1576.596,0,6,30,250,751,0.0,8,1577.593,0,736126.598497,Vis,Left,2015-06-11 13:55:00,11_6_2015 level5_250_cooling 13_55 log,9.0,34.0
50,0,1594.483,0,7,60,250,951,4.5,7,1595.494,1,736126.598705,Vis,Left,2015-06-11 13:55:00,11_6_2015 level5_250_cooling 13_55 log,9.0,34.0
51,0,1605.709,0,7,60,250,901,0.0,7,1607.004,1,736126.598838,Vis,Left,2015-06-11 13:55:00,11_6_2015 level5_250_cooling 13_55 log,9.0,34.0
52,0,1618.019,0,2,-90,250,501,9.0,3,1618.749,0,736126.598975,Aud,Left,2015-06-11 13:55:00,11_6_2015 level5_250_cooling 13_55 log,9.0,34.0
53,0,1627.133,0,4,-30,250,651,9.0,4,1628.389,1,736126.599086,Vis,Left,2015-06-11 13:55:00,11_6_2015 level5_250_cooling 13_55 log,9.0,34.0
54,0,1637.369,0,7,60,250,751,0.0,8,1638.046,0,736126.599199,Aud,Left,2015-06-11 13:55:00,11_6_2015 level5_250_cooling 13_55 log,9.0,34.0
55,0,1648.302,0,3,-60,250,601,4.5,4,1650.094,0,736126.599336,Aud,Left,2015-06-11 13:55:00,11_6_2015 level5_250_cooling 13_55 log,9.0,34.0
56,0,1658.512,0,6,30,250,851,0.0,5,1659.33,0,736126.599444,Aud,Left,2015-06-11 13:55:00,11_6_2015 level5_250_cooling 13_55 log,9.0,34.0
57,0,1667.478,0,3,-60,250,801,0.0,4,1668.559,0,736126.59955,Aud,Left,2015-06-11 13:55:00,11_6_2015 level5_250_cooling 13_55 log,9.0,34.0
58,0,1676.692,0,4,-30,250,1001,4.5,4,1680.299,1,736126.599686,Vis,Left,2015-06-11 13:55:00,11_6_2015 level5_250_cooling 13_55 log,9.0,34.0
59,0,1690.639,1,3,-60,250,701,4.5,3,1691.609,1,736126.599817,Vis,Left,2015-06-11 13:55:00,11_6_2015 level5_250_cooling 13_55 log,9.0,34.0
60,0,1699.102,0,5,0,250,551,0.0,8,1702.98,0,736126.599949,Aud,Left,2015-06-11 13:55:00,11_6_2015 level5_250_cooling 13_55 log,10.0,34.0
61,0,1715.481,1,2,-90,250,1001,9.0,2,1721.248,1,736126.60016,Aud,Left,2015-06-11 13:55:00,11_6_2015 level5_250_cooling 13_55 log,10.0,34.0
62,0,1731.758,0,5,0,250,701,4.5,8,1732.702,0,736126.600293,Vis,Left,2015-06-11 13:55:00,11_6_2015 level5_250_cooling 13_55 log,10.0,34.0
63,0,1748.082,0,7,60,250,601,4.5,7,1749.277,1,736126.600485,Vis,Left,2015-06-11 13:55:00,11_6_2015 level5_250_cooling 13_55 log,10.0,34.0
64,0,1760.753,0,4,-30,250,801,9.0,3,1762.55,0,736126.600638,Aud,Left,2015-06-11 13:55:00,11_6_2015 level5_250_cooling 13_55 log,10.0,34.0
65,0,1770.554,1,6,30,250,901,0.0,7,1771.618,0,736126.600743,Vis,Left,2015-06-11 13:55:00,11_6_2015 level5_250_cooling 13_55 log,9.0,34.0
66,0,1784.812,0,7,60,250,551,9.0,6,1786.828,0,736126.600919,Aud,Left,2015-06-11 13:55:00,11_6_2015 level5_250_cooling 13_55 log,9.0,34.0
67,0,1793.685,0,2,-90,250,501,0.0,3,1794.693,0,736126.60101,Vis,Left,2015-06-11 13:55:00,11_6_2015 level5_250_cooling 13_55 log,9.0,34.0
68,0,1812.311,0,6,30,250,851,9.0,8,1813.342,0,736126.601226,Aud,Left,2015-06-11 13:55:00,11_6_2015 level5_250_cooling 13_55 log,9.0,34.0
69,0,1822.693,0,8,90,250,751,9.0,8,1823.567,1,736126.601344,Aud,Left,2015-06-11 13:55:00,11_6_2015 level5_250_cooling 13_55 log,9.0,34.0
70,0,1831.002,0,2,-90,250,651,4.5,2,1831.884,1,736126.601441,Aud,Left,2015-06-11 13:55:00,11_6_2015 level5_250_cooling 13_55 log,9.0,34.0
71,0,1839.359,1,6,30,250,601,9.0,7,1841.263,0,736126.601549,Vis,Left,2015-06-11 13:55:00,11_6_2015 level5_250_cooling 13_55 log,9.0,34.0
72,0,1852.483,1,5,0,250,501,4.5,4,1854.749,0,736126.601705,Vis,Left,2015-06-11 13:55:00,11_6_2015 level5_250_cooling 13_55 log,9.0,34.0
73,0,1863.767,1,2,-90,250,551,4.5,3,1864.435,0,736126.60182,Vis,Left,2015-06-11 13:55:00,11_6_2015 level5_250_cooling 13_55 log,9.0,34.0
74,0,1872.212,0,6,30,250,701,0.0,3,1876.888,0,736126.601962,Aud,Left,2015-06-11 13:55:00,11_6_2015 level5_250_cooling 13_55 log,9.0,34.0
75,0,1888.014,0,7,60,250,1001,4.5,8,1888.904,0,736126.602101,Aud,Left,2015-06-11 13:55:00,11_6_2015 level5_250_cooling 13_55 log,9.0,34.0
76,0,1898.245,0,8,90,250,851,0.0,8,1899.288,1,736126.60222,Vis,Left,2015-06-11 13:55:00,11_6_2015 level5_250_cooling 13_55 log,9.0,34.0
77,0,1907.074,1,7,60,250,951,0.0,8,1908.146,0,736126.602323,Vis,Left,2015-06-11 13:55:00,11_6_2015 level5_250_cooling 13_55 log,9.0,34.0
78,0,1918.7,0,8,90,250,751,9.0,8,1919.825,1,736126.602459,Vis,Left,2015-06-11 13:55:00,11_6_2015 level5_250_cooling 13_55 log,9.0,34.0
79,0,1931.614,0,4,-30,250,801,9.0,4,1932.641,1,736126.602606,Aud,Left,2015-06-11 13:55:00,11_6_2015 level5_250_cooling 13_55 log,9.0,34.0
80,0,1939.717,0,8,90,250,901,4.5,8,1941.494,1,736126.60271,Aud,Left,2015-06-11 13:55:00,11_6_2015 level5_250_cooling 13_55 log,9.0,34.0
81,0,1952.967,0,3,-60,250,551,9.0,3,1953.841,1,736126.602852,Vis,Left,2015-06-11 13:55:00,11_6_2015 level5_250_cooling 13_55 log,9.0,34.0
82,0,1959.43,0,4,-30,250,801,4.5,4,1960.635,1,736126.602931,Vis,Left,2015-06-11 13:55:00,11_6_2015 level5_250_cooling 13_55 log,9.0,34.0
83,0,1969.056,0,5,0,250,851,4.5,4,1969.981,0,736126.60304,Aud,Left,2015-06-11 13:55:00,11_6_2015 level5_250_cooling 13_55 log,9.0,34.0
84,0,1977.178,0,3,-60,250,751,0.0,4,1978.212,0,736126.603134,Aud,Left,2015-06-11 13:55:00,11_6_2015 level5_250_cooling 13_55 log,9.0,34.0
85,0,1987.569,0,3,-60,250,601,0.0,3,1988.447,1,736126.603253,Vis,Left,2015-06-11 13:55:00,11_6_2015 level5_250_cooling 13_55 log,9.0,34.0
86,0,1995.852,0,5,0,250,701,4.5,8,1997.685,0,736126.603359,Vis,Left,2015-06-11 13:55:00,11_6_2015 level5_250_cooling 13_55 log,9.0,34.0
87,0,2009.783,0,8,90,250,501,4.5,8,2010.684,1,736126.60351,Aud,Left,2015-06-11 13:55:00,11_6_2015 level5_250_cooling 13_55 log,9.0,34.0
88,0,2017.213,0,3,-60,250,901,9.0,3,2018.192,1,736126.603597,Vis,Left,2015-06-11 13:55:00,11_6_2015 level5_250_cooling 13_55 log,9.0,34.0
89,0,2025.21,0,6,30,250,1001,9.0,6,2026.422,1,736126.603692,Aud,Left,2015-06-11 13:55:00,11_6_2015 level5_250_cooling 13_55 log,9.0,34.0
90,0,2029.326,0,2,-90,250,651,0.0,3,2030.057,0,736126.603735,Aud,Left,2015-06-11 13:55:00,11_6_2015 level5_250_cooling 13_55 log,9.0,34.0
91,0,2048.394,1,7,60,250,1001,9.0,7,2049.366,1,736126.603958,Aud,Left,2015-06-11 13:55:00,11_6_2015 level5_250_cooling 13_55 log,9.0,34.0
92,0,2058.207,0,6,30,250,801,4.5,7,2062.211,0,736126.604107,Vis,Left,2015-06-11 13:55:00,11_6_2015 level5_250_cooling 13_55 log,9.0,34.0
93,0,2073.552,0,4,-30,250,851,0.0,4,2074.317,1,736126.604248,Aud,Left,2015-06-11 13:55:00,11_6_2015 level5_250_cooling 13_55 log,9.0,34.0
94,0,2080.962,0,2,-90,250,751,9.0,2,2082.249,1,736126.604338,Vis,Left,2015-06-11 13:55:00,11_6_2015 level5_250_cooling 13_55 log,9.0,34.0
95,0,2089.501,0,8,90,250,701,9.0,8,2090.476,1,736126.604434,Vis,Left,2015-06-11 13:55:00,11_6_2015 level5_250_cooling 13_55 log,9.0,34.0
96,0,2099.858,0,2,-90,250,951,0.0,3,2100.591,0,736126.604552,Aud,Left,2015-06-11 13:55:00,11_6_2015 level5_250_cooling 13_55 log,9.0,34.0
97,0,2112.356,0,6,30,250,651,9.0,6,2113.357,1,736126.604698,Vis,Left,2015-06-11 13:55:00,11_6_2015 level5_250_cooling 13_55 log,9.0,34.0
98,0,2116.847,0,6,30,250,501,0.0,7,2117.885,0,736126.604751,Aud,Left,2015-06-11 13:55:00,11_6_2015 level5_250_cooling 13_55 log,9.0,34.0
99,0,2134.5,0,4,-30,250,601,0.0,4,2135.928,1,736126.60496,Vis,Left,2015-06-11 13:55:00,11_6_2015 level5_250_cooling 13_55 log,9.0,34.0
100,0,2143.833,0,4,-30,250,901,9.0,4,2144.965,1,736126.605064,Aud,Left,2015-06-11 13:55:00,11_6_2015 level5_250_cooling 13_55 log,9.0,34.0
101,0,2152.079,0,7,60,250,901,9.0,7,2153.001,1,736126.605158,Aud,Left,2015-06-11 13:55:00,11_6_2015 level5_250_cooling 13_55 log,9.0,34.0
102,0,2161.705,0,5,0,250,701,0.0,4,2162.858,0,736126.605271,Aud,Left,2015-06-11 13:55:00,11_6_2015 level5_250_cooling 13_55 log,9.0,34.0
103,0,2172.32,0,8,90,250,851,9.0,8,2172.963,1,736126.605391,Aud,Left,2015-06-11 13:55:00,11_6_2015 level5_250_cooling 13_55 log,9.0,34.0
104,0,2180.049,0,5,0,250,951,4.5,7,2181.334,0,736126.605485,Aud,Left,2015-06-11 13:55:00,11_6_2015 level5_250_cooling 13_55 log,9.0,34.0
105,0,2189.395,0,7,60,250,551,9.0,8,2190.331,0,736126.605589,Vis,Left,2015-06-11 13:55:00,11_6_2015 level5_250_cooling 13_55 log,9.0,34.0
106,0,2202.651,0,3,-60,250,801,0.0,4,2203.763,0,736126.605744,Aud,Left,2015-06-11 13:55:00,11_6_2015 level5_250_cooling 13_55 log,9.0,34.0
107,0,2227.149,0,7,60,250,601,4.5,8,2229.1,0,736126.606039,Vis,Left,2015-06-11 13:55:00,11_6_2015 level5_250_cooling 13_55 log,9.0,34.0
108,0,2247.427,0,8,90,250,751,9.0,8,2248.621,1,736126.606264,Vis,Left,2015-06-11 13:55:00,11_6_2015 level5_250_cooling 13_55 log,9.0,34.0
109,0,2255.515,0,4,-30,250,501,9.0,3,2257.036,0,736126.606361,Vis,Left,2015-06-11 13:55:00,11_6_2015 level5_250_cooling 13_55 log,9.0,34.0
110,0,2362.338,0,2,-90,250,1001,0.0,3,2363.677,0,736126.607595,Vis,Left,2015-06-11 13:55:00,11_6_2015 level5_250_cooling 13_55 log,10.0,34.0
111,0,2371.807,0,5,0,250,801,9.0,8,2374.213,0,736126.607718,Vis,Left,2015-06-11 13:55:00,11_6_2015 level5_250_cooling 13_55 log,10.0,34.0
112,0,2411.542,0,3,-60,250,901,4.5,-1,-1.0,0,736126.608323,Aud,Left,2015-06-11 13:55:00,11_6_2015 level5_250_cooling 13_55 log,9.0,34.0
1,0,2029.155,0,2,-90,100,851,0.0,8,2031.168,0,736181.589407,Aud,Left,2015-08-05 13:34:00,5_8_2015 level5_100_cooling 13_34 log,13.0,35.0
2,0,2045.489,0,4,-30,100,801,4.5,3,2048.298,0,736181.589605,Aud,Left,2015-08-05 13:34:00,5_8_2015 level5_100_cooling 13_34 log,12.0,34.0
3,0,2057.347,0,8,90,100,1001,0.0,8,2058.862,1,736181.589727,Aud,Left,2015-08-05 13:34:00,5_8_2015 level5_100_cooling 13_34 log,11.0,35.0
4,0,2062.128,0,5,0,100,901,9.0,6,2063.584,0,736181.589781,Aud,Left,2015-08-05 13:34:00,5_8_2015 level5_100_cooling 13_34 log,11.0,35.0
5,0,2080.587,0,7,60,100,751,0.0,8,2083.026,0,736181.590006,Aud,Left,2015-08-05 13:34:00,5_8_2015 level5_100_cooling 13_34 log,11.0,35.0
6,0,2099.381,0,3,-60,100,951,9.0,3,2100.375,1,736181.590208,Aud,Left,2015-08-05 13:34:00,5_8_2015 level5_100_cooling 13_34 log,10.0,35.0
7,0,2103.521,0,4,-30,100,701,4.5,4,2105.255,1,736181.590264,Aud,Left,2015-08-05 13:34:00,5_8_2015 level5_100_cooling 13_34 log,10.0,35.0
8,0,2108.799,0,6,30,100,501,9.0,8,2110.241,0,736181.590322,Aud,Left,2015-08-05 13:34:00,5_8_2015 level5_100_cooling 13_34 log,9.0,35.0
9,0,2123.025,0,2,-90,100,601,4.5,3,2124.212,0,736181.590483,Aud,Left,2015-08-05 13:34:00,5_8_2015 level5_100_cooling 13_34 log,9.0,35.0
10,0,2137.153,0,8,90,100,551,0.0,8,2137.873,1,736181.590643,Aud,Left,2015-08-05 13:34:00,5_8_2015 level5_100_cooling 13_34 log,8.0,35.0
11,0,2146.052,0,3,-60,100,751,4.5,3,2146.931,1,736181.590746,Aud,Left,2015-08-05 13:34:00,5_8_2015 level5_100_cooling 13_34 log,8.0,35.0
12,0,2153.665,0,6,30,100,901,9.0,6,2154.439,1,736181.590834,Aud,Left,2015-08-05 13:34:00,5_8_2015 level5_100_cooling 13_34 log,8.0,35.0
13,0,2162.473,0,7,60,100,501,0.0,8,2163.265,0,736181.590936,Aud,Left,2015-08-05 13:34:00,5_8_2015 level5_100_cooling 13_34 log,8.0,34.0
14,0,2173.481,1,5,0,100,1001,9.0,5,2173.967,1,736181.591063,Aud,Left,2015-08-05 13:34:00,5_8_2015 level5_100_cooling 13_34 log,8.0,34.0
15,0,2185.058,0,2,-90,100,601,9.0,4,2186.699,0,736181.591206,Aud,Left,2015-08-05 13:34:00,5_8_2015 level5_100_cooling 13_34 log,8.0,34.0
16,0,2202.786,0,7,60,100,951,4.5,7,2204.136,1,736181.591408,Aud,Left,2015-08-05 13:34:00,5_8_2015 level5_100_cooling 13_34 log,8.0,34.0
17,0,2207.203,0,6,30,100,801,4.5,6,2207.973,1,736181.591453,Aud,Left,2015-08-05 13:34:00,5_8_2015 level5_100_cooling 13_34 log,7.0,34.0
18,0,2217.934,0,8,90,100,651,9.0,8,2218.493,1,736181.591577,Aud,Left,2015-08-05 13:34:00,5_8_2015 level5_100_cooling 13_34 log,7.0,34.0
19,0,2226.082,0,3,-60,100,701,4.5,3,2226.927,1,736181.591672,Aud,Left,2015-08-05 13:34:00,5_8_2015 level5_100_cooling 13_34 log,7.0,34.0
20,0,2234.168,0,2,-90,100,551,0.0,4,2235.047,0,736181.591766,Aud,Left,2015-08-05 13:34:00,5_8_2015 level5_100_cooling 13_34 log,7.0,34.0
21,0,2250.728,0,5,0,100,651,4.5,6,2251.422,0,736181.591957,Aud,Left,2015-08-05 13:34:00,5_8_2015 level5_100_cooling 13_34 log,7.0,34.0
22,0,2259.609,0,7,60,100,1001,0.0,8,2260.393,0,736181.592059,Aud,Left,2015-08-05 13:34:00,5_8_2015 level5_100_cooling 13_34 log,7.0,34.0
23,0,2270.254,0,6,30,100,801,9.0,6,2270.891,1,736181.592184,Aud,Left,2015-08-05 13:34:00,5_8_2015 level5_100_cooling 13_34 log,7.0,34.0
24,0,2278.419,0,5,0,100,501,0.0,6,2279.163,0,736181.592277,Aud,Left,2015-08-05 13:34:00,5_8_2015 level5_100_cooling 13_34 log,8.0,34.0
25,0,2287.846,0,4,-30,100,751,4.5,5,2288.588,0,736181.592387,Aud,Left,2015-08-05 13:34:00,5_8_2015 level5_100_cooling 13_34 log,8.0,34.0
26,0,2295.427,0,4,-30,100,951,9.0,2,2296.364,0,736181.592476,Aud,Left,2015-08-05 13:34:00,5_8_2015 level5_100_cooling 13_34 log,8.0,34.0
27,0,2304.739,1,3,-60,100,901,4.5,3,2305.417,1,736181.592582,Aud,Left,2015-08-05 13:34:00,5_8_2015 level5_100_cooling 13_34 log,8.0,34.0
28,0,2319.121,0,8,90,100,601,0.0,8,2319.904,1,736181.592749,Aud,Left,2015-08-05 13:34:00,5_8_2015 level5_100_cooling 13_34 log,8.0,34.0
29,0,2331.813,1,7,60,100,551,9.0,7,2332.516,1,736181.592895,Aud,Left,2015-08-05 13:34:00,5_8_2015 level5_100_cooling 13_34 log,8.0,34.0
30,0,2338.373,0,6,30,100,701,4.5,6,2341.444,1,736181.592998,Aud,Left,2015-08-05 13:34:00,5_8_2015 level5_100_cooling 13_34 log,8.0,34.0
31,0,2350.886,0,8,90,100,501,0.0,8,2351.867,1,736181.593118,Aud,Left,2015-08-05 13:34:00,5_8_2015 level5_100_cooling 13_34 log,8.0,34.0
32,0,2357.435,0,3,-60,100,601,9.0,3,2358.356,1,736181.593193,Aud,Left,2015-08-05 13:34:00,5_8_2015 level5_100_cooling 13_34 log,8.0,34.0
33,0,2366.372,0,5,0,100,701,0.0,5,2367.503,1,736181.593299,Aud,Left,2015-08-05 13:34:00,5_8_2015 level5_100_cooling 13_34 log,8.0,34.0
34,0,2375.304,0,7,60,100,1001,4.5,5,2376.051,0,736181.593399,Aud,Left,2015-08-05 13:34:00,5_8_2015 level5_100_cooling 13_34 log,8.0,34.0
35,0,2382.175,0,4,-30,100,751,4.5,3,2382.869,0,736181.593478,Aud,Left,2015-08-05 13:34:00,5_8_2015 level5_100_cooling 13_34 log,7.0,34.0
36,0,2392.493,0,6,30,100,851,9.0,6,2393.301,1,736181.593598,Aud,Left,2015-08-05 13:34:00,5_8_2015 level5_100_cooling 13_34 log,7.0,34.0
37,0,2401.69,0,2,-90,100,951,9.0,6,2402.293,0,736181.593704,Aud,Left,2015-08-05 13:34:00,5_8_2015 level5_100_cooling 13_34 log,7.0,34.0
38,0,2412.79,0,3,-60,100,901,0.0,2,2413.432,0,736181.593833,Aud,Left,2015-08-05 13:34:00,5_8_2015 level5_100_cooling 13_34 log,7.0,34.0
39,0,2421.872,0,8,90,100,651,0.0,8,2422.646,1,736181.593938,Aud,Left,2015-08-05 13:34:00,5_8_2015 level5_100_cooling 13_34 log,7.0,34.0
40,0,2428.531,0,5,0,100,551,9.0,5,2429.445,1,736181.594016,Aud,Left,2015-08-05 13:34:00,5_8_2015 level5_100_cooling 13_34 log,7.0,34.0
41,0,2441.2,0,2,-90,100,701,0.0,4,2442.168,0,736181.594163,Aud,Left,2015-08-05 13:34:00,5_8_2015 level5_100_cooling 13_34 log,7.0,34.0
42,0,2456.308,0,4,-30,100,851,4.5,3,2457.089,0,736181.594336,Aud,Left,2015-08-05 13:34:00,5_8_2015 level5_100_cooling 13_34 log,7.0,34.0
43,0,2465.478,0,5,0,100,1001,4.5,4,2467.821,0,736181.59446,Aud,Left,2015-08-05 13:34:00,5_8_2015 level5_100_cooling 13_34 log,7.0,34.0
44,0,2476.578,0,7,60,100,651,9.0,8,2477.417,0,736181.594571,Aud,Left,2015-08-05 13:34:00,5_8_2015 level5_100_cooling 13_34 log,7.0,34.0
45,0,2490.362,0,2,-90,100,801,9.0,3,2491.268,0,736181.594731,Aud,Left,2015-08-05 13:34:00,5_8_2015 level5_100_cooling 13_34 log,7.0,34.0
46,0,2509.832,0,3,-60,100,951,4.5,2,2510.493,0,736181.594956,Aud,Left,2015-08-05 13:34:00,5_8_2015 level5_100_cooling 13_34 log,7.0,34.0
47,0,2522.161,0,5,0,100,751,9.0,6,2522.873,0,736181.595098,Aud,Left,2015-08-05 13:34:00,5_8_2015 level5_100_cooling 13_34 log,7.0,34.0
48,0,2533.91,0,7,60,100,601,0.0,7,2534.992,1,736181.595238,Aud,Left,2015-08-05 13:34:00,5_8_2015 level5_100_cooling 13_34 log,7.0,34.0
49,0,2539.951,0,6,30,100,551,4.5,6,2540.767,1,736181.595305,Aud,Left,2015-08-05 13:34:00,5_8_2015 level5_100_cooling 13_34 log,7.0,34.0
50,0,2548.156,0,4,-30,100,501,9.0,6,2548.999,0,736181.5954,Aud,Left,2015-08-05 13:34:00,5_8_2015 level5_100_cooling 13_34 log,7.0,34.0
51,0,2560.691,0,6,30,100,951,4.5,6,2561.638,1,736181.595547,Aud,Left,2015-08-05 13:34:00,5_8_2015 level5_100_cooling 13_34 log,8.0,34.0
52,0,2569.631,0,4,-30,100,651,9.0,4,2570.391,1,736181.595649,Aud,Left,2015-08-05 13:34:00,5_8_2015 level5_100_cooling 13_34 log,8.0,34.0
53,0,2577.699,0,2,-90,100,551,0.0,3,2578.605,0,736181.595742,Aud,Left,2015-08-05 13:34:00,5_8_2015 level5_100_cooling 13_34 log,8.0,34.0
54,0,2589.023,0,3,-60,100,751,4.5,6,2589.876,0,736181.595872,Aud,Left,2015-08-05 13:34:00,5_8_2015 level5_100_cooling 13_34 log,8.0,34.0
55,0,2601.47,0,8,90,100,701,9.0,8,2602.346,1,736181.596017,Aud,Left,2015-08-05 13:34:00,5_8_2015 level5_100_cooling 13_34 log,8.0,34.0
56,0,2608.889,0,8,90,100,901,0.0,8,2609.496,1,736181.596102,Aud,Left,2015-08-05 13:34:00,5_8_2015 level5_100_cooling 13_34 log,8.0,34.0
57,0,2616.295,0,2,-90,100,501,4.5,2,2618.011,1,736181.596198,Aud,Left,2015-08-05 13:34:00,5_8_2015 level5_100_cooling 13_34 log,8.0,34.0
58,0,2628.117,0,7,60,100,601,0.0,8,2628.83,0,736181.596325,Aud,Left,2015-08-05 13:34:00,5_8_2015 level5_100_cooling 13_34 log,8.0,34.0
59,0,2642.645,0,4,-30,100,851,0.0,3,2648.429,0,736181.596551,Aud,Left,2015-08-05 13:34:00,5_8_2015 level5_100_cooling 13_34 log,8.0,34.0
60,0,2657.289,0,3,-60,100,801,4.5,4,2658.187,0,736181.596664,Aud,Left,2015-08-05 13:34:00,5_8_2015 level5_100_cooling 13_34 log,7.0,34.0
61,0,2676.115,0,8,90,100,851,9.0,8,2676.9,1,736181.59688,Aud,Left,2015-08-05 13:34:00,5_8_2015 level5_100_cooling 13_34 log,8.0,34.0
62,0,2689.165,0,7,60,100,601,4.5,7,2690.261,1,736181.597035,Aud,Left,2015-08-05 13:34:00,5_8_2015 level5_100_cooling 13_34 log,7.0,34.0
63,0,2696.15,0,8,90,100,651,0.0,8,2696.82,1,736181.597113,Aud,Left,2015-08-05 13:34:00,5_8_2015 level5_100_cooling 13_34 log,7.0,34.0
64,0,2703.792,0,6,30,100,951,9.0,7,2704.47,0,736181.597201,Aud,Left,2015-08-05 13:34:00,5_8_2015 level5_100_cooling 13_34 log,7.0,34.0
65,0,2712.507,0,3,-60,100,501,4.5,3,2714.228,1,736181.597312,Aud,Left,2015-08-05 13:34:00,5_8_2015 level5_100_cooling 13_34 log,7.0,34.0
66,0,2722.428,0,6,30,100,751,9.0,6,2723.375,1,736181.597418,Aud,Left,2015-08-05 13:34:00,5_8_2015 level5_100_cooling 13_34 log,7.0,34.0
67,0,2731.846,0,5,0,100,701,9.0,5,2732.765,1,736181.597526,Aud,Left,2015-08-05 13:34:00,5_8_2015 level5_100_cooling 13_34 log,7.0,34.0
68,0,2740.613,0,4,-30,100,801,4.5,3,2742.232,0,736181.597636,Aud,Left,2015-08-05 13:34:00,5_8_2015 level5_100_cooling 13_34 log,7.0,34.0
69,0,2751.972,0,2,-90,100,1001,0.0,2,2752.796,1,736181.597758,Aud,Left,2015-08-05 13:34:00,5_8_2015 level5_100_cooling 13_34 log,7.0,34.0
70,0,2772.663,0,5,0,100,901,9.0,4,2773.44,0,736181.597998,Aud,Left,2015-08-05 13:34:00,5_8_2015 level5_100_cooling 13_34 log,7.0,34.0
71,0,2782.624,0,6,30,100,951,0.0,6,2783.604,1,736181.598115,Aud,Left,2015-08-05 13:34:00,5_8_2015 level5_100_cooling 13_34 log,7.0,34.0
72,0,2791.558,0,4,-30,100,901,4.5,5,2792.446,0,736181.598217,Aud,Left,2015-08-05 13:34:00,5_8_2015 level5_100_cooling 13_34 log,7.0,34.0
73,0,2800.605,0,5,0,100,801,9.0,6,2801.459,0,736181.598321,Aud,Left,2015-08-05 13:34:00,5_8_2015 level5_100_cooling 13_34 log,7.0,34.0
74,0,2814.386,0,7,60,100,1001,4.5,7,2815.125,1,736181.598481,Aud,Left,2015-08-05 13:34:00,5_8_2015 level5_100_cooling 13_34 log,7.0,34.0
75,0,2820.827,0,4,-30,100,701,4.5,5,2821.794,0,736181.598557,Aud,Left,2015-08-05 13:34:00,5_8_2015 level5_100_cooling 13_34 log,7.0,34.0
76,0,2829.12,0,3,-60,100,751,0.0,3,2829.827,1,736181.598651,Aud,Left,2015-08-05 13:34:00,5_8_2015 level5_100_cooling 13_34 log,7.0,34.0
77,0,2838.768,0,2,-90,100,851,9.0,3,2839.346,0,736181.598763,Aud,Left,2015-08-05 13:34:00,5_8_2015 level5_100_cooling 13_34 log,7.0,34.0
78,0,2849.581,0,8,90,100,551,4.5,8,2850.328,1,736181.598889,Aud,Left,2015-08-05 13:34:00,5_8_2015 level5_100_cooling 13_34 log,7.0,34.0
79,0,2855.833,0,3,-60,100,651,4.5,2,2856.784,0,736181.598962,Aud,Left,2015-08-05 13:34:00,5_8_2015 level5_100_cooling 13_34 log,7.0,34.0
80,0,2864.75,0,7,60,100,501,9.0,6,2865.583,0,736181.599064,Aud,Left,2015-08-05 13:34:00,5_8_2015 level5_100_cooling 13_34 log,8.0,34.0
81,0,2875.764,0,5,0,100,751,4.5,5,2876.56,1,736181.599191,Aud,Left,2015-08-05 13:34:00,5_8_2015 level5_100_cooling 13_34 log,8.0,34.0
82,0,2884.879,0,8,90,100,851,9.0,8,2885.642,1,736181.599297,Aud,Left,2015-08-05 13:34:00,5_8_2015 level5_100_cooling 13_34 log,8.0,34.0
83,0,2890.792,0,2,-90,100,551,4.5,6,2892.253,0,736181.599372,Aud,Left,2015-08-05 13:34:00,5_8_2015 level5_100_cooling 13_34 log,8.0,34.0
84,0,2901.734,0,6,30,100,601,9.0,5,2902.671,0,736181.599493,Aud,Left,2015-08-05 13:34:00,5_8_2015 level5_100_cooling 13_34 log,8.0,34.0
85,0,2908.614,0,6,30,100,701,4.5,6,2909.483,1,736181.599572,Aud,Left,2015-08-05 13:34:00,5_8_2015 level5_100_cooling 13_34 log,8.0,34.0
86,0,2916.356,0,2,-90,100,651,0.0,2,2917.07,1,736181.599662,Aud,Left,2015-08-05 13:34:00,5_8_2015 level5_100_cooling 13_34 log,8.0,34.0
87,0,2926.997,0,8,90,100,901,4.5,8,2927.643,1,736181.599784,Aud,Left,2015-08-05 13:34:00,5_8_2015 level5_100_cooling 13_34 log,8.0,34.0
88,0,2933.688,0,3,-60,100,1001,0.0,2,2934.592,0,736181.599862,Aud,Left,2015-08-05 13:34:00,5_8_2015 level5_100_cooling 13_34 log,8.0,34.0
89,0,2943.706,0,5,0,100,951,4.5,4,2944.453,0,736181.599977,Aud,Left,2015-08-05 13:34:00,5_8_2015 level5_100_cooling 13_34 log,8.0,34.0
90,0,2953.924,0,6,30,100,501,0.0,7,2954.663,0,736181.600096,Aud,Left,2015-08-05 13:34:00,5_8_2015 level5_100_cooling 13_34 log,8.0,34.0
91,0,2963.762,0,5,0,100,901,9.0,5,2964.661,1,736181.60021,Aud,Left,2015-08-05 13:34:00,5_8_2015 level5_100_cooling 13_34 log,8.0,34.0
92,0,2971.847,0,4,-30,100,551,0.0,4,2972.971,1,736181.600307,Aud,Left,2015-08-05 13:34:00,5_8_2015 level5_100_cooling 13_34 log,8.0,34.0
93,0,2980.406,0,7,60,100,851,9.0,7,2981.237,1,736181.600402,Aud,Left,2015-08-05 13:34:00,5_8_2015 level5_100_cooling 13_34 log,8.0,34.0
94,0,2985.184,0,8,90,100,651,4.5,8,2985.773,1,736181.600458,Aud,Left,2015-08-05 13:34:00,5_8_2015 level5_100_cooling 13_34 log,8.0,34.0
95,0,2991.575,0,3,-60,100,1001,0.0,3,2992.598,1,736181.600534,Aud,Left,2015-08-05 13:34:00,5_8_2015 level5_100_cooling 13_34 log,8.0,34.0
96,0,2998.964,0,4,-30,100,951,4.5,4,2999.794,1,736181.600617,Aud,Left,2015-08-05 13:34:00,5_8_2015 level5_100_cooling 13_34 log,8.0,34.0
97,0,3006.836,0,2,-90,100,751,4.5,3,3007.512,0,736181.600708,Aud,Left,2015-08-05 13:34:00,5_8_2015 level5_100_cooling 13_34 log,8.0,34.0
98,0,3016.702,0,7,60,100,801,0.0,6,3017.451,0,736181.600822,Aud,Left,2015-08-05 13:34:00,5_8_2015 level5_100_cooling 13_34 log,8.0,34.0
99,0,3026.779,0,3,-60,100,601,4.5,3,3027.633,1,736181.600939,Aud,Left,2015-08-05 13:34:00,5_8_2015 level5_100_cooling 13_34 log,8.0,34.0
100,0,3039.628,0,4,-30,100,501,9.0,4,3040.399,1,736181.601088,Aud,Left,2015-08-05 13:34:00,5_8_2015 level5_100_cooling 13_34 log,8.0,34.0
101,0,3050.708,0,4,-30,100,951,4.5,4,3051.703,1,736181.601218,Aud,Left,2015-08-05 13:34:00,5_8_2015 level5_100_cooling 13_34 log,8.0,34.0
102,0,3061.428,0,8,90,100,901,0.0,8,3062.154,1,736181.60134,Aud,Left,2015-08-05 13:34:00,5_8_2015 level5_100_cooling 13_34 log,8.0,34.0
103,0,3068.729,0,7,60,100,801,4.5,8,3069.545,0,736181.601425,Aud,Left,2015-08-05 13:34:00,5_8_2015 level5_100_cooling 13_34 log,8.0,34.0
104,0,3082.655,0,5,0,100,651,0.0,5,3083.605,1,736181.601587,Aud,Left,2015-08-05 13:34:00,5_8_2015 level5_100_cooling 13_34 log,8.0,34.0
105,0,3090.766,0,2,-90,100,601,0.0,2,3091.537,1,736181.60168,Aud,Left,2015-08-05 13:34:00,5_8_2015 level5_100_cooling 13_34 log,8.0,34.0
106,0,3100.997,0,5,0,100,1001,9.0,4,3101.669,0,736181.601798,Aud,Left,2015-08-05 13:34:00,5_8_2015 level5_100_cooling 13_34 log,8.0,34.0
107,0,3110.916,0,6,30,100,701,0.0,6,3111.566,1,736181.601912,Aud,Left,2015-08-05 13:34:00,5_8_2015 level5_100_cooling 13_34 log,8.0,34.0
108,0,3118.719,0,8,90,100,751,9.0,8,3119.358,1,736181.602003,Aud,Left,2015-08-05 13:34:00,5_8_2015 level5_100_cooling 13_34 log,8.0,34.0
109,0,3124.409,0,2,-90,100,851,9.0,3,3125.235,0,736181.602069,Aud,Left,2015-08-05 13:34:00,5_8_2015 level5_100_cooling 13_34 log,8.0,34.0
110,0,3134.518,0,6,30,100,551,0.0,6,3135.381,1,736181.602186,Aud,Left,2015-08-05 13:34:00,5_8_2015 level5_100_cooling 13_34 log,8.0,34.0
111,0,3151.851,0,7,60,100,601,9.0,8,3155.109,0,736181.602415,Aud,Left,2015-08-05 13:34:00,5_8_2015 level5_100_cooling 13_34 log,8.0,34.0
1,0,560.339,0,3,-60,250,1001,9.0,4,562.913,0,736167.691292,Aud,Left,2015-07-22 16:37:00,22_7_2015 level5_250_cooling 16_37 log,10.0,34.0
2,1,570.279,0,3,-60,250,1001,9.0,2,572.63,0,736167.691405,Aud,Left,2015-07-22 16:37:00,22_7_2015 level5_250_cooling 16_37 log,10.0,34.0
3,1,589.314,0,3,-60,250,1001,9.0,3,590.809,1,736167.691616,Aud,Left,2015-07-22 16:37:00,22_7_2015 level5_250_cooling 16_37 log,10.0,34.0
4,0,599.563,0,3,-60,250,601,0.0,3,600.57,1,736167.691728,Vis,Left,2015-07-22 16:37:00,22_7_2015 level5_250_cooling 16_37 log,10.0,34.0
5,0,609.871,0,4,-30,250,651,9.0,4,610.977,1,736167.691848,Vis,Left,2015-07-22 16:37:00,22_7_2015 level5_250_cooling 16_37 log,10.0,34.0
6,0,619.701,0,7,60,250,901,0.0,8,620.481,0,736167.691959,Vis,Left,2015-07-22 16:37:00,22_7_2015 level5_250_cooling 16_37 log,10.0,34.0
7,1,630.781,0,7,60,250,901,0.0,7,631.553,1,736167.692087,Vis,Left,2015-07-22 16:37:00,22_7_2015 level5_250_cooling 16_37 log,10.0,34.0
8,0,638.965,0,7,60,250,801,4.5,7,639.728,1,736167.692182,Aud,Left,2015-07-22 16:37:00,22_7_2015 level5_250_cooling 16_37 log,10.0,34.0
1,0,6.651,0,5,0,250,751,9.0,6,7.667,0,736167.692468,Vis,Left,2015-07-22 16:37:00,22_7_2015 level5_250_cooling 16_37 log,9.0,35.0
2,0,14.516,0,6,30,250,501,4.5,7,15.498,0,736167.692559,Aud,Left,2015-07-22 16:37:00,22_7_2015 level5_250_cooling 16_37 log,9.0,35.0
3,0,25.551,0,6,30,250,1001,0.0,3,27.597,0,736167.692699,Vis,Left,2015-07-22 16:37:00,22_7_2015 level5_250_cooling 16_37 log,9.0,35.0
4,0,35.795,0,4,-30,250,851,9.0,4,36.529,1,736167.692803,Aud,Left,2015-07-22 16:37:00,22_7_2015 level5_250_cooling 16_37 log,9.0,35.0
5,0,47.551,0,8,90,250,901,4.5,8,48.827,1,736167.692944,Vis,Left,2015-07-22 16:37:00,22_7_2015 level5_250_cooling 16_37 log,9.0,35.0
6,0,58.971,0,2,-90,250,651,0.0,2,60.193,1,736167.693076,Vis,Left,2015-07-22 16:37:00,22_7_2015 level5_250_cooling 16_37 log,9.0,35.0
7,0,72.583,0,3,-60,250,551,9.0,7,73.591,0,736167.69323,Aud,Left,2015-07-22 16:37:00,22_7_2015 level5_250_cooling 16_37 log,9.0,35.0
8,0,84.62,0,2,-90,250,951,4.5,4,85.547,0,736167.693369,Aud,Left,2015-07-22 16:37:00,22_7_2015 level5_250_cooling 16_37 log,9.0,35.0
9,0,95.439,0,7,60,250,801,0.0,8,96.268,0,736167.693493,Aud,Left,2015-07-22 16:37:00,22_7_2015 level5_250_cooling 16_37 log,9.0,35.0
10,0,106.653,0,4,-30,250,601,9.0,4,107.391,1,736167.693623,Aud,Left,2015-07-22 16:37:00,22_7_2015 level5_250_cooling 16_37 log,9.0,35.0
11,0,116.036,1,4,-30,250,501,0.0,4,116.99,1,736167.693734,Vis,Left,2015-07-22 16:37:00,22_7_2015 level5_250_cooling 16_37 log,9.0,35.0
12,0,124.869,0,7,60,250,701,9.0,3,129.088,0,736167.693874,Vis,Left,2015-07-22 16:37:00,22_7_2015 level5_250_cooling 16_37 log,9.0,35.0
13,0,140.577,0,6,30,250,851,4.5,6,141.539,1,736167.694018,Vis,Left,2015-07-22 16:37:00,22_7_2015 level5_250_cooling 16_37 log,9.0,35.0
14,0,154.962,0,6,30,250,551,0.0,6,155.985,1,736167.694185,Aud,Left,2015-07-22 16:37:00,22_7_2015 level5_250_cooling 16_37 log,9.0,35.0
15,0,170.235,0,7,60,250,651,0.0,8,171.317,0,736167.694361,Aud,Left,2015-07-22 16:37:00,22_7_2015 level5_250_cooling 16_37 log,9.0,35.0
16,0,180.348,0,2,-90,250,601,4.5,4,181.099,0,736167.694476,Aud,Left,2015-07-22 16:37:00,22_7_2015 level5_250_cooling 16_37 log,9.0,35.0
17,0,187.246,1,3,-60,250,751,4.5,3,189.048,1,736167.694567,Aud,Left,2015-07-22 16:37:00,22_7_2015 level5_250_cooling 16_37 log,10.0,35.0
18,0,195.652,1,2,-90,250,801,0.0,2,202.036,1,736167.694717,Vis,Left,2015-07-22 16:37:00,22_7_2015 level5_250_cooling 16_37 log,10.0,35.0
19,0,212.172,0,7,60,250,951,0.0,7,213.235,1,736167.694847,Vis,Left,2015-07-22 16:37:00,22_7_2015 level5_250_cooling 16_37 log,10.0,35.0
20,0,223.624,0,8,90,250,1001,9.0,2,224.829,0,736167.694981,Vis,Left,2015-07-22 16:37:00,22_7_2015 level5_250_cooling 16_37 log,10.0,35.0
21,0,234.213,0,3,-60,250,801,9.0,3,235.184,1,736167.695101,Vis,Left,2015-07-22 16:37:00,22_7_2015 level5_250_cooling 16_37 log,10.0,35.0
22,0,244.388,0,5,0,250,951,4.5,6,245.403,0,736167.69522,Aud,Left,2015-07-22 16:37:00,22_7_2015 level5_250_cooling 16_37 log,10.0,35.0
23,0,257.02,0,5,0,250,851,9.0,2,258.693,0,736167.695374,Vis,Left,2015-07-22 16:37:00,22_7_2015 level5_250_cooling 16_37 log,10.0,35.0
24,0,272.89,0,4,-30,250,1001,0.0,3,273.943,0,736167.69555,Vis,Left,2015-07-22 16:37:00,22_7_2015 level5_250_cooling 16_37 log,10.0,35.0
25,0,283.872,0,3,-60,250,901,4.5,3,285.001,1,736167.695678,Vis,Left,2015-07-22 16:37:00,22_7_2015 level5_250_cooling 16_37 log,11.0,35.0
26,0,295.193,0,5,0,250,701,0.0,4,296.256,0,736167.695808,Aud,Left,2015-07-22 16:37:00,22_7_2015 level5_250_cooling 16_37 log,11.0,35.0
27,0,306.327,0,8,90,250,651,9.0,8,307.061,1,736167.695934,Aud,Left,2015-07-22 16:37:00,22_7_2015 level5_250_cooling 16_37 log,11.0,35.0
28,0,315.082,0,8,90,250,751,4.5,8,315.845,1,736167.696036,Aud,Left,2015-07-22 16:37:00,22_7_2015 level5_250_cooling 16_37 log,11.0,35.0
29,0,323.696,0,6,30,250,601,4.5,6,324.813,1,736167.696139,Vis,Left,2015-07-22 16:37:00,22_7_2015 level5_250_cooling 16_37 log,10.0,35.0
30,0,336.032,0,7,60,250,551,9.0,7,336.908,1,736167.696278,Vis,Left,2015-07-22 16:37:00,22_7_2015 level5_250_cooling 16_37 log,10.0,35.0
31,0,350.27,0,6,30,250,601,0.0,6,351.434,1,736167.696447,Vis,Left,2015-07-22 16:37:00,22_7_2015 level5_250_cooling 16_37 log,10.0,35.0
32,0,361.662,0,3,-60,250,751,9.0,4,362.473,0,736167.696574,Aud,Left,2015-07-22 16:37:00,22_7_2015 level5_250_cooling 16_37 log,10.0,35.0
33,0,374.924,0,7,60,250,651,4.5,7,375.798,1,736167.696728,Aud,Left,2015-07-22 16:37:00,22_7_2015 level5_250_cooling 16_37 log,10.0,35.0
34,0,387.34,0,8,90,250,901,0.0,8,388.166,1,736167.696872,Aud,Left,2015-07-22 16:37:00,22_7_2015 level5_250_cooling 16_37 log,10.0,35.0
35,0,395.79,0,6,30,250,551,4.5,7,396.77,0,736167.696971,Aud,Left,2015-07-22 16:37:00,22_7_2015 level5_250_cooling 16_37 log,10.0,35.0
36,0,405.986,0,3,-60,250,801,0.0,3,407.002,1,736167.69709,Vis,Left,2015-07-22 16:37:00,22_7_2015 level5_250_cooling 16_37 log,10.0,35.0
37,0,415.167,0,2,-90,250,1001,0.0,2,416.0,1,736167.697194,Aud,Left,2015-07-22 16:37:00,22_7_2015 level5_250_cooling 16_37 log,10.0,35.0
38,0,426.489,0,7,60,250,851,4.5,7,427.255,1,736167.697325,Aud,Left,2015-07-22 16:37:00,22_7_2015 level5_250_cooling 16_37 log,10.0,34.0
39,0,434.31,0,5,0,250,701,0.0,4,435.427,0,736167.697419,Aud,Left,2015-07-22 16:37:00,22_7_2015 level5_250_cooling 16_37 log,10.0,34.0
40,0,445.339,0,5,0,250,951,4.5,4,446.13,0,736167.697543,Vis,Left,2015-07-22 16:37:00,22_7_2015 level5_250_cooling 16_37 log,10.0,34.0
41,0,455.14,0,4,-30,250,801,4.5,3,456.088,0,736167.697658,Vis,Left,2015-07-22 16:37:00,22_7_2015 level5_250_cooling 16_37 log,10.0,34.0
42,0,473.667,0,3,-60,250,1001,0.0,4,474.98,0,736167.697876,Aud,Left,2015-07-22 16:37:00,22_7_2015 level5_250_cooling 16_37 log,10.0,34.0
43,0,483.189,0,8,90,250,501,4.5,8,483.973,1,736167.697981,Vis,Left,2015-07-22 16:37:00,22_7_2015 level5_250_cooling 16_37 log,10.0,34.0
44,0,491.122,0,2,-90,250,901,9.0,2,492.258,1,736167.698076,Vis,Left,2015-07-22 16:37:00,22_7_2015 level5_250_cooling 16_37 log,10.0,34.0
45,0,501.417,1,8,90,250,751,0.0,8,502.22,1,736167.698193,Vis,Left,2015-07-22 16:37:00,22_7_2015 level5_250_cooling 16_37 log,10.0,34.0
46,0,509.972,0,5,0,250,951,9.0,2,514.989,0,736167.69834,Aud,Left,2015-07-22 16:37:00,22_7_2015 level5_250_cooling 16_37 log,10.0,34.0
47,0,529.649,0,2,-90,250,551,0.0,5,530.857,0,736167.698523,Aud,Left,2015-07-22 16:37:00,22_7_2015 level5_250_cooling 16_37 log,10.0,34.0
48,0,540.274,0,6,30,250,851,9.0,7,541.167,0,736167.698642,Aud,Left,2015-07-22 16:37:00,22_7_2015 level5_250_cooling 16_37 log,10.0,35.0
49,0,552.757,0,7,60,250,601,9.0,7,553.7,1,736167.698788,Vis,Left,2015-07-22 16:37:00,22_7_2015 level5_250_cooling 16_37 log,10.0,34.0
50,0,561.648,0,8,90,250,651,4.5,8,562.293,1,736167.698889,Aud,Left,2015-07-22 16:37:00,22_7_2015 level5_250_cooling 16_37 log,10.0,34.0
51,0,570.234,0,4,-30,250,901,9.0,4,571.377,1,736167.698993,Aud,Left,2015-07-22 16:37:00,22_7_2015 level5_250_cooling 16_37 log,10.0,34.0
52,0,580.564,0,4,-30,250,751,4.5,4,581.544,1,736167.69911,Vis,Left,2015-07-22 16:37:00,22_7_2015 level5_250_cooling 16_37 log,10.0,34.0
53,0,589.523,0,3,-60,250,851,9.0,3,590.687,1,736167.699215,Vis,Left,2015-07-22 16:37:00,22_7_2015 level5_250_cooling 16_37 log,10.0,34.0
54,0,597.402,0,2,-90,250,501,4.5,3,598.6,0,736167.699308,Vis,Left,2015-07-22 16:37:00,22_7_2015 level5_250_cooling 16_37 log,10.0,34.0
55,0,608.949,1,5,0,250,651,9.0,5,610.105,1,736167.69944,Vis,Left,2015-07-22 16:37:00,22_7_2015 level5_250_cooling 16_37 log,10.0,34.0
56,0,617.678,0,4,-30,250,701,4.5,3,622.045,0,736167.699579,Aud,Left,2015-07-22 16:37:00,22_7_2015 level5_250_cooling 16_37 log,10.0,34.0
57,0,630.328,0,7,60,250,801,0.0,7,631.583,1,736167.699689,Aud,Left,2015-07-22 16:37:00,22_7_2015 level5_250_cooling 16_37 log,10.0,34.0
58,0,641.149,0,5,0,250,951,9.0,7,641.99,0,736167.699809,Aud,Left,2015-07-22 16:37:00,22_7_2015 level5_250_cooling 16_37 log,10.0,34.0
59,0,655.215,0,2,-90,250,1001,0.0,8,656.094,0,736167.699973,Vis,Left,2015-07-22 16:37:00,22_7_2015 level5_250_cooling 16_37 log,10.0,34.0
60,0,666.427,0,3,-60,250,601,4.5,3,668.491,1,736167.700116,Vis,Left,2015-07-22 16:37:00,22_7_2015 level5_250_cooling 16_37 log,10.0,34.0
61,0,670.908,0,2,-90,250,801,4.5,4,671.681,0,736167.700154,Aud,Left,2015-07-22 16:37:00,22_7_2015 level5_250_cooling 16_37 log,10.0,34.0
62,0,681.846,0,5,0,250,701,9.0,5,682.717,1,736167.70028,Vis,Left,2015-07-22 16:37:00,22_7_2015 level5_250_cooling 16_37 log,10.0,34.0
63,0,690.837,0,6,30,250,501,0.0,6,691.696,1,736167.700385,Vis,Left,2015-07-22 16:37:00,22_7_2015 level5_250_cooling 16_37 log,10.0,34.0
64,0,702.54,0,2,-90,250,601,9.0,6,704.107,0,736167.700528,Aud,Left,2015-07-22 16:37:00,22_7_2015 level5_250_cooling 16_37 log,10.0,34.0
65,0,712.833,1,2,-90,250,901,9.0,2,713.707,1,736167.700639,Vis,Left,2015-07-22 16:37:00,22_7_2015 level5_250_cooling 16_37 log,10.0,34.0
66,0,722.726,0,8,90,250,751,4.5,8,724.95,1,736167.70077,Aud,Left,2015-07-22 16:37:00,22_7_2015 level5_250_cooling 16_37 log,10.0,34.0
67,0,732.596,0,6,30,250,951,4.5,7,733.798,0,736167.700872,Aud,Left,2015-07-22 16:37:00,22_7_2015 level5_250_cooling 16_37 log,10.0,34.0
68,0,742.295,0,3,-60,250,1001,9.0,4,743.065,0,736167.700981,Aud,Left,2015-07-22 16:37:00,22_7_2015 level5_250_cooling 16_37 log,10.0,34.0
69,0,755.688,0,4,-30,250,651,9.0,5,757.229,0,736167.701144,Aud,Left,2015-07-22 16:37:00,22_7_2015 level5_250_cooling 16_37 log,10.0,34.0
70,0,763.894,0,8,90,250,551,4.5,8,764.87,1,736167.701231,Vis,Left,2015-07-22 16:37:00,22_7_2015 level5_250_cooling 16_37 log,10.0,34.0
71,0,771.835,0,8,90,250,751,0.0,8,772.585,1,736167.701322,Vis,Left,2015-07-22 16:37:00,22_7_2015 level5_250_cooling 16_37 log,10.0,34.0
72,0,779.168,0,4,-30,250,601,9.0,5,780.381,0,736167.701412,Vis,Left,2015-07-22 16:37:00,22_7_2015 level5_250_cooling 16_37 log,10.0,34.0
73,0,792.328,0,3,-60,250,901,0.0,4,793.052,0,736167.70156,Aud,Left,2015-07-22 16:37:00,22_7_2015 level5_250_cooling 16_37 log,10.0,34.0
74,0,803.802,0,7,60,250,851,9.0,7,804.79,1,736167.701693,Vis,Left,2015-07-22 16:37:00,22_7_2015 level5_250_cooling 16_37 log,10.0,34.0
75,0,811.919,0,5,0,250,651,0.0,6,812.778,0,736167.701786,Aud,Left,2015-07-22 16:37:00,22_7_2015 level5_250_cooling 16_37 log,10.0,34.0
76,0,819.751,0,6,30,250,701,9.0,6,820.593,1,736167.701877,Vis,Left,2015-07-22 16:37:00,22_7_2015 level5_250_cooling 16_37 log,10.0,34.0
77,0,828.452,0,8,90,250,501,9.0,8,829.627,1,736167.701981,Aud,Left,2015-07-22 16:37:00,22_7_2015 level5_250_cooling 16_37 log,10.0,34.0
78,0,836.803,0,7,60,250,801,0.0,7,838.25,1,736167.702081,Aud,Left,2015-07-22 16:37:00,22_7_2015 level5_250_cooling 16_37 log,10.0,34.0
79,0,845.262,0,7,60,250,1001,4.5,7,845.973,1,736167.702171,Vis,Left,2015-07-22 16:37:00,22_7_2015 level5_250_cooling 16_37 log,10.0,34.0
80,0,859.192,0,5,0,250,551,0.0,5,860.697,1,736167.70234,Vis,Left,2015-07-22 16:37:00,22_7_2015 level5_250_cooling 16_37 log,10.0,34.0
81,0,868.01,0,3,-60,250,851,4.5,3,869.011,1,736167.702437,Vis,Left,2015-07-22 16:37:00,22_7_2015 level5_250_cooling 16_37 log,10.0,34.0
82,0,875.044,0,4,-30,250,651,9.0,4,876.311,1,736167.702522,Aud,Left,2015-07-22 16:37:00,22_7_2015 level5_250_cooling 16_37 log,10.0,34.0
83,0,884.491,0,4,-30,250,551,0.0,4,885.455,1,736167.702627,Vis,Left,2015-07-22 16:37:00,22_7_2015 level5_250_cooling 16_37 log,10.0,34.0
84,0,892.509,0,6,30,250,1001,4.5,6,894.062,1,736167.702727,Aud,Left,2015-07-22 16:37:00,22_7_2015 level5_250_cooling 16_37 log,10.0,34.0
85,0,901.736,0,8,90,250,901,9.0,8,902.682,1,736167.702826,Vis,Left,2015-07-22 16:37:00,22_7_2015 level5_250_cooling 16_37 log,10.0,34.0
86,0,909.349,0,5,0,250,701,4.5,6,910.117,0,736167.702913,Vis,Left,2015-07-22 16:37:00,22_7_2015 level5_250_cooling 16_37 log,10.0,34.0
87,0,922.338,0,7,60,250,951,9.0,7,923.278,1,736167.703065,Vis,Left,2015-07-22 16:37:00,22_7_2015 level5_250_cooling 16_37 log,10.0,34.0
88,0,928.705,0,3,-60,250,801,4.5,3,930.694,1,736167.703151,Vis,Left,2015-07-22 16:37:00,22_7_2015 level5_250_cooling 16_37 log,10.0,34.0
89,0,937.363,0,5,0,250,751,0.0,5,938.399,1,736167.703241,Aud,Left,2015-07-22 16:37:00,22_7_2015 level5_250_cooling 16_37 log,10.0,34.0
90,0,945.936,0,4,-30,250,601,4.5,5,947.032,0,736167.70334,Aud,Left,2015-07-22 16:37:00,22_7_2015 level5_250_cooling 16_37 log,10.0,34.0
91,0,954.473,0,6,30,250,751,4.5,6,955.43,1,736167.703438,Vis,Left,2015-07-22 16:37:00,22_7_2015 level5_250_cooling 16_37 log,10.0,34.0
92,0,961.694,0,4,-30,250,551,0.0,4,962.668,1,736167.703521,Vis,Left,2015-07-22 16:37:00,22_7_2015 level5_250_cooling 16_37 log,10.0,34.0
93,0,969.055,0,2,-90,250,801,0.0,3,971.042,0,736167.703618,Vis,Left,2015-07-22 16:37:00,22_7_2015 level5_250_cooling 16_37 log,10.0,34.0
94,0,983.727,0,2,-90,250,851,9.0,2,984.813,1,736167.703778,Vis,Left,2015-07-22 16:37:00,22_7_2015 level5_250_cooling 16_37 log,10.0,34.0
95,0,993.848,0,7,60,250,901,4.5,7,994.67,1,736167.703891,Aud,Left,2015-07-22 16:37:00,22_7_2015 level5_250_cooling 16_37 log,10.0,34.0
96,0,998.902,0,4,-30,250,651,0.0,5,1000.204,0,736167.703956,Aud,Left,2015-07-22 16:37:00,22_7_2015 level5_250_cooling 16_37 log,10.0,34.0
97,0,1007.257,0,7,60,250,601,4.5,7,1008.111,1,736167.704047,Vis,Left,2015-07-22 16:37:00,22_7_2015 level5_250_cooling 16_37 log,10.0,34.0
98,0,1014.684,0,5,0,250,701,0.0,6,1015.704,0,736167.704135,Aud,Left,2015-07-22 16:37:00,22_7_2015 level5_250_cooling 16_37 log,10.0,34.0
99,0,1024.671,0,8,90,250,501,9.0,8,1025.623,1,736167.70425,Vis,Left,2015-07-22 16:37:00,22_7_2015 level5_250_cooling 16_37 log,10.0,34.0
100,0,1031.955,1,8,90,250,951,0.0,8,1032.678,1,736167.704332,Aud,Left,2015-07-22 16:37:00,22_7_2015 level5_250_cooling 16_37 log,10.0,34.0
101,0,1039.364,0,3,-60,250,651,0.0,7,1041.88,0,736167.704439,Vis,Left,2015-07-22 16:37:00,22_7_2015 level5_250_cooling 16_37 log,10.0,34.0
102,0,1049.867,0,3,-60,250,851,9.0,4,1050.725,0,736167.70454,Aud,Left,2015-07-22 16:37:00,22_7_2015 level5_250_cooling 16_37 log,11.0,34.0
103,0,1059.401,0,5,0,250,501,0.0,2,1062.331,0,736167.704675,Vis,Left,2015-07-22 16:37:00,22_7_2015 level5_250_cooling 16_37 log,11.0,34.0
104,0,1090.644,0,8,90,250,701,4.5,8,1091.463,1,736167.705012,Aud,Left,2015-07-22 16:37:00,22_7_2015 level5_250_cooling 16_37 log,11.0,34.0
105,0,1098.35,0,6,30,250,551,0.0,8,1101.017,0,736167.705122,Vis,Left,2015-07-22 16:37:00,22_7_2015 level5_250_cooling 16_37 log,11.0,34.0
106,0,1166.986,0,4,-30,250,1001,4.5,3,1168.327,0,736167.705901,Vis,Left,2015-07-22 16:37:00,22_7_2015 level5_250_cooling 16_37 log,11.0,34.0
107,0,1180.74,0,2,-90,250,601,0.0,4,1181.793,0,736167.706058,Aud,Left,2015-07-22 16:37:00,22_7_2015 level5_250_cooling 16_37 log,11.0,34.0
108,0,1187.991,0,6,30,250,901,9.0,7,1190.219,0,736167.706155,Aud,Left,2015-07-22 16:37:00,22_7_2015 level5_250_cooling 16_37 log,11.0,34.0
109,0,1201.954,0,2,-90,250,951,0.0,4,1203.426,0,736167.706308,Aud,Left,2015-07-22 16:37:00,22_7_2015 level5_250_cooling 16_37 log,11.0,34.0
110,0,1222.673,0,6,30,250,751,9.0,8,1224.762,0,736167.706554,Aud,Left,2015-07-22 16:37:00,22_7_2015 level5_250_cooling 16_37 log,11.0,34.0
111,0,1241.502,0,7,60,250,601,9.0,6,1242.741,0,736167.706763,Aud,Left,2015-07-22 16:37:00,22_7_2015 level5_250_cooling 16_37 log,11.0,34.0
112,0,1251.588,0,3,-60,250,551,4.5,4,1253.842,0,736167.706891,Aud,Left,2015-07-22 16:37:00,22_7_2015 level5_250_cooling 16_37 log,12.0,34.0
113,0,1268.611,0,5,0,250,901,4.5,5,1269.92,1,736167.707077,Vis,Left,2015-07-22 16:37:00,22_7_2015 level5_250_cooling 16_37 log,12.0,34.0
114,0,1277.744,0,5,0,250,1001,9.0,6,1279.012,0,736167.707183,Aud,Left,2015-07-22 16:37:00,22_7_2015 level5_250_cooling 16_37 log,12.0,34.0
115,0,1288.975,0,2,-90,250,701,0.0,4,1290.206,0,736167.707311,Aud,Left,2015-07-22 16:37:00,22_7_2015 level5_250_cooling 16_37 log,12.0,34.0
116,0,1304.937,0,3,-60,250,801,4.5,5,1305.922,0,736167.707494,Aud,Left,2015-07-22 16:37:00,22_7_2015 level5_250_cooling 16_37 log,12.0,34.0
117,0,1313.682,0,6,30,250,501,0.0,6,1314.62,1,736167.707595,Vis,Left,2015-07-22 16:37:00,22_7_2015 level5_250_cooling 16_37 log,12.0,34.0
118,0,1324.844,0,8,90,250,851,4.5,8,1325.593,1,736167.707722,Aud,Left,2015-07-22 16:37:00,22_7_2015 level5_250_cooling 16_37 log,11.0,34.0
119,0,1334.361,0,7,60,250,651,9.0,6,1335.48,0,736167.707836,Aud,Left,2015-07-22 16:37:00,22_7_2015 level5_250_cooling 16_37 log,11.0,34.0
120,0,1342.669,0,4,-30,250,951,4.5,6,1343.22,0,736167.707929,Aud,Left,2015-07-22 16:37:00,22_7_2015 level5_250_cooling 16_37 log,11.0,34.0
121,0,1349.957,0,6,30,250,651,0.0,5,1351.379,0,736167.708019,Aud,Left,2015-07-22 16:37:00,22_7_2015 level5_250_cooling 16_37 log,11.0,34.0
122,0,1371.092,0,8,90,250,951,4.5,8,1372.153,1,736167.708261,Vis,Left,2015-07-22 16:37:00,22_7_2015 level5_250_cooling 16_37 log,11.0,34.0
123,0,1378.466,0,3,-60,250,601,4.5,3,1379.625,1,736167.708347,Vis,Left,2015-07-22 16:37:00,22_7_2015 level5_250_cooling 16_37 log,11.0,34.0
124,0,1387.468,0,2,-90,250,1001,0.0,2,1388.76,1,736167.708452,Vis,Left,2015-07-22 16:37:00,22_7_2015 level5_250_cooling 16_37 log,11.0,34.0
125,0,1402.559,0,6,30,250,851,0.0,5,1403.184,0,736167.708621,Vis,Left,2015-07-22 16:37:00,22_7_2015 level5_250_cooling 16_37 log,11.0,34.0
126,0,1412.209,0,8,90,250,551,4.5,8,1413.753,1,736167.708742,Aud,Left,2015-07-22 16:37:00,22_7_2015 level5_250_cooling 16_37 log,11.0,34.0
127,0,1421.565,0,3,-60,250,501,0.0,3,1422.568,1,736167.708844,Aud,Left,2015-07-22 16:37:00,22_7_2015 level5_250_cooling 16_37 log,11.0,34.0
128,0,1429.246,0,8,90,250,701,9.0,8,1430.158,1,736167.708932,Vis,Left,2015-07-22 16:37:00,22_7_2015 level5_250_cooling 16_37 log,11.0,34.0
129,0,1438.049,0,4,-30,250,751,4.5,6,1438.983,0,736167.709033,Aud,Left,2015-07-22 16:37:00,22_7_2015 level5_250_cooling 16_37 log,11.0,34.0
130,0,1446.715,0,4,-30,250,801,0.0,4,1447.645,1,736167.709134,Vis,Left,2015-07-22 16:37:00,22_7_2015 level5_250_cooling 16_37 log,11.0,34.0
131,0,1454.139,0,7,60,250,651,0.0,7,1455.355,1,736167.709223,Vis,Left,2015-07-22 16:37:00,22_7_2015 level5_250_cooling 16_37 log,11.0,34.0
132,0,1472.925,0,7,60,250,901,4.5,6,1473.773,0,736167.709437,Aud,Left,2015-07-22 16:37:00,22_7_2015 level5_250_cooling 16_37 log,11.0,34.0
133,0,1483.481,0,7,60,250,1001,4.5,7,1484.311,1,736167.709559,Vis,Left,2015-07-22 16:37:00,22_7_2015 level5_250_cooling 16_37 log,11.0,34.0
134,0,1490.924,0,2,-90,250,551,9.0,3,1492.414,0,736167.709652,Aud,Left,2015-07-22 16:37:00,22_7_2015 level5_250_cooling 16_37 log,10.0,34.0
135,0,1500.881,0,4,-30,250,851,9.0,4,1502.014,1,736167.709764,Vis,Left,2015-07-22 16:37:00,22_7_2015 level5_250_cooling 16_37 log,10.0,34.0
136,0,1509.569,0,2,-90,250,801,4.5,2,1510.813,1,736167.709866,Vis,Left,2015-07-22 16:37:00,22_7_2015 level5_250_cooling 16_37 log,10.0,34.0
137,0,1519.481,0,6,30,250,601,4.5,7,1520.511,0,736167.709977,Aud,Left,2015-07-22 16:37:00,22_7_2015 level5_250_cooling 16_37 log,10.0,34.0
138,0,1528.782,0,3,-60,250,701,0.0,3,1529.843,1,736167.710086,Vis,Left,2015-07-22 16:37:00,22_7_2015 level5_250_cooling 16_37 log,10.0,34.0
139,0,1536.153,0,5,0,250,951,4.5,6,1537.913,0,736167.710179,Aud,Left,2015-07-22 16:37:00,22_7_2015 level5_250_cooling 16_37 log,10.0,34.0
1,0,730.387,0,6,30,250,701,4.5,7,732.182,0,736159.687867,Vis,Left,2015-07-14 16:18:00,14_7_2015 level5_250_cooling 16_18 log,10.0,35.0
2,0,747.64,0,7,60,250,901,9.0,8,752.595,0,736159.688103,Vis,Left,2015-07-14 16:18:00,14_7_2015 level5_250_cooling 16_18 log,10.0,35.0
3,0,764.201,0,4,-30,250,551,0.0,3,766.031,0,736159.688259,Vis,Left,2015-07-14 16:18:00,14_7_2015 level5_250_cooling 16_18 log,10.0,35.0
4,0,775.592,0,4,-30,250,851,9.0,4,776.404,1,736159.688379,Vis,Left,2015-07-14 16:18:00,14_7_2015 level5_250_cooling 16_18 log,9.0,35.0
5,0,782.028,1,5,0,250,1001,4.5,4,782.823,0,736159.688454,Vis,Left,2015-07-14 16:18:00,14_7_2015 level5_250_cooling 16_18 log,9.0,35.0
6,0,793.045,0,5,0,250,501,0.0,5,794.24,1,736159.688586,Vis,Left,2015-07-14 16:18:00,14_7_2015 level5_250_cooling 16_18 log,9.0,35.0
7,0,803.082,0,4,-30,250,651,4.5,3,804.124,0,736159.6887,Aud,Left,2015-07-14 16:18:00,14_7_2015 level5_250_cooling 16_18 log,9.0,35.0
8,0,818.939,0,4,-30,250,601,9.0,4,819.857,1,736159.688881,Aud,Left,2015-07-14 16:18:00,14_7_2015 level5_250_cooling 16_18 log,9.0,35.0
9,0,828.311,0,3,-60,250,801,9.0,2,829.506,0,736159.688993,Vis,Left,2015-07-14 16:18:00,14_7_2015 level5_250_cooling 16_18 log,9.0,35.0
10,0,844.232,0,7,60,250,751,0.0,7,845.628,1,736159.68918,Vis,Left,2015-07-14 16:18:00,14_7_2015 level5_250_cooling 16_18 log,9.0,35.0
11,0,855.994,0,7,60,250,701,0.0,7,856.712,1,736159.68931,Aud,Left,2015-07-14 16:18:00,14_7_2015 level5_250_cooling 16_18 log,9.0,35.0
12,0,872.33,0,3,-60,250,851,9.0,6,873.511,0,736159.689503,Aud,Left,2015-07-14 16:18:00,14_7_2015 level5_250_cooling 16_18 log,9.0,36.0
13,0,882.496,0,8,90,250,601,4.5,4,883.706,0,736159.68962,Vis,Left,2015-07-14 16:18:00,14_7_2015 level5_250_cooling 16_18 log,9.0,35.0
14,0,891.677,0,8,90,250,551,9.0,8,892.481,1,736159.689723,Aud,Left,2015-07-14 16:18:00,14_7_2015 level5_250_cooling 16_18 log,9.0,35.0
15,0,898.734,0,2,-90,250,651,0.0,8,899.763,0,736159.689807,Vis,Left,2015-07-14 16:18:00,14_7_2015 level5_250_cooling 16_18 log,9.0,35.0
16,0,911.81,0,3,-60,250,751,4.5,3,912.553,1,736159.689955,Aud,Left,2015-07-14 16:18:00,14_7_2015 level5_250_cooling 16_18 log,9.0,35.0
17,0,920.771,0,6,30,250,951,4.5,6,921.88,1,736159.690063,Vis,Left,2015-07-14 16:18:00,14_7_2015 level5_250_cooling 16_18 log,9.0,35.0
18,0,934.14,0,5,0,250,801,9.0,5,935.033,1,736159.690215,Aud,Left,2015-07-14 16:18:00,14_7_2015 level5_250_cooling 16_18 log,9.0,35.0
19,0,942.607,0,8,90,250,901,4.5,8,943.58,1,736159.690314,Vis,Left,2015-07-14 16:18:00,14_7_2015 level5_250_cooling 16_18 log,9.0,35.0
20,0,951.977,0,2,-90,250,501,9.0,3,952.809,0,736159.69042,Aud,Left,2015-07-14 16:18:00,14_7_2015 level5_250_cooling 16_18 log,9.0,35.0
21,0,962.144,0,6,30,250,1001,0.0,7,962.76,0,736159.690538,Aud,Left,2015-07-14 16:18:00,14_7_2015 level5_250_cooling 16_18 log,9.0,35.0
22,0,977.765,0,5,0,250,751,9.0,6,978.67,0,736159.690719,Aud,Left,2015-07-14 16:18:00,14_7_2015 level5_250_cooling 16_18 log,9.0,34.0
23,0,987.815,0,8,90,250,801,0.0,8,988.848,1,736159.690838,Aud,Left,2015-07-14 16:18:00,14_7_2015 level5_250_cooling 16_18 log,9.0,34.0
24,0,996.156,0,6,30,250,501,4.5,8,996.921,0,736159.690932,Aud,Left,2015-07-14 16:18:00,14_7_2015 level5_250_cooling 16_18 log,9.0,34.0
25,0,1008.66,0,3,-60,250,651,4.5,3,1009.53,1,736159.691077,Vis,Left,2015-07-14 16:18:00,14_7_2015 level5_250_cooling 16_18 log,9.0,34.0
26,0,1016.229,0,2,-90,250,901,0.0,3,1017.112,0,736159.691165,Aud,Left,2015-07-14 16:18:00,14_7_2015 level5_250_cooling 16_18 log,9.0,34.0
27,0,1028.85,0,2,-90,250,951,0.0,2,1029.807,1,736159.691311,Vis,Left,2015-07-14 16:18:00,14_7_2015 level5_250_cooling 16_18 log,9.0,34.0
28,0,1038.337,0,7,60,250,701,4.5,6,1039.367,0,736159.691423,Aud,Left,2015-07-14 16:18:00,14_7_2015 level5_250_cooling 16_18 log,9.0,34.0
29,0,1047.349,0,3,-60,250,551,0.0,3,1048.352,1,736159.691526,Vis,Left,2015-07-14 16:18:00,14_7_2015 level5_250_cooling 16_18 log,9.0,34.0
30,0,1054.744,0,4,-30,250,851,9.0,4,1056.032,1,736159.691616,Vis,Left,2015-07-14 16:18:00,14_7_2015 level5_250_cooling 16_18 log,9.0,34.0
31,0,1064.315,0,5,0,250,951,9.0,4,1065.045,0,736159.69172,Aud,Left,2015-07-14 16:18:00,14_7_2015 level5_250_cooling 16_18 log,9.0,34.0
