Condition,originalFile,Trial,CorrectionTrial,StartTime,CenterReward,SpkrIdx,SpkrPos,duration,HoldTime,Atten,Response,RespTime,Correct,ComputerTime,Modality,SessionDate,LeftTemperature,RightTemperature
Left,25_10_2016 level15_700_Robin 8_27 Left_T9,9,0,766.011,0,2,-90,700,1001,9.0,3,767.783,0,736628.361144,Aud,2016-10-25 08:27:00,11.0,36.0
Left,25_10_2016 level15_700_Robin 8_27 Left_T9,10,1,772.902,0,2,-90,700,1001,9.0,3,774.728,0,736628.361225,Aud,2016-10-25 08:27:00,11.0,36.0
Left,25_10_2016 level15_700_Robin 8_27 Left_T9,11,1,779.886,0,2,-90,700,1001,9.0,2,781.884,1,736628.361307,Aud,2016-10-25 08:27:00,11.0,36.0
Left,25_10_2016 level15_700_Robin 8_27 Left_T9,12,0,791.343,0,7,60,700,1021,9.0,8,793.516,0,736628.361442,Aud,2016-10-25 08:27:00,11.0,36.0
Left,25_10_2016 level15_700_Robin 8_27 Left_T9,13,1,804.449,0,7,60,700,1021,9.0,6,806.509,0,736628.361593,Aud,2016-10-25 08:27:00,11.0,36.0
Left,25_10_2016 level15_700_Robin 8_27 Left_T9,14,1,812.054,0,7,60,700,1021,9.0,8,814.043,0,736628.36168,Aud,2016-10-25 08:27:00,11.0,36.0
Left,25_10_2016 level15_700_Robin 8_27 Left_T9,15,1,821.558,0,7,60,700,1021,9.0,3,829.195,0,736628.361855,Aud,2016-10-25 08:27:00,11.0,36.0
Left,25_10_2016 level15_700_Robin 8_27 Left_T9,16,0,838.148,0,6,30,700,1101,0.0,7,840.204,0,736628.361983,Aud,2016-10-25 08:27:00,11.0,36.0
Left,25_10_2016 level15_700_Robin 8_27 Left_T9,17,1,845.705,0,6,30,700,1101,0.0,8,847.35,0,736628.362065,Aud,2016-10-25 08:27:00,11.0,36.0
Left,25_10_2016 level15_700_Robin 8_27 Left_T9,18,1,860.884,0,6,30,700,1101,0.0,7,863.028,0,736628.362247,Aud,2016-10-25 08:27:00,11.0,36.0
Left,25_10_2016 level15_700_Robin 8_27 Left_T9,19,1,869.088,0,6,30,700,1101,0.0,2,874.011,0,736628.362374,Aud,2016-10-25 08:27:00,11.0,36.0
Left,25_10_2016 level15_700_Robin 8_27 Left_T9,20,1,879.302,0,6,30,700,1101,0.0,4,882.641,0,736628.362474,Aud,2016-10-25 08:27:00,11.0,36.0
Left,25_10_2016 level15_700_Robin 8_27 Left_T9,21,1,887.888,0,6,30,700,1101,0.0,8,889.797,0,736628.362557,Aud,2016-10-25 08:27:00,11.0,36.0
Left,25_10_2016 level15_700_Robin 8_27 Left_T9,22,0,898.784,0,3,-60,700,1041,0.0,2,906.248,0,736628.362747,Aud,2016-10-25 08:27:00,8.5,36.0
Left,25_10_2016 level15_700_Robin 8_27 Left_T9,23,1,911.989,0,3,-60,700,1041,0.0,2,913.808,0,736628.362835,Aud,2016-10-25 08:27:00,8.5,36.0
Left,25_10_2016 level15_700_Robin 8_27 Left_T9,24,1,919.229,0,3,-60,700,1041,0.0,2,921.07,0,736628.362918,Aud,2016-10-25 08:27:00,8.5,36.0
Left,25_10_2016 level15_700_Robin 8_27 Left_T9,25,1,926.228,1,3,-60,700,1041,0.0,2,932.226,0,736628.363048,Aud,2016-10-25 08:27:00,8.1,36.0
Left,25_10_2016 level15_700_Robin 8_27 Left_T9,26,1,947.776,1,3,-60,700,1041,0.0,8,956.124,0,736628.363324,Aud,2016-10-25 08:27:00,8.1,36.0
Left,25_10_2016 level15_700_Robin 8_27 Left_T9,27,1,961.33,0,3,-60,700,1041,0.0,4,963.792,0,736628.363413,Aud,2016-10-25 08:27:00,8.1,36.0
Left,25_10_2016 level15_700_Robin 8_27 Left_T9,28,0,968.885,0,4,-30,700,1061,4.5,2,970.868,0,736628.363494,Aud,2016-10-25 08:27:00,8.1,36.0
Left,25_10_2016 level15_700_Robin 8_27 Left_T9,29,1,985.086,0,4,-30,700,1061,4.5,-1,-1.0,0,736628.363832,Aud,2016-10-25 08:27:00,8.1,36.0
Left,25_10_2016 level15_700_Robin 8_27 Left_T9,30,0,1014.382,0,7,60,700,1121,9.0,4,1019.053,0,736628.364052,Aud,2016-10-25 08:27:00,8.1,36.0
Left,25_10_2016 level15_700_Robin 8_27 Left_T9,31,1,1031.717,0,7,60,700,1121,9.0,8,1033.6,0,736628.36422,Aud,2016-10-25 08:27:00,8.1,36.0
Left,25_10_2016 level15_700_Robin 8_27 Left_T9,32,1,1039.904,0,7,60,700,1121,9.0,8,1045.963,0,736628.364364,Aud,2016-10-25 08:27:00,8.1,36.0
Left,25_10_2016 level15_700_Robin 8_27 Left_T9,33,1,1051.21,0,7,60,700,1121,9.0,7,1052.861,1,736628.364443,Aud,2016-10-25 08:27:00,8.1,36.0
Left,25_10_2016 level15_700_Robin 8_27 Left_T9,34,0,1063.689,0,6,30,700,1101,0.0,7,1065.209,0,736628.364587,Aud,2016-10-25 08:27:00,8.1,36.0
Left,25_10_2016 level15_700_Robin 8_27 Left_T9,35,1,1070.491,0,6,30,700,1101,0.0,8,1071.772,0,736628.364662,Aud,2016-10-25 08:27:00,10.4,36.0
Left,25_10_2016 level15_700_Robin 8_27 Left_T9,36,1,1079.214,0,6,30,700,1101,0.0,8,1080.943,0,736628.364769,Aud,2016-10-25 08:27:00,10.4,36.0
Left,25_10_2016 level15_700_Robin 8_27 Left_T9,37,1,1089.802,1,6,30,700,1101,0.0,8,1096.433,0,736628.364948,Aud,2016-10-25 08:27:00,10.4,36.0
Left,25_10_2016 level15_700_Robin 8_27 Left_T9,38,1,1101.691,0,6,30,700,1101,0.0,8,1104.344,0,736628.365039,Aud,2016-10-25 08:27:00,10.4,36.0
Left,25_10_2016 level15_700_Robin 8_27 Left_T9,39,1,1113.938,0,6,30,700,1101,0.0,2,1115.174,0,736628.365164,Aud,2016-10-25 08:27:00,10.4,36.0
Left,25_10_2016 level15_700_Robin 8_27 Left_T9,40,0,1124.637,0,4,-30,700,1201,9.0,4,1126.279,1,736628.365293,Aud,2016-10-25 08:27:00,10.4,36.0
Left,25_10_2016 level15_700_Robin 8_27 Left_T9,41,0,1142.552,0,8,90,700,1161,0.0,8,1144.026,1,736628.365499,Aud,2016-10-25 08:27:00,9.6,36.0
Left,25_10_2016 level15_700_Robin 8_27 Left_T9,42,0,1154.547,0,4,-30,700,1141,9.0,4,1155.995,1,736628.365638,Aud,2016-10-25 08:27:00,9.6,36.0
Left,25_10_2016 level15_700_Robin 8_27 Left_T9,43,0,1172.987,0,3,-60,700,1081,4.5,4,1174.586,0,736628.365852,Aud,2016-10-25 08:27:00,9.6,36.0
Left,25_10_2016 level15_700_Robin 8_27 Left_T9,44,1,1179.772,0,3,-60,700,1081,4.5,4,1182.53,0,736628.365945,Aud,2016-10-25 08:27:00,9.6,36.0
Left,25_10_2016 level15_700_Robin 8_27 Left_T9,45,1,1197.232,0,3,-60,700,1081,4.5,8,1203.553,0,736628.366188,Aud,2016-10-25 08:27:00,9.6,36.0
Left,25_10_2016 level15_700_Robin 8_27 Left_T9,46,0,1218.549,0,2,-90,700,1181,9.0,4,1221.777,0,736628.366398,Aud,2016-10-25 08:27:00,9.4,36.0
Left,25_10_2016 level15_700_Robin 8_27 Left_T9,47,1,1228.122,0,2,-90,700,1181,9.0,2,1235.564,1,736628.366558,Aud,2016-10-25 08:27:00,9.4,36.0
Left,25_10_2016 level15_700_Robin 8_27 Left_T9,48,0,1243.993,0,8,90,700,1121,4.5,8,1246.001,1,736628.36668,Aud,2016-10-25 08:27:00,9.4,36.0
Left,25_10_2016 level15_700_Robin 8_27 Left_T9,49,0,1256.281,0,2,-90,700,1061,9.0,4,1258.22,0,736628.366821,Aud,2016-10-25 08:27:00,9.4,36.0
Left,25_10_2016 level15_700_Robin 8_27 Left_T9,50,1,1263.453,0,2,-90,700,1061,9.0,4,1265.049,0,736628.3669,Aud,2016-10-25 08:27:00,9.2,36.0
Left,25_10_2016 level15_700_Robin 8_27 Left_T9,51,1,1270.353,0,2,-90,700,1061,9.0,2,1274.404,1,736628.367008,Aud,2016-10-25 08:27:00,9.2,36.0
Left,25_10_2016 level15_700_Robin 8_27 Left_T9,52,0,1285.509,0,3,-60,700,1021,0.0,6,1287.359,0,736628.367158,Aud,2016-10-25 08:27:00,9.2,36.0
Left,25_10_2016 level15_700_Robin 8_27 Left_T9,53,1,1304.735,0,3,-60,700,1021,0.0,2,1307.315,0,736628.367389,Aud,2016-10-25 08:27:00,9.2,36.0
Left,25_10_2016 level15_700_Robin 8_27 Left_T9,54,1,1312.513,0,3,-60,700,1021,0.0,3,1314.045,1,736628.367467,Aud,2016-10-25 08:27:00,9.2,36.0
Left,25_10_2016 level15_700_Robin 8_27 Left_T9,55,0,1324.836,0,7,60,700,1081,4.5,8,1326.596,0,736628.367612,Aud,2016-10-25 08:27:00,9.2,36.0
Left,25_10_2016 level15_700_Robin 8_27 Left_T9,56,1,1331.874,0,7,60,700,1081,4.5,6,1333.55,0,736628.367692,Aud,2016-10-25 08:27:00,9.2,36.0
Left,25_10_2016 level15_700_Robin 8_27 Left_T9,57,1,1339.968,0,7,60,700,1081,4.5,7,1341.95,1,736628.367789,Aud,2016-10-25 08:27:00,9.2,36.0
Left,25_10_2016 level15_700_Robin 8_27 Left_T9,58,0,1354.999,0,7,60,700,1141,0.0,7,1356.408,1,736628.367957,Aud,2016-10-25 08:27:00,9.2,36.0
Left,25_10_2016 level15_700_Robin 8_27 Left_T9,59,0,1365.843,0,7,60,700,1181,9.0,7,1367.33,1,736628.368083,Aud,2016-10-25 08:27:00,9.2,36.0
Left,25_10_2016 level15_700_Robin 8_27 Left_T9,60,0,1382.239,0,4,-30,700,1041,9.0,4,1383.996,1,736628.368277,Aud,2016-10-25 08:27:00,9.2,36.0
Left,25_10_2016 level15_700_Robin 8_27 Left_T9,61,0,1396.857,0,8,90,700,1201,4.5,8,1399.086,1,736628.36845,Aud,2016-10-25 08:27:00,9.2,36.0
Left,25_10_2016 level15_700_Robin 8_27 Left_T9,62,0,1409.684,0,3,-60,700,1101,9.0,6,1411.245,0,736628.368592,Aud,2016-10-25 08:27:00,9.2,36.0
Left,25_10_2016 level15_700_Robin 8_27 Left_T9,63,1,1416.494,0,3,-60,700,1101,9.0,4,1419.799,0,736628.368691,Aud,2016-10-25 08:27:00,9.2,36.0
Left,25_10_2016 level15_700_Robin 8_27 Left_T9,64,1,1425.096,0,3,-60,700,1101,9.0,2,1427.208,0,736628.368777,Aud,2016-10-25 08:27:00,9.2,36.0
Left,25_10_2016 level15_700_Robin 8_27 Left_T9,65,1,1432.495,0,3,-60,700,1101,9.0,2,1434.215,0,736628.368858,Aud,2016-10-25 08:27:00,9.2,36.0
Left,25_10_2016 level15_700_Robin 8_27 Left_T9,66,1,1439.509,0,3,-60,700,1101,9.0,3,1441.02,1,736628.368936,Aud,2016-10-25 08:27:00,9.2,36.0
Left,25_10_2016 level15_700_Robin 8_27 Left_T9,67,0,1449.281,0,4,-30,700,1001,4.5,2,1451.365,0,736628.369056,Aud,2016-10-25 08:27:00,9.2,36.0
Left,25_10_2016 level15_700_Robin 8_27 Left_T9,68,1,1456.496,0,4,-30,700,1001,4.5,8,1458.398,0,736628.369138,Aud,2016-10-25 08:27:00,9.2,36.0
Left,25_10_2016 level15_700_Robin 8_27 Left_T9,69,1,1468.957,1,4,-30,700,1001,4.5,2,1473.789,0,736628.369315,Aud,2016-10-25 08:27:00,9.2,36.0
Left,25_10_2016 level15_700_Robin 8_27 Left_T9,70,1,1478.895,0,4,-30,700,1001,4.5,6,1480.43,0,736628.369392,Aud,2016-10-25 08:27:00,9.2,36.0
Left,25_10_2016 level15_700_Robin 8_27 Left_T9,71,1,1485.602,0,4,-30,700,1001,4.5,7,1487.35,0,736628.369472,Aud,2016-10-25 08:27:00,9.2,36.0
Left,25_10_2016 level15_700_Robin 8_27 Left_T9,72,1,1492.867,0,4,-30,700,1001,4.5,7,1494.631,0,736628.369557,Aud,2016-10-25 08:27:00,9.2,36.0
Left,25_10_2016 level15_700_Robin 8_27 Left_T9,73,1,1499.796,0,4,-30,700,1001,4.5,8,1501.372,0,736628.369634,Aud,2016-10-25 08:27:00,9.2,36.0
Left,25_10_2016 level15_700_Robin 8_27 Left_T9,74,1,1512.875,0,4,-30,700,1001,4.5,8,1518.571,0,736628.369833,Aud,2016-10-25 08:27:00,9.2,36.0
Left,25_10_2016 level15_700_Robin 8_27 Left_T9,75,1,1524.571,0,4,-30,700,1001,4.5,6,1526.872,0,736628.36993,Aud,2016-10-25 08:27:00,9.2,36.0
Left,25_10_2016 level15_700_Robin 8_27 Left_T9,76,1,1532.01,0,4,-30,700,1001,4.5,8,1533.407,0,736628.370006,Aud,2016-10-25 08:27:00,9.2,36.0
Left,25_10_2016 level15_700_Robin 8_27 Left_T9,77,1,1538.596,0,4,-30,700,1001,4.5,8,1540.554,0,736628.370088,Aud,2016-10-25 08:27:00,9.2,36.0
Left,25_10_2016 level15_700_Robin 8_27 Left_T9,78,1,1545.697,0,4,-30,700,1001,4.5,3,1547.236,0,736628.370166,Aud,2016-10-25 08:27:00,9.2,36.0
Left,25_10_2016 level15_700_Robin 8_27 Left_T9,79,1,1552.396,0,4,-30,700,1001,4.5,7,1554.108,0,736628.370245,Aud,2016-10-25 08:27:00,9.2,36.0
Left,25_10_2016 level15_700_Robin 8_27 Left_T9,80,1,1562.925,1,4,-30,700,1001,4.5,8,1573.195,0,736628.370465,Aud,2016-10-25 08:27:00,9.2,36.0
Left,25_10_2016 level15_700_Robin 8_27 Left_T9,81,1,1578.992,0,4,-30,700,1001,4.5,7,1580.981,0,736628.370556,Aud,2016-10-25 08:27:00,9.2,36.0
Left,25_10_2016 level15_700_Robin 8_27 Left_T9,82,1,1586.096,0,4,-30,700,1001,4.5,2,1589.58,0,736628.370655,Aud,2016-10-25 08:27:00,9.2,36.0
Left,25_10_2016 level15_700_Robin 8_27 Left_T9,83,1,1594.697,0,4,-30,700,1001,4.5,4,1596.833,1,736628.37074,Aud,2016-10-25 08:27:00,9.2,36.0
Left,25_10_2016 level15_700_Robin 8_27 Left_T9,84,0,1610.281,0,6,30,700,1101,0.0,6,1611.444,1,736628.370909,Aud,2016-10-25 08:27:00,9.2,36.0
Left,25_10_2016 level15_700_Robin 8_27 Left_T9,85,0,1620.175,0,6,30,700,1161,4.5,7,1621.797,0,736628.371028,Aud,2016-10-25 08:27:00,9.2,36.0
Left,25_10_2016 level15_700_Robin 8_27 Left_T9,86,1,1627.071,0,6,30,700,1161,4.5,7,1629.397,0,736628.371116,Aud,2016-10-25 08:27:00,9.2,36.0
Left,25_10_2016 level15_700_Robin 8_27 Left_T9,87,1,1639.519,0,6,30,700,1161,4.5,7,1641.984,0,736628.371262,Aud,2016-10-25 08:27:00,9.2,36.0
Left,25_10_2016 level15_700_Robin 8_27 Left_T9,88,1,1652.152,0,6,30,700,1161,4.5,2,1656.644,0,736628.371432,Aud,2016-10-25 08:27:00,9.2,36.0
Left,25_10_2016 level15_700_Robin 8_27 Left_T9,89,1,1668.239,0,6,30,700,1161,4.5,-1,-1.0,0,736628.37174,Aud,2016-10-25 08:27:00,9.2,36.0
Left,25_10_2016 level15_700_Robin 8_27 Left_T9,90,0,1689.596,0,2,-90,700,1121,4.5,8,1694.851,0,736628.371874,Aud,2016-10-25 08:27:00,9.2,36.0
Left,25_10_2016 level15_700_Robin 8_27 Left_T9,91,1,1701.744,0,2,-90,700,1121,4.5,4,1703.46,0,736628.371974,Aud,2016-10-25 08:27:00,9.2,36.0
Left,25_10_2016 level15_700_Robin 8_27 Left_T9,92,1,1709.266,0,2,-90,700,1121,4.5,2,1711.367,1,736628.372065,Aud,2016-10-25 08:27:00,9.2,36.0
Left,25_10_2016 level15_700_Robin 8_27 Left_T9,93,0,1723.536,0,2,-90,700,1061,0.0,6,1724.997,0,736628.372222,Aud,2016-10-25 08:27:00,9.2,36.0
Left,25_10_2016 level15_700_Robin 8_27 Left_T9,94,1,1747.945,0,2,-90,700,1061,0.0,2,1756.279,1,736628.372585,Aud,2016-10-25 08:27:00,9.2,36.0
Left,25_10_2016 level15_700_Robin 8_27 Left_T9,95,0,1767.35,0,3,-60,700,1001,0.0,2,1769.53,0,736628.372739,Aud,2016-10-25 08:27:00,9.2,36.0
Left,25_10_2016 level15_700_Robin 8_27 Left_T9,96,1,1774.698,0,3,-60,700,1001,0.0,6,1776.491,0,736628.372818,Aud,2016-10-25 08:27:00,9.2,36.0
Left,25_10_2016 level15_700_Robin 8_27 Left_T9,97,1,1782.328,1,3,-60,700,1001,0.0,-1,-1.0,0,736628.37306,Aud,2016-10-25 08:27:00,9.2,36.0
Left,25_10_2016 level15_700_Robin 8_27 Left_T9,98,0,1801.349,0,8,90,700,1041,4.5,3,1806.976,0,736628.373171,Aud,2016-10-25 08:27:00,9.2,36.0
Left,25_10_2016 level15_700_Robin 8_27 Left_T9,99,1,1813.135,0,8,90,700,1041,4.5,-1,-1.0,0,736628.373417,Aud,2016-10-25 08:27:00,9.1,36.0
Left,25_10_2016 level15_700_Robin 8_27 Left_T9,100,0,1834.48,0,7,60,700,1141,0.0,8,1836.034,0,736628.373508,Aud,2016-10-25 08:27:00,,
Left,25_10_2016 level15_700_Robin 8_27 Left_T9,101,1,1846.214,0,7,60,700,1141,0.0,2,1850.934,0,736628.373681,Aud,2016-10-25 08:27:00,,
Left,25_10_2016 level15_700_Robin 8_27 Left_T9,102,1,1873.644,0,7,60,700,1141,0.0,8,1884.804,0,736628.374073,Aud,2016-10-25 08:27:00,,
Left,25_10_2016 level15_700_Robin 8_27 Left_T9,103,1,1894.65,1,7,60,700,1141,0.0,-1,-1.0,0,736628.37436,Aud,2016-10-25 08:27:00,,
Left,25_10_2016 level15_700_Robin 8_27 Left_T9,104,0,1982.931,0,4,-30,700,1081,9.0,8,1987.08,0,736628.375256,Aud,2016-10-25 08:27:00,,
Left,25_10_2016 level15_700_Robin 8_27 Left_T9,105,1,2000.965,0,4,-30,700,1081,9.0,3,2003.008,0,736628.375441,Aud,2016-10-25 08:27:00,,
Left,25_10_2016 level15_700_Robin 8_27 Left_T9,106,1,2008.282,0,4,-30,700,1081,9.0,2,2011.662,0,736628.375541,Aud,2016-10-25 08:27:00,,
Left,25_10_2016 level15_700_Robin 8_27 Left_T9,107,1,2026.273,0,4,-30,700,1081,9.0,2,2031.976,0,736628.375776,Aud,2016-10-25 08:27:00,,
Left,25_10_2016 level15_700_Robin 8_27 Left_T9,108,1,2052.694,0,4,-30,700,1081,9.0,-1,-1.0,0,736628.376189,Aud,2016-10-25 08:27:00,,
Left,23_10_2016 level15_700_Robin 15_57 Left_T7,7,0,1064.455,0,3,-60,700,1021,9.0,2,1072.85,0,736626.677392,Aud,2016-10-23 15:57:00,11.0,36.0
Left,23_10_2016 level15_700_Robin 15_57 Left_T7,8,1,1111.653,0,3,-60,700,1021,9.0,6,1114.196,0,736626.677871,Aud,2016-10-23 15:57:00,11.0,36.0
Left,23_10_2016 level15_700_Robin 15_57 Left_T7,9,0,1119.049,0,3,-60,700,1201,4.5,2,1125.304,0,736626.677999,Aud,2016-10-23 15:57:00,11.0,36.0
Left,23_10_2016 level15_700_Robin 15_57 Left_T7,10,1,1152.354,1,3,-60,700,1201,4.5,4,1156.06,0,736626.678356,Aud,2016-10-23 15:57:00,11.0,36.0
Left,23_10_2016 level15_700_Robin 15_57 Left_T7,11,1,1169.635,0,3,-60,700,1201,4.5,8,1171.623,0,736626.678535,Aud,2016-10-23 15:57:00,11.0,36.0
Left,23_10_2016 level15_700_Robin 15_57 Left_T7,12,0,1176.847,0,4,-30,700,1141,9.0,4,1178.244,1,736626.678613,Aud,2016-10-23 15:57:00,9.3,36.0
Left,23_10_2016 level15_700_Robin 15_57 Left_T7,13,0,1191.439,0,8,90,700,1181,0.0,8,1192.674,1,736626.67878,Aud,2016-10-23 15:57:00,9.3,36.0
Left,23_10_2016 level15_700_Robin 15_57 Left_T7,14,0,1202.678,0,7,60,700,1081,4.5,4,1204.322,0,736626.678915,Aud,2016-10-23 15:57:00,9.3,36.0
Left,23_10_2016 level15_700_Robin 15_57 Left_T7,15,1,1221.376,0,7,60,700,1081,4.5,8,1223.677,0,736626.679138,Aud,2016-10-23 15:57:00,9.3,36.0
Left,23_10_2016 level15_700_Robin 15_57 Left_T7,16,1,1275.659,1,7,60,700,1081,4.5,8,1287.929,0,736626.679881,Aud,2016-10-23 15:57:00,9.3,36.0
Left,23_10_2016 level15_700_Robin 15_57 Left_T7,17,1,1303.393,0,7,60,700,1081,4.5,6,1305.046,0,736626.68008,Aud,2016-10-23 15:57:00,9.3,36.0
Left,23_10_2016 level15_700_Robin 15_57 Left_T7,18,1,1310.481,0,7,60,700,1081,4.5,6,1312.302,0,736626.680164,Aud,2016-10-23 15:57:00,9.3,36.0
Left,23_10_2016 level15_700_Robin 15_57 Left_T7,19,1,1334.784,0,7,60,700,1081,4.5,8,1341.905,0,736626.680506,Aud,2016-10-23 15:57:00,9.3,36.0
Left,23_10_2016 level15_700_Robin 15_57 Left_T7,20,1,1351.297,0,7,60,700,1081,4.5,6,1352.905,0,736626.680634,Aud,2016-10-23 15:57:00,9.3,36.0
Left,23_10_2016 level15_700_Robin 15_57 Left_T7,21,1,1365.556,0,7,60,700,1081,4.5,7,1366.761,1,736626.680794,Aud,2016-10-23 15:57:00,9.0,36.0
Left,23_10_2016 level15_700_Robin 15_57 Left_T7,22,0,1385.881,0,8,90,700,1041,0.0,7,1387.469,0,736626.681034,Aud,2016-10-23 15:57:00,9.0,36.0
Left,23_10_2016 level15_700_Robin 15_57 Left_T7,23,1,1401.554,0,8,90,700,1041,0.0,8,1402.881,1,736626.681212,Aud,2016-10-23 15:57:00,9.0,36.0
Left,23_10_2016 level15_700_Robin 15_57 Left_T7,24,0,1414.393,0,6,30,700,1061,9.0,7,1416.051,0,736626.681365,Aud,2016-10-23 15:57:00,9.0,36.0
Left,23_10_2016 level15_700_Robin 15_57 Left_T7,25,1,1423.827,0,6,30,700,1061,9.0,8,1431.653,0,736626.681545,Aud,2016-10-23 15:57:00,9.0,36.0
Left,23_10_2016 level15_700_Robin 15_57 Left_T7,26,1,1440.749,0,6,30,700,1061,9.0,8,1443.024,0,736626.681677,Aud,2016-10-23 15:57:00,9.0,36.0
Left,23_10_2016 level15_700_Robin 15_57 Left_T7,27,1,1448.203,0,6,30,700,1061,9.0,7,1449.73,0,736626.681754,Aud,2016-10-23 15:57:00,9.0,36.0
Left,23_10_2016 level15_700_Robin 15_57 Left_T7,28,0,1473.269,1,6,30,700,1161,9.0,3,1480.516,0,736626.682111,Aud,2016-10-23 15:57:00,9.0,36.0
Left,23_10_2016 level15_700_Robin 15_57 Left_T7,29,1,1486.057,0,6,30,700,1161,9.0,4,1489.676,0,736626.682217,Aud,2016-10-23 15:57:00,9.0,36.0
Left,23_10_2016 level15_700_Robin 15_57 Left_T7,30,1,1496.408,0,6,30,700,1161,9.0,8,1498.352,0,736626.682317,Aud,2016-10-23 15:57:00,9.0,36.0
Left,23_10_2016 level15_700_Robin 15_57 Left_T7,31,1,1505.212,0,6,30,700,1161,9.0,8,1506.384,0,736626.68241,Aud,2016-10-23 15:57:00,9.0,36.0
Left,23_10_2016 level15_700_Robin 15_57 Left_T7,32,0,1515.36,1,2,-90,700,1101,4.5,2,1520.162,1,736626.68257,Aud,2016-10-23 15:57:00,9.0,36.0
Left,23_10_2016 level15_700_Robin 15_57 Left_T7,33,0,1531.995,0,2,-90,700,1081,4.5,4,1533.315,0,736626.682722,Aud,2016-10-23 15:57:00,9.0,36.0
Left,23_10_2016 level15_700_Robin 15_57 Left_T7,34,1,1541.171,0,2,-90,700,1081,4.5,3,1542.91,0,736626.682833,Aud,2016-10-23 15:57:00,9.0,36.0
Left,23_10_2016 level15_700_Robin 15_57 Left_T7,35,1,1548.134,0,2,-90,700,1081,4.5,2,1550.651,1,736626.682922,Aud,2016-10-23 15:57:00,8.4,36.0
Left,23_10_2016 level15_700_Robin 15_57 Left_T7,36,0,1562.616,0,7,60,700,1201,0.0,8,1564.689,0,736626.683085,Aud,2016-10-23 15:57:00,8.4,36.0
Left,23_10_2016 level15_700_Robin 15_57 Left_T7,37,1,1570.054,0,7,60,700,1201,0.0,8,1572.175,0,736626.683171,Aud,2016-10-23 15:57:00,8.4,36.0
Left,23_10_2016 level15_700_Robin 15_57 Left_T7,38,1,1581.551,0,7,60,700,1201,0.0,8,1584.143,0,736626.68331,Aud,2016-10-23 15:57:00,8.4,36.0
Left,23_10_2016 level15_700_Robin 15_57 Left_T7,39,1,1589.552,0,7,60,700,1201,0.0,7,1590.882,1,736626.683389,Aud,2016-10-23 15:57:00,8.4,36.0
Left,23_10_2016 level15_700_Robin 15_57 Left_T7,40,0,1597.515,0,3,-60,700,1041,0.0,4,1598.827,0,736626.68348,Aud,2016-10-23 15:57:00,8.4,36.0
Left,23_10_2016 level15_700_Robin 15_57 Left_T7,41,1,1603.984,1,3,-60,700,1041,0.0,2,1609.0,0,736626.683598,Aud,2016-10-23 15:57:00,8.4,36.0
Left,23_10_2016 level15_700_Robin 15_57 Left_T7,42,1,1614.184,0,3,-60,700,1041,0.0,4,1615.623,0,736626.683674,Aud,2016-10-23 15:57:00,8.4,36.0
Left,23_10_2016 level15_700_Robin 15_57 Left_T7,43,1,1620.784,0,3,-60,700,1041,0.0,4,1624.44,0,736626.683777,Aud,2016-10-23 15:57:00,8.0,36.0
Left,23_10_2016 level15_700_Robin 15_57 Left_T7,44,1,1640.027,0,3,-60,700,1041,0.0,2,1641.636,0,736626.683975,Aud,2016-10-23 15:57:00,8.0,36.0
Left,23_10_2016 level15_700_Robin 15_57 Left_T7,45,1,1646.785,0,3,-60,700,1041,0.0,4,1648.35,0,736626.684053,Aud,2016-10-23 15:57:00,8.0,36.0
Left,23_10_2016 level15_700_Robin 15_57 Left_T7,46,0,1654.149,0,8,90,700,1161,9.0,8,1655.625,1,736626.684137,Aud,2016-10-23 15:57:00,8.0,36.0
Left,23_10_2016 level15_700_Robin 15_57 Left_T7,47,0,1666.296,0,7,60,700,1001,0.0,7,1667.808,1,736626.684278,Aud,2016-10-23 15:57:00,8.0,36.0
Left,23_10_2016 level15_700_Robin 15_57 Left_T7,48,0,1678.286,0,7,60,700,1121,9.0,4,1681.845,0,736626.68444,Aud,2016-10-23 15:57:00,8.0,36.0
Left,23_10_2016 level15_700_Robin 15_57 Left_T7,49,1,1692.298,0,7,60,700,1121,9.0,8,1693.505,0,736626.684576,Aud,2016-10-23 15:57:00,8.0,36.0
Left,23_10_2016 level15_700_Robin 15_57 Left_T7,50,1,1702.75,0,7,60,700,1121,9.0,6,1704.353,0,736626.684701,Aud,2016-10-23 15:57:00,8.0,36.0
Left,23_10_2016 level15_700_Robin 15_57 Left_T7,51,1,1713.603,0,7,60,700,1121,9.0,8,1714.794,0,736626.684822,Aud,2016-10-23 15:57:00,8.0,36.0
Left,23_10_2016 level15_700_Robin 15_57 Left_T7,52,1,1722.567,0,7,60,700,1121,9.0,2,1727.445,0,736626.684968,Aud,2016-10-23 15:57:00,8.0,36.0
Left,23_10_2016 level15_700_Robin 15_57 Left_T7,53,1,1732.68,0,7,60,700,1121,9.0,6,1734.515,0,736626.685051,Aud,2016-10-23 15:57:00,8.0,36.0
Left,23_10_2016 level15_700_Robin 15_57 Left_T7,54,1,1742.807,0,7,60,700,1121,9.0,4,1746.672,0,736626.685191,Aud,2016-10-23 15:57:00,8.0,36.0
Left,23_10_2016 level15_700_Robin 15_57 Left_T7,55,1,1751.968,0,7,60,700,1121,9.0,8,1753.333,0,736626.685268,Aud,2016-10-23 15:57:00,8.0,36.0
Left,23_10_2016 level15_700_Robin 15_57 Left_T7,56,1,1759.897,0,7,60,700,1121,9.0,8,1761.709,0,736626.685365,Aud,2016-10-23 15:57:00,8.0,36.0
Left,23_10_2016 level15_700_Robin 15_57 Left_T7,57,0,1766.953,0,4,-30,700,1141,9.0,3,1768.2,0,736626.685441,Aud,2016-10-23 15:57:00,8.0,36.0
Left,23_10_2016 level15_700_Robin 15_57 Left_T7,58,1,1773.5,0,4,-30,700,1141,9.0,2,1775.592,0,736626.685526,Aud,2016-10-23 15:57:00,8.0,36.0
Left,23_10_2016 level15_700_Robin 15_57 Left_T7,59,1,1780.886,0,4,-30,700,1141,9.0,4,1782.376,1,736626.685604,Aud,2016-10-23 15:57:00,8.0,36.0
Left,23_10_2016 level15_700_Robin 15_57 Left_T7,60,0,1793.6,0,6,30,700,1021,0.0,7,1795.203,0,736626.685752,Aud,2016-10-23 15:57:00,8.0,36.0
Left,23_10_2016 level15_700_Robin 15_57 Left_T7,61,1,1801.525,0,6,30,700,1021,0.0,8,1804.768,0,736626.685864,Aud,2016-10-23 15:57:00,8.0,36.0
Left,23_10_2016 level15_700_Robin 15_57 Left_T7,62,1,1814.782,0,6,30,700,1021,0.0,3,1816.313,0,736626.685997,Aud,2016-10-23 15:57:00,8.0,36.0
Left,23_10_2016 level15_700_Robin 15_57 Left_T7,63,1,1821.488,0,6,30,700,1021,0.0,8,1823.424,0,736626.68608,Aud,2016-10-23 15:57:00,8.0,36.0
Left,23_10_2016 level15_700_Robin 15_57 Left_T7,64,1,1864.011,0,6,30,700,1021,0.0,2,1872.002,0,736626.686642,Aud,2016-10-23 15:57:00,8.0,36.0
Left,23_10_2016 level15_700_Robin 15_57 Left_T7,65,1,1913.726,0,6,30,700,1021,0.0,2,1917.427,0,736626.687168,Aud,2016-10-23 15:57:00,8.0,36.0
Left,23_10_2016 level15_700_Robin 15_57 Left_T7,66,1,1925.034,0,6,30,700,1021,0.0,8,1927.944,0,736626.687289,Aud,2016-10-23 15:57:00,8.0,36.0
Left,23_10_2016 level15_700_Robin 15_57 Left_T7,67,1,1933.09,0,6,30,700,1021,0.0,8,1934.434,0,736626.687364,Aud,2016-10-23 15:57:00,8.0,36.0
Left,23_10_2016 level15_700_Robin 15_57 Left_T7,68,0,1945.299,0,6,30,700,1101,0.0,7,1947.135,0,736626.687511,Aud,2016-10-23 15:57:00,8.0,36.0
Left,23_10_2016 level15_700_Robin 15_57 Left_T7,69,1,1966.68,0,6,30,700,1101,0.0,6,1968.143,1,736626.687754,Aud,2016-10-23 15:57:00,8.0,36.0
Left,23_10_2016 level15_700_Robin 15_57 Left_T7,70,0,1990.183,0,2,-90,700,1181,9.0,3,1991.592,0,736626.688026,Aud,2016-10-23 15:57:00,8.0,36.0
Left,23_10_2016 level15_700_Robin 15_57 Left_T7,71,1,1996.929,1,2,-90,700,1181,9.0,2,2000.393,1,736626.688128,Aud,2016-10-23 15:57:00,7.9,36.0
Left,23_10_2016 level15_700_Robin 15_57 Left_T7,72,0,2010.385,0,8,90,700,1041,0.0,8,2012.137,1,736626.688263,Aud,2016-10-23 15:57:00,7.9,36.0
Left,23_10_2016 level15_700_Robin 15_57 Left_T7,73,0,2024.773,0,2,-90,700,1141,9.0,4,2026.191,0,736626.688427,Aud,2016-10-23 15:57:00,7.9,36.0
Left,23_10_2016 level15_700_Robin 15_57 Left_T7,74,1,2033.531,0,2,-90,700,1141,9.0,4,2035.009,0,736626.688528,Aud,2016-10-23 15:57:00,7.9,36.0
Left,23_10_2016 level15_700_Robin 15_57 Left_T7,75,1,2040.297,0,2,-90,700,1141,9.0,4,2042.741,0,736626.688618,Aud,2016-10-23 15:57:00,7.9,36.0
Left,23_10_2016 level15_700_Robin 15_57 Left_T7,76,1,2058.53,0,2,-90,700,1141,9.0,2,2062.867,1,736626.688851,Aud,2016-10-23 15:57:00,7.9,36.0
Left,23_10_2016 level15_700_Robin 15_57 Left_T7,77,0,2078.699,0,3,-60,700,1001,4.5,6,2080.241,0,736626.689052,Aud,2016-10-23 15:57:00,7.9,36.0
Left,23_10_2016 level15_700_Robin 15_57 Left_T7,78,1,2086.807,0,3,-60,700,1001,4.5,4,2088.58,0,736626.689149,Aud,2016-10-23 15:57:00,7.9,36.0
Left,23_10_2016 level15_700_Robin 15_57 Left_T7,79,1,2093.756,0,3,-60,700,1001,4.5,4,2095.093,0,736626.689224,Aud,2016-10-23 15:57:00,7.9,36.0
Left,23_10_2016 level15_700_Robin 15_57 Left_T7,80,1,2105.72,0,3,-60,700,1001,4.5,8,2109.146,0,736626.689386,Aud,2016-10-23 15:57:00,7.9,36.0
Left,23_10_2016 level15_700_Robin 15_57 Left_T7,81,1,2124.593,0,3,-60,700,1001,4.5,3,2128.65,1,736626.689612,Aud,2016-10-23 15:57:00,7.9,36.0
Left,23_10_2016 level15_700_Robin 15_57 Left_T7,82,0,2137.146,0,4,-30,700,1201,0.0,4,2138.365,1,736626.689725,Aud,2016-10-23 15:57:00,7.9,36.0
Left,23_10_2016 level15_700_Robin 15_57 Left_T7,83,0,2148.959,0,7,60,700,1021,4.5,8,2150.032,0,736626.689859,Aud,2016-10-23 15:57:00,7.9,36.0
Left,23_10_2016 level15_700_Robin 15_57 Left_T7,84,1,2161.642,0,7,60,700,1021,4.5,3,2165.39,0,736626.690037,Aud,2016-10-23 15:57:00,7.9,36.0
Left,23_10_2016 level15_700_Robin 15_57 Left_T7,85,1,2170.572,0,7,60,700,1021,4.5,8,2171.887,0,736626.690113,Aud,2016-10-23 15:57:00,7.9,36.0
Left,23_10_2016 level15_700_Robin 15_57 Left_T7,86,1,2177.5,0,7,60,700,1021,4.5,7,2181.714,1,736626.690227,Aud,2016-10-23 15:57:00,7.9,36.0
Left,23_10_2016 level15_700_Robin 15_57 Left_T7,87,0,2199.012,1,4,-30,700,1061,0.0,6,2202.972,0,736626.690473,Aud,2016-10-23 15:57:00,7.9,36.0
Left,23_10_2016 level15_700_Robin 15_57 Left_T7,88,1,2216.606,0,4,-30,700,1061,0.0,4,2220.024,1,736626.69067,Aud,2016-10-23 15:57:00,7.9,36.0
Left,23_10_2016 level15_700_Robin 15_57 Left_T7,89,0,2227.932,0,3,-60,700,1101,4.5,3,2229.22,1,736626.690776,Aud,2016-10-23 15:57:00,7.9,36.0
Left,23_10_2016 level15_700_Robin 15_57 Left_T7,90,0,2238.277,0,3,-60,700,1081,0.0,2,2240.205,0,736626.690903,Aud,2016-10-23 15:57:00,7.9,36.0
Left,23_10_2016 level15_700_Robin 15_57 Left_T7,91,1,2245.433,0,3,-60,700,1081,0.0,4,2246.705,0,736626.690979,Aud,2016-10-23 15:57:00,7.9,36.0
Left,23_10_2016 level15_700_Robin 15_57 Left_T7,92,1,2253.535,0,3,-60,700,1081,0.0,8,2255.125,0,736626.691076,Aud,2016-10-23 15:57:00,,
Left,23_10_2016 level15_700_Robin 15_57 Left_T7,93,1,2260.521,0,3,-60,700,1081,0.0,3,2261.997,1,736626.691156,Aud,2016-10-23 15:57:00,,
Left,23_10_2016 level15_700_Robin 15_57 Left_T7,94,0,2290.828,0,2,-90,700,1161,4.5,3,2292.787,0,736626.691512,Aud,2016-10-23 15:57:00,,
Left,23_10_2016 level15_700_Robin 15_57 Left_T7,95,1,2310.382,0,2,-90,700,1161,4.5,8,2314.271,0,736626.691761,Aud,2016-10-23 15:57:00,,
Left,23_10_2016 level15_700_Robin 15_57 Left_T7,96,1,2325.931,0,2,-90,700,1161,4.5,3,2327.183,0,736626.69191,Aud,2016-10-23 15:57:00,,
Left,23_10_2016 level15_700_Robin 15_57 Left_T7,97,1,2376.329,0,2,-90,700,1161,4.5,-1,-1.0,0,736626.692652,Aud,2016-10-23 15:57:00,,
Left,23_10_2016 level15_700_Robin 15_57 Left_T7,98,0,2396.605,0,8,90,700,1181,0.0,8,2401.5,1,736626.692771,Aud,2016-10-23 15:57:00,,
Left,24_10_2016 level15_700_Robin 15_53 Left_T16-20,16,1,1598.235,0,4,-30,700,1081,9.0,4,1601.075,1,736627.680793,Aud,2016-10-24 15:53:00,,
Left,24_10_2016 level15_700_Robin 15_53 Left_T16-20,17,0,1620.241,0,3,-60,700,1041,4.5,2,1621.865,0,736627.681034,Aud,2016-10-24 15:53:00,,
Left,24_10_2016 level15_700_Robin 15_53 Left_T16-20,18,1,1627.068,0,3,-60,700,1041,4.5,2,1629.802,0,736627.681125,Aud,2016-10-24 15:53:00,,
Left,24_10_2016 level15_700_Robin 15_53 Left_T16-20,19,1,1634.965,0,3,-60,700,1041,4.5,4,1636.922,0,736627.681207,Aud,2016-10-24 15:53:00,,
Left,24_10_2016 level15_700_Robin 15_53 Left_T16-20,20,1,1644.488,0,3,-60,700,1041,4.5,2,1651.787,0,736627.68138,,2016-10-24 15:53:00,,
Left,12_10_2016 level15_700_Robin 10_3 Left,1,0,226.094,1,8,90,700,1161,4.5,-1,-1.0,0,736615.421915,Aud,2016-10-12 10:03:00,,
Left,12_10_2016 level15_700_Robin 10_3 Left,2,0,247.915,0,7,60,700,1121,9.0,8,250.648,0,736615.422026,Aud,2016-10-12 10:03:00,,
Left,12_10_2016 level15_700_Robin 10_3 Left,3,1,255.955,0,7,60,700,1121,9.0,8,257.884,0,736615.422109,Aud,2016-10-12 10:03:00,11.0,37.0
Left,12_10_2016 level15_700_Robin 10_3 Left,4,1,264.02,0,7,60,700,1121,9.0,-1,-1.0,0,736615.422353,Aud,2016-10-12 10:03:00,11.0,37.0
Left,12_10_2016 level15_700_Robin 10_3 Left,5,0,287.411,0,3,-60,700,1081,0.0,-1,-1.0,0,736615.422625,Aud,2016-10-12 10:03:00,11.0,37.0
Left,12_10_2016 level15_700_Robin 10_3 Left,6,0,322.956,0,7,60,700,1041,4.5,2,331.49,0,736615.422961,Aud,2016-10-12 10:03:00,11.0,37.0
Left,12_10_2016 level15_700_Robin 10_3 Left,7,1,337.031,0,7,60,700,1041,4.5,2,343.239,0,736615.423098,Aud,2016-10-12 10:03:00,11.0,37.0
Left,12_10_2016 level15_700_Robin 10_3 Left,8,1,392.479,0,7,60,700,1041,4.5,3,407.514,0,736615.423841,Aud,2016-10-12 10:03:00,11.0,37.0
Left,12_10_2016 level15_700_Robin 10_3 Left,9,0,415.236,0,8,90,700,1021,0.0,8,418.535,1,736615.423969,Aud,2016-10-12 10:03:00,11.0,37.0
Left,12_10_2016 level15_700_Robin 10_3 Left,10,0,432.958,0,6,30,700,1201,4.5,7,434.694,0,736615.424156,Aud,2016-10-12 10:03:00,11.0,37.0
Left,12_10_2016 level15_700_Robin 10_3 Left,11,1,440.042,0,6,30,700,1201,4.5,8,441.623,0,736615.424235,Aud,2016-10-12 10:03:00,11.0,37.0
Left,12_10_2016 level15_700_Robin 10_3 Left,12,1,459.729,0,6,30,700,1201,4.5,2,468.032,0,736615.424541,Aud,2016-10-12 10:03:00,11.0,37.0
Left,12_10_2016 level15_700_Robin 10_3 Left,13,0,475.411,0,6,30,700,1101,9.0,2,482.777,0,736615.424712,Aud,2016-10-12 10:03:00,11.0,37.0
Left,12_10_2016 level15_700_Robin 10_3 Left,14,1,488.035,0,6,30,700,1101,9.0,7,489.914,0,736615.424795,Aud,2016-10-12 10:03:00,11.0,37.0
Left,12_10_2016 level15_700_Robin 10_3 Left,15,1,495.136,0,6,30,700,1101,9.0,8,509.341,0,736615.42502,Aud,2016-10-12 10:03:00,11.0,37.0
Left,12_10_2016 level15_700_Robin 10_3 Left,16,1,514.637,0,6,30,700,1101,9.0,7,516.308,0,736615.4251,Aud,2016-10-12 10:03:00,11.0,37.0
Left,12_10_2016 level15_700_Robin 10_3 Left,17,1,521.535,0,6,30,700,1101,9.0,4,524.52,0,736615.425195,Aud,2016-10-12 10:03:00,11.0,37.0
Left,12_10_2016 level15_700_Robin 10_3 Left,18,1,552.652,0,6,30,700,1101,9.0,-1,-1.0,0,736615.425695,Aud,2016-10-12 10:03:00,9.5,37.0
Left,12_10_2016 level15_700_Robin 10_3 Left,19,0,576.303,0,4,-30,700,1141,9.0,-1,-1.0,0,736615.425968,Aud,2016-10-12 10:03:00,9.5,37.0
Left,12_10_2016 level15_700_Robin 10_3 Left,20,0,598.603,0,4,-30,700,1061,0.0,3,606.245,0,736615.426141,Aud,2016-10-12 10:03:00,9.5,37.0
Left,12_10_2016 level15_700_Robin 10_3 Left,21,0,630.838,0,2,-90,700,1041,9.0,-1,-1.0,0,736615.4266,Aud,2016-10-12 10:03:00,9.5,37.0
Left,12_10_2016 level15_700_Robin 10_3 Left,22,0,647.451,0,3,-60,700,1141,0.0,4,649.771,0,736615.426645,Aud,2016-10-12 10:03:00,9.5,37.0
Left,12_10_2016 level15_700_Robin 10_3 Left,23,1,664.16,0,3,-60,700,1141,0.0,4,666.033,0,736615.426833,Aud,2016-10-12 10:03:00,9.5,37.0
Left,12_10_2016 level15_700_Robin 10_3 Left,24,1,679.672,0,3,-60,700,1141,0.0,4,681.287,0,736615.42701,Aud,2016-10-12 10:03:00,9.5,37.0
Left,12_10_2016 level15_700_Robin 10_3 Left,25,1,696.763,0,3,-60,700,1141,0.0,3,698.589,1,736615.42721,Aud,2016-10-12 10:03:00,9.5,37.0
Left,12_10_2016 level15_700_Robin 10_3 Left,26,0,709.009,0,7,60,700,1101,9.0,7,710.834,1,736615.427351,Aud,2016-10-12 10:03:00,9.5,37.0
Left,12_10_2016 level15_700_Robin 10_3 Left,27,0,719.364,0,3,-60,700,1121,4.5,4,720.956,0,736615.427469,Aud,2016-10-12 10:03:00,9.5,37.0
Left,12_10_2016 level15_700_Robin 10_3 Left,28,1,727.117,0,3,-60,700,1121,4.5,4,728.707,0,736615.427558,Aud,2016-10-12 10:03:00,9.5,37.0
Left,12_10_2016 level15_700_Robin 10_3 Left,29,1,733.965,0,3,-60,700,1121,4.5,4,738.168,0,736615.427668,Aud,2016-10-12 10:03:00,9.5,37.0
Left,12_10_2016 level15_700_Robin 10_3 Left,30,1,743.698,1,3,-60,700,1121,4.5,2,752.855,0,736615.427838,Aud,2016-10-12 10:03:00,9.5,37.0
Left,12_10_2016 level15_700_Robin 10_3 Left,31,1,765.491,0,3,-60,700,1121,4.5,2,769.267,0,736615.428028,Aud,2016-10-12 10:03:00,9.5,37.0
Left,12_10_2016 level15_700_Robin 10_3 Left,32,1,775.188,1,3,-60,700,1121,4.5,2,786.757,0,736615.428231,Aud,2016-10-12 10:03:00,9.5,37.0
Left,12_10_2016 level15_700_Robin 10_3 Left,33,1,795.103,1,3,-60,700,1121,4.5,-1,-1.0,0,736615.4285,Aud,2016-10-12 10:03:00,9.5,37.0
Left,12_10_2016 level15_700_Robin 10_3 Left,34,0,811.714,0,2,-90,700,1181,0.0,3,813.835,0,736615.428543,Aud,2016-10-12 10:03:00,8.9,37.0
Left,12_10_2016 level15_700_Robin 10_3 Left,35,0,906.642,0,2,-90,700,1201,0.0,-1,-1.0,0,736615.429792,Aud,2016-10-12 10:03:00,8.9,37.0
Left,12_10_2016 level15_700_Robin 10_3 Left,36,0,926.012,1,6,30,700,1021,4.5,-1,-1.0,0,736615.430015,Aud,2016-10-12 10:03:00,8.9,37.0
Left,12_10_2016 level15_700_Robin 10_3 Left,37,0,942.538,0,8,90,700,1161,0.0,8,944.758,1,736615.430059,Aud,2016-10-12 10:03:00,8.9,37.0
Left,12_10_2016 level15_700_Robin 10_3 Left,38,0,956.715,0,7,60,700,1001,9.0,8,960.772,0,736615.430245,Aud,2016-10-12 10:03:00,8.9,37.0
Left,12_10_2016 level15_700_Robin 10_3 Left,39,1,967.104,0,7,60,700,1001,9.0,2,971.506,0,736615.430369,Aud,2016-10-12 10:03:00,8.9,37.0
Left,12_10_2016 level15_700_Robin 10_3 Left,40,1,977.238,0,7,60,700,1001,9.0,2,979.686,0,736615.430464,Aud,2016-10-12 10:03:00,8.9,37.0
Left,12_10_2016 level15_700_Robin 10_3 Left,41,0,1082.521,0,6,30,700,1041,9.0,2,1094.263,0,736615.43179,Aud,2016-10-12 10:03:00,,
Left,26_10_2016 level15_700_Robin 10_22 Left_T23,23,1,1046.759,0,3,-60,700,1021,0.0,4,1048.23,0,736629.44411,Aud,2016-10-26 10:22:00,11.0,36.0
Left,26_10_2016 level15_700_Robin 10_22 Left_T23,24,1,1062.388,0,3,-60,700,1021,0.0,2,1069.334,0,736629.444354,Aud,2016-10-26 10:22:00,11.0,36.0
Left,26_10_2016 level15_700_Robin 10_22 Left_T23,25,1,1074.575,0,3,-60,700,1021,0.0,2,1076.812,0,736629.444441,Aud,2016-10-26 10:22:00,11.0,36.0
Left,26_10_2016 level15_700_Robin 10_22 Left_T23,26,0,1081.927,0,3,-60,700,1141,4.5,7,1083.875,0,736629.444523,Aud,2016-10-26 10:22:00,11.0,36.0
Left,26_10_2016 level15_700_Robin 10_22 Left_T23,27,1,1095.545,0,3,-60,700,1141,4.5,-1,-1.0,0,736629.444832,Aud,2016-10-26 10:22:00,11.0,36.0
Left,26_10_2016 level15_700_Robin 10_22 Left_T23,28,0,1115.481,1,4,-30,700,1201,0.0,3,1122.489,0,736629.44497,Aud,2016-10-26 10:22:00,11.0,36.0
Left,26_10_2016 level15_700_Robin 10_22 Left_T23,29,1,1134.956,0,4,-30,700,1201,0.0,6,1136.894,0,736629.445137,Aud,2016-10-26 10:22:00,11.0,36.0
Left,26_10_2016 level15_700_Robin 10_22 Left_T23,30,1,1145.296,0,4,-30,700,1201,0.0,4,1146.703,1,736629.44525,Aud,2016-10-26 10:22:00,11.0,36.0
Left,26_10_2016 level15_700_Robin 10_22 Left_T23,31,0,1164.869,0,4,-30,700,1061,9.0,6,1166.466,0,736629.445479,Aud,2016-10-26 10:22:00,11.0,36.0
Left,26_10_2016 level15_700_Robin 10_22 Left_T23,32,1,1171.702,0,4,-30,700,1061,9.0,2,1176.32,0,736629.445593,Aud,2016-10-26 10:22:00,11.0,36.0
Left,26_10_2016 level15_700_Robin 10_22 Left_T23,33,1,1181.848,0,4,-30,700,1061,9.0,3,1184.633,0,736629.445689,Aud,2016-10-26 10:22:00,11.0,36.0
Left,26_10_2016 level15_700_Robin 10_22 Left_T23,34,1,1189.817,0,4,-30,700,1061,9.0,8,1191.687,0,736629.445771,Aud,2016-10-26 10:22:00,10.1,36.0
Left,26_10_2016 level15_700_Robin 10_22 Left_T23,35,1,1205.153,0,4,-30,700,1061,9.0,8,1213.514,0,736629.446023,Aud,2016-10-26 10:22:00,10.1,36.0
Left,26_10_2016 level15_700_Robin 10_22 Left_T23,36,1,1219.645,0,4,-30,700,1061,9.0,2,1234.068,0,736629.446261,Aud,2016-10-26 10:22:00,10.1,36.0
Left,26_10_2016 level15_700_Robin 10_22 Left_T23,37,1,1252.334,0,4,-30,700,1061,9.0,8,1254.392,0,736629.446497,Aud,2016-10-26 10:22:00,10.1,36.0
Left,26_10_2016 level15_700_Robin 10_22 Left_T23,38,1,1274.832,0,4,-30,700,1061,9.0,3,1276.431,0,736629.446751,Aud,2016-10-26 10:22:00,10.1,36.0
Left,26_10_2016 level15_700_Robin 10_22 Left_T23,39,1,1281.605,0,4,-30,700,1061,9.0,6,1283.312,0,736629.446831,Aud,2016-10-26 10:22:00,10.1,36.0
Left,26_10_2016 level15_700_Robin 10_22 Left_T23,40,1,1306.946,0,4,-30,700,1061,9.0,4,1308.444,1,736629.447122,Aud,2016-10-26 10:22:00,9.5,36.0
Left,26_10_2016 level15_700_Robin 10_22 Left_T23,41,0,1319.327,0,6,30,700,1181,4.5,7,1320.78,0,736629.447265,Aud,2016-10-26 10:22:00,9.5,36.0
Left,26_10_2016 level15_700_Robin 10_22 Left_T23,42,1,1326.123,0,6,30,700,1181,4.5,8,1338.511,0,736629.44747,Aud,2016-10-26 10:22:00,9.5,36.0
Left,26_10_2016 level15_700_Robin 10_22 Left_T23,43,1,1353.927,0,6,30,700,1181,4.5,7,1356.693,0,736629.447681,Aud,2016-10-26 10:22:00,9.5,36.0
Left,26_10_2016 level15_700_Robin 10_22 Left_T23,44,1,1366.185,0,6,30,700,1181,4.5,8,1368.935,0,736629.447822,Aud,2016-10-26 10:22:00,9.5,36.0
Left,26_10_2016 level15_700_Robin 10_22 Left_T23,45,1,1384.609,0,6,30,700,1181,4.5,8,1386.48,0,736629.448025,Aud,2016-10-26 10:22:00,9.5,36.0
Left,26_10_2016 level15_700_Robin 10_22 Left_T23,46,1,1408.834,0,6,30,700,1181,4.5,6,1411.305,1,736629.448313,Aud,2016-10-26 10:22:00,9.5,36.0
Left,26_10_2016 level15_700_Robin 10_22 Left_T23,47,0,1419.918,0,8,90,700,1161,4.5,8,1421.47,1,736629.44843,Aud,2016-10-26 10:22:00,9.5,36.0
Left,26_10_2016 level15_700_Robin 10_22 Left_T23,48,0,1434.817,0,7,60,700,1121,9.0,8,1436.812,0,736629.448607,Aud,2016-10-26 10:22:00,9.5,36.0
Left,26_10_2016 level15_700_Robin 10_22 Left_T23,49,1,1448.126,0,7,60,700,1121,9.0,8,1449.586,0,736629.448756,Aud,2016-10-26 10:22:00,9.5,36.0
Left,26_10_2016 level15_700_Robin 10_22 Left_T23,50,1,1456.825,0,7,60,700,1121,9.0,8,1458.739,0,736629.448861,Aud,2016-10-26 10:22:00,9.5,36.0
Left,26_10_2016 level15_700_Robin 10_22 Left_T23,51,1,1478.84,0,7,60,700,1121,9.0,2,1481.54,0,736629.449125,Aud,2016-10-26 10:22:00,9.4,36.0
Left,26_10_2016 level15_700_Robin 10_22 Left_T23,52,1,1496.641,0,7,60,700,1121,9.0,7,1499.407,1,736629.449332,Aud,2016-10-26 10:22:00,9.4,36.0
Left,26_10_2016 level15_700_Robin 10_22 Left_T23,53,0,1514.189,0,7,60,700,1141,0.0,8,1515.594,0,736629.44952,Aud,2016-10-26 10:22:00,9.4,36.0
Left,26_10_2016 level15_700_Robin 10_22 Left_T23,54,1,1532.173,0,7,60,700,1141,0.0,8,1533.941,0,736629.449731,Aud,2016-10-26 10:22:00,9.4,36.0
Left,26_10_2016 level15_700_Robin 10_22 Left_T23,55,1,1545.013,0,7,60,700,1141,0.0,2,1554.053,0,736629.449965,Aud,2016-10-26 10:22:00,9.4,36.0
Left,26_10_2016 level15_700_Robin 10_22 Left_T23,56,1,1574.02,1,7,60,700,1141,0.0,7,1579.474,1,736629.450259,Aud,2016-10-26 10:22:00,9.4,36.0
Left,26_10_2016 level15_700_Robin 10_22 Left_T23,57,0,1599.621,0,3,-60,700,1061,4.5,2,1605.449,0,736629.45056,Aud,2016-10-26 10:22:00,9.4,36.0
Left,26_10_2016 level15_700_Robin 10_22 Left_T23,58,1,1615.977,0,3,-60,700,1061,4.5,2,1619.696,0,736629.450724,Aud,2016-10-26 10:22:00,9.4,36.0
Left,26_10_2016 level15_700_Robin 10_22 Left_T23,59,1,1632.212,0,3,-60,700,1061,4.5,8,1641.916,0,736629.450981,Aud,2016-10-26 10:22:00,9.4,36.0
Left,26_10_2016 level15_700_Robin 10_22 Left_T23,60,1,1647.607,1,3,-60,700,1061,4.5,3,1655.19,1,736629.451135,Aud,2016-10-26 10:22:00,10.2,36.0
Left,26_10_2016 level15_700_Robin 10_22 Left_T23,61,0,1665.913,0,4,-30,700,1001,9.0,4,1667.842,1,736629.451282,Aud,2016-10-26 10:22:00,10.2,36.0
Left,26_10_2016 level15_700_Robin 10_22 Left_T23,62,0,1677.072,0,8,90,700,1021,4.5,4,1667.842,0,736629.45139,Aud,2016-10-26 10:22:00,10.2,36.0
Left,26_10_2016 level15_700_Robin 10_22 Left_T23,63,1,1705.308,1,8,90,700,1021,4.5,7,1709.243,0,736629.451761,Aud,2016-10-26 10:22:00,10.2,36.0
Left,26_10_2016 level15_700_Robin 10_22 Left_T23,64,1,1716.681,1,8,90,700,1021,4.5,7,1722.076,0,736629.45191,Aud,2016-10-26 10:22:00,10.2,36.0
Left,26_10_2016 level15_700_Robin 10_22 Left_T23,65,1,1741.912,0,8,90,700,1021,4.5,2,1755.181,0,736629.452293,Aud,2016-10-26 10:22:00,10.2,36.0
Left,26_10_2016 level15_700_Robin 10_22 Left_T23,66,0,1769.707,0,2,-90,700,1101,0.0,3,1771.516,0,736629.452481,Aud,2016-10-26 10:22:00,10.2,36.0
Left,26_10_2016 level15_700_Robin 10_22 Left_T23,67,1,1776.74,1,2,-90,700,1101,0.0,2,1780.716,1,736629.452588,Aud,2016-10-26 10:22:00,10.2,36.0
Left,26_10_2016 level15_700_Robin 10_22 Left_T23,68,0,1790.411,0,8,90,700,1081,9.0,7,1791.874,0,736629.452717,Aud,2016-10-26 10:22:00,10.2,36.0
Left,26_10_2016 level15_700_Robin 10_22 Left_T23,69,1,1797.119,0,8,90,700,1081,9.0,8,1799.15,1,736629.452801,Aud,2016-10-26 10:22:00,10.2,36.0
Left,26_10_2016 level15_700_Robin 10_22 Left_T23,70,0,1810.018,0,7,60,700,1041,4.5,8,1811.873,0,736629.452949,Aud,2016-10-26 10:22:00,10.2,36.0
Left,26_10_2016 level15_700_Robin 10_22 Left_T23,71,1,1819.297,0,7,60,700,1041,4.5,7,1821.527,1,736629.45306,Aud,2016-10-26 10:22:00,10.0,36.0
Left,26_10_2016 level15_700_Robin 10_22 Left_T23,72,0,1836.759,0,3,-60,700,1201,0.0,3,1838.141,1,736629.453252,Aud,2016-10-26 10:22:00,10.0,36.0
Left,26_10_2016 level15_700_Robin 10_22 Left_T23,73,0,1849.611,0,2,-90,700,1201,4.5,2,1851.319,1,736629.453405,Aud,2016-10-26 10:22:00,10.0,36.0
Left,26_10_2016 level15_700_Robin 10_22 Left_T23,74,0,1864.172,0,6,30,700,1081,9.0,8,1873.549,0,736629.453662,Aud,2016-10-26 10:22:00,10.0,36.0
Left,26_10_2016 level15_700_Robin 10_22 Left_T23,75,1,1883.657,0,6,30,700,1081,9.0,2,1888.563,0,736629.453836,Aud,2016-10-26 10:22:00,10.0,36.0
Left,26_10_2016 level15_700_Robin 10_22 Left_T23,76,1,1893.83,0,6,30,700,1081,9.0,2,1896.689,0,736629.453931,Aud,2016-10-26 10:22:00,10.0,36.0
Left,26_10_2016 level15_700_Robin 10_22 Left_T23,77,1,1908.788,0,6,30,700,1081,9.0,7,1910.676,0,736629.454093,Aud,2016-10-26 10:22:00,10.0,36.0
Left,26_10_2016 level15_700_Robin 10_22 Left_T23,78,0,1925.822,0,6,30,700,1141,9.0,7,1927.348,0,736629.454285,Aud,2016-10-26 10:22:00,10.0,36.0
Left,26_10_2016 level15_700_Robin 10_22 Left_T23,79,1,1932.996,0,6,30,700,1141,9.0,3,1938.12,0,736629.45441,Aud,2016-10-26 10:22:00,10.0,36.0
Left,26_10_2016 level15_700_Robin 10_22 Left_T23,80,1,1945.325,0,6,30,700,1141,9.0,8,1947.168,0,736629.454515,Aud,2016-10-26 10:22:00,10.0,36.0
Left,26_10_2016 level15_700_Robin 10_22 Left_T23,81,1,1962.862,0,6,30,700,1141,9.0,8,1964.456,0,736629.454714,Aud,2016-10-26 10:22:00,10.0,36.0
Left,26_10_2016 level15_700_Robin 10_22 Left_T23,82,1,1978.923,0,6,30,700,1141,9.0,2,1983.14,0,736629.454931,Aud,2016-10-26 10:22:00,10.0,36.0
Left,26_10_2016 level15_700_Robin 10_22 Left_T23,83,1,1990.067,0,6,30,700,1141,9.0,7,1991.658,0,736629.45503,Aud,2016-10-26 10:22:00,10.0,36.0
Left,26_10_2016 level15_700_Robin 10_22 Left_T23,84,1,1997.238,0,6,30,700,1141,9.0,8,2009.216,0,736629.455233,Aud,2016-10-26 10:22:00,10.0,36.0
Left,26_10_2016 level15_700_Robin 10_22 Left_T23,85,1,2018.956,0,6,30,700,1141,9.0,3,2025.124,0,736629.455416,Aud,2016-10-26 10:22:00,10.0,36.0
Left,26_10_2016 level15_700_Robin 10_22 Left_T23,86,1,2033.879,0,6,30,700,1141,9.0,2,2039.956,0,736629.455589,Aud,2016-10-26 10:22:00,10.0,36.0
Left,26_10_2016 level15_700_Robin 10_22 Left_T23,87,1,2045.335,0,6,30,700,1141,9.0,2,2049.364,0,736629.455698,Aud,2016-10-26 10:22:00,,
Left,26_10_2016 level15_700_Robin 10_22 Left_T23,88,0,2056.336,0,4,-30,700,1121,0.0,4,2058.28,1,736629.455801,Aud,2016-10-26 10:22:00,,
Left,26_10_2016 level15_700_Robin 10_22 Left_T23,89,0,2067.147,0,3,-60,700,1101,9.0,2,2069.523,0,736629.45593,Aud,2016-10-26 10:22:00,,
Left,26_10_2016 level15_700_Robin 10_22 Left_T23,90,1,2094.623,0,3,-60,700,1101,9.0,2,2096.176,0,736629.456239,Aud,2016-10-26 10:22:00,,
Left,26_10_2016 level15_700_Robin 10_22 Left_T23,91,1,2101.444,0,3,-60,700,1101,9.0,2,2106.512,0,736629.456359,Aud,2016-10-26 10:22:00,,
Left,26_10_2016 level15_700_Robin 10_22 Left_T23,92,1,2113.083,0,3,-60,700,1101,9.0,4,2115.189,0,736629.45646,Aud,2016-10-26 10:22:00,,
Left,26_10_2016 level15_700_Robin 10_22 Left_T23,93,1,2120.45,0,3,-60,700,1101,9.0,3,2122.119,1,736629.45654,Aud,2016-10-26 10:22:00,,
Left,26_10_2016 level15_700_Robin 10_22 Left_T23,94,0,2129.6,0,4,-30,700,1041,4.5,3,2131.28,0,736629.456646,Aud,2016-10-26 10:22:00,,
Left,26_10_2016 level15_700_Robin 10_22 Left_T23,95,1,2164.914,0,4,-30,700,1041,4.5,2,2168.32,0,736629.457074,Aud,2016-10-26 10:22:00,,
Left,26_10_2016 level15_700_Robin 10_22 Left_T23,96,1,2174.758,0,4,-30,700,1041,4.5,2,2182.446,0,736629.457237,Aud,2016-10-26 10:22:00,,
Left,26_10_2016 level15_700_Robin 10_22 Left_T23,97,1,2193.26,0,4,-30,700,1041,4.5,4,2196.553,1,736629.4574,Aud,2016-10-26 10:22:00,,
Left,26_10_2016 level15_700_Robin 10_22 Left_T23,98,0,2204.965,0,7,60,700,1061,4.5,8,2206.682,0,736629.457518,Aud,2016-10-26 10:22:00,,
Left,26_10_2016 level15_700_Robin 10_22 Left_T23,99,1,2217.087,0,7,60,700,1061,4.5,8,2222.796,0,736629.457705,Aud,2016-10-26 10:22:00,,
Left,26_10_2016 level15_700_Robin 10_22 Left_T23,100,1,2233.308,0,7,60,700,1061,4.5,8,2238.942,0,736629.457891,Aud,2016-10-26 10:22:00,,
Left,26_10_2016 level15_700_Robin 10_22 Left_T23,101,1,2245.276,0,7,60,700,1061,4.5,8,2254.711,0,736629.458074,Aud,2016-10-26 10:22:00,,
Left,26_10_2016 level15_700_Robin 10_22 Left_T23,102,1,2259.905,0,7,60,700,1061,4.5,2,2263.272,0,736629.458174,Aud,2016-10-26 10:22:00,,
Left,26_10_2016 level15_700_Robin 10_22 Left_T23,103,1,2268.709,0,7,60,700,1061,4.5,-1,-1.0,0,736629.458409,Aud,2016-10-26 10:22:00,,
Left,26_10_2016 level15_700_Robin 10_22 Left_T23,104,0,2285.269,0,2,-90,700,1161,0.0,3,2287.071,0,736629.458449,Aud,2016-10-26 10:22:00,,
Left,26_10_2016 level15_700_Robin 10_22 Left_T23,105,1,2292.666,0,2,-90,700,1161,0.0,2,2294.854,1,736629.458538,Aud,2016-10-26 10:22:00,,
Left,26_10_2016 level15_700_Robin 10_22 Left_T23,106,0,2302.617,0,3,-60,700,1181,9.0,8,2303.839,0,736629.458643,Aud,2016-10-26 10:22:00,,
Left,26_10_2016 level15_700_Robin 10_22 Left_T23,107,1,2319.974,0,3,-60,700,1181,9.0,2,2325.15,0,736629.458889,Aud,2016-10-26 10:22:00,,
Left,26_10_2016 level15_700_Robin 10_22 Left_T23,108,1,2344.702,0,3,-60,700,1181,9.0,4,2346.076,0,736629.459132,Aud,2016-10-26 10:22:00,,
Left,26_10_2016 level15_700_Robin 10_22 Left_T23,109,0,2363.444,0,6,30,700,1021,4.5,2,2377.671,0,736629.459497,Aud,2016-10-26 10:22:00,,
Right,11_10_2016 level15_700_Robin 8_32 RCool01,2,1,119.852,0,6,30,700,1201,4.5,2,124.91,0,736614.35735,Aud,2016-10-11 08:32:00,37.0,8.0
Right,11_10_2016 level15_700_Robin 8_32 RCool01,3,0,178.278,0,3,-60,700,1041,9.0,4,187.418,0,736614.358074,Aud,2016-10-11 08:32:00,37.0,8.0
Right,11_10_2016 level15_700_Robin 8_32 RCool01,4,1,199.651,1,3,-60,700,1041,9.0,3,206.131,1,736614.35829,Aud,2016-10-11 08:32:00,37.0,8.0
Right,11_10_2016 level15_700_Robin 8_32 RCool01,5,0,214.694,0,8,90,700,1001,0.0,7,216.775,0,736614.358413,Aud,2016-10-11 08:32:00,37.0,8.0
Right,11_10_2016 level15_700_Robin 8_32 RCool01,6,1,239.896,1,8,90,700,1001,0.0,4,249.012,0,736614.358786,Aud,2016-10-11 08:32:00,37.0,8.0
Right,11_10_2016 level15_700_Robin 8_32 RCool01,7,1,256.45,0,8,90,700,1001,0.0,7,258.716,0,736614.358899,Aud,2016-10-11 08:32:00,37.0,8.0
Right,11_10_2016 level15_700_Robin 8_32 RCool01,8,0,268.872,0,3,-60,700,1101,9.0,4,270.39,0,736614.359033,Aud,2016-10-11 08:32:00,37.0,8.0
Right,11_10_2016 level15_700_Robin 8_32 RCool01,9,1,278.885,0,3,-60,700,1101,9.0,4,280.75,0,736614.359153,Aud,2016-10-11 08:32:00,37.0,8.0
Right,11_10_2016 level15_700_Robin 8_32 RCool01,10,1,289.293,0,3,-60,700,1101,9.0,3,291.151,1,736614.359274,Aud,2016-10-11 08:32:00,37.0,8.0
Right,11_10_2016 level15_700_Robin 8_32 RCool01,11,0,299.815,1,7,60,700,1121,4.5,2,307.728,0,736614.359466,Aud,2016-10-11 08:32:00,37.0,8.3
Right,11_10_2016 level15_700_Robin 8_32 RCool01,12,1,316.228,0,7,60,700,1121,4.5,3,321.654,0,736614.359627,Aud,2016-10-11 08:32:00,37.0,8.3
Right,11_10_2016 level15_700_Robin 8_32 RCool01,13,1,326.914,1,7,60,700,1121,4.5,4,336.819,0,736614.359803,Aud,2016-10-11 08:32:00,37.0,8.3
Right,11_10_2016 level15_700_Robin 8_32 RCool01,14,1,342.114,0,7,60,700,1121,4.5,7,343.949,1,736614.359885,Aud,2016-10-11 08:32:00,37.0,8.3
Right,11_10_2016 level15_700_Robin 8_32 RCool01,15,0,365.981,0,4,-30,700,1061,9.0,3,367.344,0,736614.360156,Aud,2016-10-11 08:32:00,37.0,8.3
Right,11_10_2016 level15_700_Robin 8_32 RCool01,16,1,374.748,0,4,-30,700,1061,9.0,3,376.294,0,736614.360259,Aud,2016-10-11 08:32:00,37.0,8.3
Right,11_10_2016 level15_700_Robin 8_32 RCool01,17,1,384.399,0,4,-30,700,1061,9.0,3,385.837,0,736614.36037,Aud,2016-10-11 08:32:00,37.0,8.3
Right,11_10_2016 level15_700_Robin 8_32 RCool01,18,1,393.224,0,4,-30,700,1061,9.0,4,395.731,1,736614.360484,Aud,2016-10-11 08:32:00,37.0,8.3
Right,11_10_2016 level15_700_Robin 8_32 RCool01,19,0,408.819,0,2,-90,700,1081,0.0,2,410.366,1,736614.360653,Aud,2016-10-11 08:32:00,37.0,8.3
Right,11_10_2016 level15_700_Robin 8_32 RCool01,20,0,423.193,0,4,-30,700,1181,4.5,2,424.78,0,736614.36082,Aud,2016-10-11 08:32:00,37.0,8.3
Right,11_10_2016 level15_700_Robin 8_32 RCool01,21,1,430.075,0,4,-30,700,1181,4.5,2,433.367,0,736614.360919,Aud,2016-10-11 08:32:00,37.0,8.3
Right,11_10_2016 level15_700_Robin 8_32 RCool01,22,1,440.424,0,4,-30,700,1181,4.5,3,441.728,0,736614.361017,Aud,2016-10-11 08:32:00,37.0,8.3
Right,11_10_2016 level15_700_Robin 8_32 RCool01,23,1,447.692,0,4,-30,700,1181,4.5,7,449.812,0,736614.361111,Aud,2016-10-11 08:32:00,37.0,8.3
Right,11_10_2016 level15_700_Robin 8_32 RCool01,24,1,458.438,0,4,-30,700,1181,4.5,3,469.299,0,736614.361336,Aud,2016-10-11 08:32:00,37.0,8.3
Right,11_10_2016 level15_700_Robin 8_32 RCool01,25,0,483.678,0,7,60,700,1021,9.0,7,486.774,1,736614.361538,Aud,2016-10-11 08:32:00,37.0,8.3
Right,11_10_2016 level15_700_Robin 8_32 RCool01,26,0,508.31,0,8,90,700,1161,4.5,6,510.227,0,736614.36181,Aud,2016-10-11 08:32:00,37.0,8.3
Right,11_10_2016 level15_700_Robin 8_32 RCool01,27,1,515.707,0,8,90,700,1161,4.5,8,517.498,1,736614.361893,Aud,2016-10-11 08:32:00,37.0,8.3
Right,11_10_2016 level15_700_Robin 8_32 RCool01,28,0,534.995,0,6,30,700,1161,4.5,8,536.783,0,736614.362116,Aud,2016-10-11 08:32:00,37.0,8.3
Right,11_10_2016 level15_700_Robin 8_32 RCool01,29,1,554.381,0,6,30,700,1161,4.5,7,556.178,0,736614.362341,Aud,2016-10-11 08:32:00,37.0,8.3
Right,11_10_2016 level15_700_Robin 8_32 RCool01,30,1,566.559,0,6,30,700,1161,4.5,3,581.603,0,736614.362635,Aud,2016-10-11 08:32:00,37.0,8.3
Right,11_10_2016 level15_700_Robin 8_32 RCool01,31,0,586.048,0,2,-90,700,1001,0.0,2,587.73,1,736614.362707,Aud,2016-10-11 08:32:00,37.0,8.3
Right,11_10_2016 level15_700_Robin 8_32 RCool01,32,0,599.594,1,3,-60,700,1141,4.5,2,606.58,0,736614.362924,Aud,2016-10-11 08:32:00,37.0,8.3
Right,11_10_2016 level15_700_Robin 8_32 RCool01,33,1,611.837,0,3,-60,700,1141,4.5,2,613.534,0,736614.363005,Aud,2016-10-11 08:32:00,37.0,8.3
Right,11_10_2016 level15_700_Robin 8_32 RCool01,34,1,621.108,0,3,-60,700,1141,4.5,3,622.472,1,736614.363108,Aud,2016-10-11 08:32:00,37.0,8.3
Right,11_10_2016 level15_700_Robin 8_32 RCool01,35,0,629.803,0,4,-30,700,1021,9.0,4,631.615,1,736614.363215,Aud,2016-10-11 08:32:00,37.0,8.3
Right,11_10_2016 level15_700_Robin 8_32 RCool01,36,0,642.579,0,6,30,700,1181,0.0,6,644.093,1,736614.363358,Aud,2016-10-11 08:32:00,37.0,8.3
Right,11_10_2016 level15_700_Robin 8_32 RCool01,37,0,656.001,0,2,-90,700,1081,4.5,3,657.2,0,736614.363511,Aud,2016-10-11 08:32:00,37.0,8.3
Right,11_10_2016 level15_700_Robin 8_32 RCool01,38,1,662.478,0,2,-90,700,1081,4.5,3,663.846,0,736614.363587,Aud,2016-10-11 08:32:00,37.0,8.3
Right,11_10_2016 level15_700_Robin 8_32 RCool01,39,1,669.361,0,2,-90,700,1081,4.5,2,671.094,1,736614.363671,Aud,2016-10-11 08:32:00,37.0,8.3
Right,11_10_2016 level15_700_Robin 8_32 RCool01,40,0,682.724,0,7,60,700,1201,4.5,6,683.982,0,736614.36382,Aud,2016-10-11 08:32:00,37.0,8.3
Right,11_10_2016 level15_700_Robin 8_32 RCool01,41,1,689.298,0,7,60,700,1201,4.5,8,690.731,0,736614.363899,Aud,2016-10-11 08:32:00,37.0,8.3
Right,11_10_2016 level15_700_Robin 8_32 RCool01,42,1,696.659,1,7,60,700,1201,4.5,3,702.384,0,736614.364033,Aud,2016-10-11 08:32:00,37.0,8.3
Right,11_10_2016 level15_700_Robin 8_32 RCool01,43,1,707.699,0,7,60,700,1201,4.5,7,709.209,1,736614.364113,Aud,2016-10-11 08:32:00,37.0,7.7
Right,11_10_2016 level15_700_Robin 8_32 RCool01,44,0,725.791,0,3,-60,700,1041,0.0,3,727.272,1,736614.364321,Aud,2016-10-11 08:32:00,37.0,7.7
Right,11_10_2016 level15_700_Robin 8_32 RCool01,45,0,736.448,1,7,60,700,1101,9.0,3,741.454,0,736614.364485,Aud,2016-10-11 08:32:00,37.0,7.7
Right,11_10_2016 level15_700_Robin 8_32 RCool01,46,1,746.699,0,7,60,700,1101,9.0,6,748.488,0,736614.364566,Aud,2016-10-11 08:32:00,37.0,7.7
Right,11_10_2016 level15_700_Robin 8_32 RCool01,47,1,754.578,0,7,60,700,1101,9.0,7,756.512,1,736614.36466,Aud,2016-10-11 08:32:00,37.0,7.7
Right,11_10_2016 level15_700_Robin 8_32 RCool01,48,0,769.664,0,2,-90,700,1061,4.5,3,771.163,0,736614.364829,Aud,2016-10-11 08:32:00,37.0,7.7
Right,11_10_2016 level15_700_Robin 8_32 RCool01,49,1,776.36,0,2,-90,700,1061,4.5,2,777.645,1,736614.364904,Aud,2016-10-11 08:32:00,37.0,7.7
Right,11_10_2016 level15_700_Robin 8_32 RCool01,50,0,790.088,0,8,90,700,1081,9.0,6,791.504,0,736614.365065,Aud,2016-10-11 08:32:00,37.0,7.7
Right,11_10_2016 level15_700_Robin 8_32 RCool01,51,1,797.827,0,8,90,700,1081,9.0,7,801.565,0,736614.365181,Aud,2016-10-11 08:32:00,37.0,7.7
Right,11_10_2016 level15_700_Robin 8_32 RCool01,52,1,806.779,0,8,90,700,1081,9.0,8,808.353,1,736614.36526,Aud,2016-10-11 08:32:00,37.0,7.7
Right,11_10_2016 level15_700_Robin 8_32 RCool01,53,0,825.347,0,4,-30,700,1101,0.0,3,826.447,0,736614.365469,Aud,2016-10-11 08:32:00,37.0,7.7
Right,11_10_2016 level15_700_Robin 8_32 RCool01,54,1,831.699,1,4,-30,700,1101,0.0,4,836.372,1,736614.365584,Aud,2016-10-11 08:32:00,37.0,7.7
Right,11_10_2016 level15_700_Robin 8_32 RCool01,55,0,848.845,0,6,30,700,1041,0.0,4,851.492,0,736614.365759,Aud,2016-10-11 08:32:00,37.0,7.7
Right,11_10_2016 level15_700_Robin 8_32 RCool01,56,1,856.643,0,6,30,700,1041,0.0,6,859.425,1,736614.365851,Aud,2016-10-11 08:32:00,37.0,7.7
Right,11_10_2016 level15_700_Robin 8_32 RCool01,57,0,868.855,1,8,90,700,1201,4.5,2,874.652,0,736614.366027,Aud,2016-10-11 08:32:00,37.0,7.7
Right,11_10_2016 level15_700_Robin 8_32 RCool01,58,1,880.001,0,8,90,700,1201,4.5,4,883.436,0,736614.366129,Aud,2016-10-11 08:32:00,37.0,7.7
Right,11_10_2016 level15_700_Robin 8_32 RCool01,59,1,888.8,0,8,90,700,1201,4.5,8,890.703,1,736614.366213,Aud,2016-10-11 08:32:00,37.0,7.7
Right,11_10_2016 level15_700_Robin 8_32 RCool01,60,0,905.367,0,2,-90,700,1001,4.5,2,907.369,1,736614.366406,Aud,2016-10-11 08:32:00,37.0,7.7
Right,11_10_2016 level15_700_Robin 8_32 RCool01,61,0,918.105,0,7,60,700,1181,9.0,6,919.461,0,736614.366546,Aud,2016-10-11 08:32:00,37.0,7.7
Right,11_10_2016 level15_700_Robin 8_32 RCool01,62,1,925.219,0,7,60,700,1181,9.0,7,926.799,1,736614.36663,Aud,2016-10-11 08:32:00,37.0,7.7
Right,11_10_2016 level15_700_Robin 8_32 RCool01,63,0,941.43,0,2,-90,700,1061,0.0,2,942.808,1,736614.366816,Aud,2016-10-11 08:32:00,37.0,7.7
Right,11_10_2016 level15_700_Robin 8_32 RCool01,64,0,956.031,0,8,90,700,1121,9.0,7,957.487,0,736614.366985,Aud,2016-10-11 08:32:00,37.0,7.7
Right,11_10_2016 level15_700_Robin 8_32 RCool01,65,1,963.167,0,8,90,700,1121,9.0,8,965.895,1,736614.367083,Aud,2016-10-11 08:32:00,37.0,7.7
Right,11_10_2016 level15_700_Robin 8_32 RCool01,66,0,979.69,1,6,30,700,1161,4.5,7,985.254,0,736614.367307,Aud,2016-10-11 08:32:00,37.0,7.7
Right,11_10_2016 level15_700_Robin 8_32 RCool01,67,1,991.692,1,6,30,700,1161,4.5,8,999.958,0,736614.367477,Aud,2016-10-11 08:32:00,37.0,7.7
Right,11_10_2016 level15_700_Robin 8_32 RCool01,68,1,1008.938,0,6,30,700,1161,4.5,7,1015.022,0,736614.367652,Aud,2016-10-11 08:32:00,37.0,7.7
Right,11_10_2016 level15_700_Robin 8_32 RCool01,69,1,1020.362,0,6,30,700,1161,4.5,8,1022.261,0,736614.367735,Aud,2016-10-11 08:32:00,37.0,7.7
Right,11_10_2016 level15_700_Robin 8_32 RCool01,70,1,1027.562,0,6,30,700,1161,4.5,7,1029.721,0,736614.367822,Aud,2016-10-11 08:32:00,37.0,7.7
Right,11_10_2016 level15_700_Robin 8_32 RCool01,71,0,1033.603,0,3,-60,700,1141,9.0,3,1037.274,1,736614.367909,Aud,2016-10-11 08:32:00,37.0,7.7
Right,11_10_2016 level15_700_Robin 8_32 RCool01,72,0,1045.517,0,4,-30,700,1041,9.0,4,1047.469,1,736614.368027,Aud,2016-10-11 08:32:00,37.0,7.4
Right,11_10_2016 level15_700_Robin 8_32 RCool01,73,0,1058.722,0,8,90,700,1121,0.0,7,1060.656,0,736614.36818,Aud,2016-10-11 08:32:00,37.0,7.4
Right,11_10_2016 level15_700_Robin 8_32 RCool01,74,1,1065.923,0,8,90,700,1121,0.0,7,1067.513,0,736614.36826,Aud,2016-10-11 08:32:00,37.0,7.4
Right,11_10_2016 level15_700_Robin 8_32 RCool01,75,0,1078.768,0,4,-30,700,1061,4.5,3,1080.046,0,736614.368405,Aud,2016-10-11 08:32:00,37.0,7.4
Right,11_10_2016 level15_700_Robin 8_32 RCool01,76,1,1086.374,0,4,-30,700,1061,4.5,3,1087.957,0,736614.368496,Aud,2016-10-11 08:32:00,37.0,7.4
Right,11_10_2016 level15_700_Robin 8_32 RCool01,77,1,1093.164,0,4,-30,700,1061,4.5,4,1094.777,1,736614.368575,Aud,2016-10-11 08:32:00,37.0,7.4
Right,11_10_2016 level15_700_Robin 8_32 RCool01,78,0,1104.487,0,7,60,700,1081,9.0,4,1109.137,0,736614.368741,Aud,2016-10-11 08:32:00,37.0,7.4
Right,11_10_2016 level15_700_Robin 8_32 RCool01,79,1,1114.397,0,7,60,700,1081,9.0,6,1115.781,0,736614.368818,Aud,2016-10-11 08:32:00,37.0,7.4
Right,11_10_2016 level15_700_Robin 8_32 RCool01,80,1,1123.392,0,7,60,700,1081,9.0,2,1128.937,0,736614.36897,Aud,2016-10-11 08:32:00,37.0,7.4
Right,11_10_2016 level15_700_Robin 8_32 RCool01,81,1,1134.183,0,7,60,700,1081,9.0,7,1136.069,1,736614.369053,Aud,2016-10-11 08:32:00,37.0,7.4
Right,11_10_2016 level15_700_Robin 8_32 RCool01,82,0,1150.46,0,6,30,700,1021,9.0,4,1152.003,0,736614.369238,Aud,2016-10-11 08:32:00,37.0,7.4
Right,11_10_2016 level15_700_Robin 8_32 RCool01,83,1,1157.14,0,6,30,700,1021,9.0,7,1159.258,0,736614.369321,Aud,2016-10-11 08:32:00,37.0,7.4
Right,11_10_2016 level15_700_Robin 8_32 RCool01,84,1,1164.423,1,6,30,700,1021,9.0,7,1169.225,0,736614.369437,Aud,2016-10-11 08:32:00,37.0,7.4
Right,11_10_2016 level15_700_Robin 8_32 RCool01,85,1,1195.592,0,6,30,700,1021,9.0,6,1199.867,1,736614.369791,Aud,2016-10-11 08:32:00,37.0,7.4
Right,11_10_2016 level15_700_Robin 8_32 RCool01,86,0,1209.183,0,3,-60,700,1001,4.5,3,1210.645,1,736614.369916,Aud,2016-10-11 08:32:00,37.0,7.4
Right,11_10_2016 level15_700_Robin 8_32 RCool01,87,0,1219.23,0,6,30,700,1201,9.0,3,1220.476,0,736614.370029,Aud,2016-10-11 08:32:00,37.0,7.4
Right,11_10_2016 level15_700_Robin 8_32 RCool01,88,1,1225.804,0,6,30,700,1201,9.0,7,1227.417,0,736614.37011,Aud,2016-10-11 08:32:00,37.0,7.4
Right,11_10_2016 level15_700_Robin 8_32 RCool01,89,1,1232.813,0,6,30,700,1201,9.0,6,1234.301,1,736614.370189,Aud,2016-10-11 08:32:00,37.0,7.4
Right,11_10_2016 level15_700_Robin 8_32 RCool01,90,0,1243.625,0,3,-60,700,1101,4.5,3,1244.956,1,736614.370313,Aud,2016-10-11 08:32:00,37.0,7.4
Right,11_10_2016 level15_700_Robin 8_32 RCool01,91,0,1252.487,0,2,-90,700,1181,9.0,2,1254.118,1,736614.370419,Aud,2016-10-11 08:32:00,37.0,7.4
Right,11_10_2016 level15_700_Robin 8_32 RCool01,92,0,1266.139,0,7,60,700,1161,0.0,7,1267.454,1,736614.370573,Aud,2016-10-11 08:32:00,37.0,7.4
Right,11_10_2016 level15_700_Robin 8_32 RCool01,93,0,1276.027,0,3,-60,700,1161,9.0,2,1277.854,0,736614.370694,Aud,2016-10-11 08:32:00,37.0,7.4
Right,11_10_2016 level15_700_Robin 8_32 RCool01,94,1,1283.166,0,3,-60,700,1161,9.0,2,1284.868,0,736614.370775,Aud,2016-10-11 08:32:00,37.0,7.4
Right,11_10_2016 level15_700_Robin 8_32 RCool01,95,1,1290.166,0,3,-60,700,1161,9.0,3,1291.54,1,736614.370852,Aud,2016-10-11 08:32:00,37.0,7.4
Right,11_10_2016 level15_700_Robin 8_32 RCool01,96,0,1299.829,0,8,90,700,1181,4.5,8,1301.805,1,736614.37097,Aud,2016-10-11 08:32:00,37.0,7.4
Right,11_10_2016 level15_700_Robin 8_32 RCool01,97,0,1317.183,0,4,-30,700,1141,4.5,3,1318.353,0,736614.371163,Aud,2016-10-11 08:32:00,37.0,7.4
Right,11_10_2016 level15_700_Robin 8_32 RCool01,98,1,1323.645,0,4,-30,700,1141,4.5,4,1325.348,1,736614.371244,Aud,2016-10-11 08:32:00,37.0,7.4
Right,11_10_2016 level15_700_Robin 8_32 RCool01,99,0,1335.022,0,4,-30,700,1201,0.0,3,1336.261,0,736614.37137,Aud,2016-10-11 08:32:00,37.0,7.4
Right,11_10_2016 level15_700_Robin 8_32 RCool01,100,1,1341.605,0,4,-30,700,1201,0.0,4,1342.847,1,736614.371446,Aud,2016-10-11 08:32:00,37.0,7.4
Right,11_10_2016 level15_700_Robin 8_32 RCool01,101,0,1352.705,0,6,30,700,1041,0.0,6,1359.466,1,736614.371638,Aud,2016-10-11 08:32:00,37.0,7.4
Right,11_10_2016 level15_700_Robin 8_32 RCool01,102,0,1370.152,1,2,-90,700,1001,4.5,2,1375.326,1,736614.371822,Aud,2016-10-11 08:32:00,37.0,7.3
Right,11_10_2016 level15_700_Robin 8_32 RCool01,103,0,1387.65,0,7,60,700,1061,4.5,6,1389.522,0,736614.371987,Aud,2016-10-11 08:32:00,37.0,7.3
Right,11_10_2016 level15_700_Robin 8_32 RCool01,104,1,1395.084,1,7,60,700,1061,4.5,7,1401.909,1,736614.37213,Aud,2016-10-11 08:32:00,37.0,7.3
Right,11_10_2016 level15_700_Robin 8_32 RCool01,105,0,1415.341,0,8,90,700,1081,9.0,7,1417.115,0,736614.372305,Aud,2016-10-11 08:32:00,37.0,7.3
Right,11_10_2016 level15_700_Robin 8_32 RCool01,106,1,1422.387,0,8,90,700,1081,9.0,8,1424.3,1,736614.372388,Aud,2016-10-11 08:32:00,37.0,7.3
Right,11_10_2016 level15_700_Robin 8_32 RCool01,107,0,1436.885,0,4,-30,700,1101,9.0,4,1438.449,1,736614.372553,Aud,2016-10-11 08:32:00,37.0,7.3
Right,11_10_2016 level15_700_Robin 8_32 RCool01,108,0,1447.629,0,3,-60,700,1121,4.5,2,1449.063,0,736614.372675,Aud,2016-10-11 08:32:00,37.0,7.3
Right,11_10_2016 level15_700_Robin 8_32 RCool01,109,1,1454.327,0,3,-60,700,1121,4.5,3,1455.614,1,736614.372752,Aud,2016-10-11 08:32:00,37.0,7.3
Right,11_10_2016 level15_700_Robin 8_32 RCool01,110,0,1462.98,0,4,-30,700,1061,4.5,4,1464.715,1,736614.372856,Aud,2016-10-11 08:32:00,37.0,7.3
Right,11_10_2016 level15_700_Robin 8_32 RCool01,111,0,1473.478,1,8,90,700,1201,0.0,7,1478.634,0,736614.373018,Aud,2016-10-11 08:32:00,37.0,7.3
Right,11_10_2016 level15_700_Robin 8_32 RCool01,112,1,1495.868,0,8,90,700,1201,0.0,6,1497.755,0,736614.373239,Aud,2016-10-11 08:32:00,37.0,7.3
Right,11_10_2016 level15_700_Robin 8_32 RCool01,113,1,1504.447,0,8,90,700,1201,0.0,8,1506.752,1,736614.373343,Aud,2016-10-11 08:32:00,37.0,7.3
Right,11_10_2016 level15_700_Robin 8_32 RCool01,114,0,1518.845,0,3,-60,700,1081,9.0,3,1520.273,1,736614.373499,Aud,2016-10-11 08:32:00,37.0,7.3
Right,11_10_2016 level15_700_Robin 8_32 RCool01,115,0,1528.33,0,6,30,700,1101,0.0,6,1529.984,1,736614.373612,Aud,2016-10-11 08:32:00,37.0,7.3
Right,11_10_2016 level15_700_Robin 8_32 RCool01,116,0,1540.746,0,7,60,700,1161,0.0,6,1542.535,0,736614.373757,Aud,2016-10-11 08:32:00,37.0,7.3
Right,11_10_2016 level15_700_Robin 8_32 RCool01,117,1,1548.398,0,7,60,700,1161,0.0,7,1549.753,1,736614.373841,Aud,2016-10-11 08:32:00,37.0,7.3
Right,11_10_2016 level15_700_Robin 8_32 RCool01,118,0,1554.459,0,2,-90,700,1001,9.0,3,1555.943,0,736614.373913,Aud,2016-10-11 08:32:00,37.0,7.3
Right,11_10_2016 level15_700_Robin 8_32 RCool01,119,1,1569.888,0,2,-90,700,1001,9.0,3,1574.249,0,736614.374124,Aud,2016-10-11 08:32:00,37.0,7.3
Right,11_10_2016 level15_700_Robin 8_32 RCool01,120,1,1585.143,0,2,-90,700,1001,9.0,3,1588.919,0,736614.374294,Aud,2016-10-11 08:32:00,37.0,7.3
Right,11_10_2016 level15_700_Robin 8_32 RCool01,121,1,1594.109,1,2,-90,700,1001,9.0,3,1598.423,0,736614.374404,Aud,2016-10-11 08:32:00,,
Right,11_10_2016 level15_700_Robin 8_32 RCool01,122,0,1622.412,0,6,30,700,1181,9.0,-1,-1.0,0,736614.374856,Aud,2016-10-11 08:32:00,,
Right,3_10_2016 level15_700_Robin 13_48 RCool_30,31,0,1345.213,0,3,-60,700,1121,0.0,2,1348.957,0,736606.591148,Aud,2016-10-03 13:48:00,,
Right,3_10_2016 level15_700_Robin 13_48 RCool_30,32,1,1369.661,0,3,-60,700,1121,0.0,3,1375.635,1,736606.591456,Aud,2016-10-03 13:48:00,,
Right,3_10_2016 level15_700_Robin 13_48 RCool_30,33,0,1400.392,0,3,-60,700,1001,4.5,6,1402.262,0,736606.591765,Aud,2016-10-03 13:48:00,,
Right,3_10_2016 level15_700_Robin 13_48 RCool_30,34,1,1407.454,0,3,-60,700,1001,4.5,4,1409.077,0,736606.591844,Aud,2016-10-03 13:48:00,,
Right,3_10_2016 level15_700_Robin 13_48 RCool_30,35,1,1420.459,0,3,-60,700,1001,4.5,4,1421.692,0,736606.59199,Aud,2016-10-03 13:48:00,,
Right,3_10_2016 level15_700_Robin 13_48 RCool_30,36,1,1428.731,0,3,-60,700,1001,4.5,2,1430.354,0,736606.592089,Aud,2016-10-03 13:48:00,,
Right,3_10_2016 level15_700_Robin 13_48 RCool_30,37,1,1437.02,1,3,-60,700,1001,4.5,2,1442.846,0,736606.592234,Aud,2016-10-03 13:48:00,,
Right,3_10_2016 level15_700_Robin 13_48 RCool_30,38,1,1476.543,0,3,-60,700,1001,4.5,2,1482.16,0,736606.592689,Aud,2016-10-03 13:48:00,,
Right,3_10_2016 level15_700_Robin 13_48 RCool_30,39,1,1487.761,1,3,-60,700,1001,4.5,2,1494.697,0,736606.592835,Aud,2016-10-03 13:48:00,,
Right,3_10_2016 level15_700_Robin 13_48 RCool_30,40,1,1499.857,0,3,-60,700,1001,4.5,-1,-1.0,0,736606.593068,Aud,2016-10-03 13:48:00,,
Right,3_10_2016 level15_700_Robin 13_48 RCool_30,41,0,1624.65,0,7,60,700,1181,0.0,-1,-1.0,0,736606.594512,Aud,2016-10-03 13:48:00,,
Right,3_10_2016 level15_700_Robin 13_48 RCool_30,42,0,1645.258,0,4,-30,700,1101,9.0,2,1649.206,0,736606.594623,Aud,2016-10-03 13:48:00,,
Right,3_10_2016 level15_700_Robin 13_48 RCool_30,43,1,1663.147,0,4,-30,700,1101,9.0,2,1666.067,0,736606.594817,Aud,2016-10-03 13:48:00,,
Right,3_10_2016 level15_700_Robin 13_48 RCool_30,44,0,1686.689,0,7,60,700,1041,0.0,7,1689.664,1,736606.595092,Aud,2016-10-03 13:48:00,,
Right,3_10_2016 level15_700_Robin 13_48 RCool_30,45,0,1705.275,0,2,-90,700,1201,9.0,2,1706.928,1,736606.595291,Aud,2016-10-03 13:48:00,,
Right,3_10_2016 level15_700_Robin 13_48 RCool_30,46,0,1724.427,0,2,-90,700,1021,0.0,3,1725.964,0,736606.595511,Aud,2016-10-03 13:48:00,,
Right,3_10_2016 level15_700_Robin 13_48 RCool_30,47,1,1731.713,1,2,-90,700,1021,0.0,4,1736.119,0,736606.595629,Aud,2016-10-03 13:48:00,,
Right,3_10_2016 level15_700_Robin 13_48 RCool_30,48,0,1740.963,0,6,30,700,1161,9.0,7,1742.651,0,736606.595704,Aud,2016-10-03 13:48:00,,
Right,3_10_2016 level15_700_Robin 13_48 RCool_30,49,1,1755.684,0,6,30,700,1161,9.0,-1,-1.0,0,736606.596029,Aud,2016-10-03 13:48:00,,
Right,3_10_2016 level15_700_Robin 13_48 RCool_30,50,0,1814.609,1,8,90,700,1081,0.0,3,1818.72,0,736606.596585,Aud,2016-10-03 13:48:00,,
Right,3_10_2016 level15_700_Robin 13_48 RCool_30,51,1,1949.059,1,8,90,700,1081,0.0,3,1963.575,0,736606.598262,Aud,2016-10-03 13:48:00,,
Right,3_10_2016 level15_700_Robin 13_48 RCool_30,52,1,1979.705,0,8,90,700,1081,0.0,8,1981.321,1,736606.598467,Aud,2016-10-03 13:48:00,,
Right,3_10_2016 level15_700_Robin 13_48 RCool_30,53,0,1995.622,1,7,60,700,1001,4.5,6,2001.389,0,736606.5987,Aud,2016-10-03 13:48:00,,
Right,3_10_2016 level15_700_Robin 13_48 RCool_30,54,1,2006.637,0,7,60,700,1001,4.5,2,2012.055,0,736606.598822,Aud,2016-10-03 13:48:00,,
Right,3_10_2016 level15_700_Robin 13_48 RCool_30,55,0,2060.281,0,2,-90,700,1121,9.0,2,2062.846,1,736606.59941,Aud,2016-10-03 13:48:00,,
Right,3_10_2016 level15_700_Robin 13_48 RCool_30,56,0,2078.543,0,6,30,700,1041,4.5,-1,-1.0,0,736606.599765,Aud,2016-10-03 13:48:00,,
Right,6_10_2016 level15_700_Robin 14_52 RCool04,5,0,1111.704,0,8,90,700,1121,4.5,6,1115.001,0,736609.632593,Aud,2016-10-06 14:52:00,37.0,10.9
Right,6_10_2016 level15_700_Robin 14_52 RCool04,6,1,1167.55,0,8,90,700,1121,4.5,8,1173.865,1,736609.633275,Aud,2016-10-06 14:52:00,37.0,10.9
Right,6_10_2016 level15_700_Robin 14_52 RCool04,7,0,1204.632,0,4,-30,700,1101,9.0,3,1206.209,0,736609.633649,Aud,2016-10-06 14:52:00,37.0,10.9
Right,6_10_2016 level15_700_Robin 14_52 RCool04,8,1,1213.147,0,4,-30,700,1101,9.0,4,1214.611,1,736609.633746,Aud,2016-10-06 14:52:00,37.0,10.7
Right,6_10_2016 level15_700_Robin 14_52 RCool04,9,0,1228.065,0,2,-90,700,1041,4.5,2,1229.895,1,736609.633923,Aud,2016-10-06 14:52:00,37.0,10.7
Right,6_10_2016 level15_700_Robin 14_52 RCool04,10,0,1239.99,0,2,-90,700,1081,9.0,2,1241.795,1,736609.634061,Aud,2016-10-06 14:52:00,37.0,10.7
Right,6_10_2016 level15_700_Robin 14_52 RCool04,11,0,1252.626,0,4,-30,700,1161,9.0,3,1254.0,0,736609.634202,Aud,2016-10-06 14:52:00,37.0,10.7
Right,6_10_2016 level15_700_Robin 14_52 RCool04,12,1,1259.295,0,4,-30,700,1161,9.0,3,1260.536,0,736609.634278,Aud,2016-10-06 14:52:00,37.0,10.7
Right,6_10_2016 level15_700_Robin 14_52 RCool04,13,1,1267.459,1,4,-30,700,1161,9.0,2,1274.079,0,736609.634434,Aud,2016-10-06 14:52:00,37.0,10.7
Right,6_10_2016 level15_700_Robin 14_52 RCool04,14,1,1279.405,1,4,-30,700,1161,9.0,-1,-1.0,0,736609.634669,Aud,2016-10-06 14:52:00,37.0,10.7
Right,6_10_2016 level15_700_Robin 14_52 RCool04,15,0,1296.091,0,6,30,700,1061,0.0,6,1298.7,1,736609.634719,Aud,2016-10-06 14:52:00,37.0,10.7
Right,6_10_2016 level15_700_Robin 14_52 RCool04,16,0,1306.357,0,7,60,700,1021,4.5,2,1309.271,0,736609.634842,Aud,2016-10-06 14:52:00,37.0,10.7
Right,6_10_2016 level15_700_Robin 14_52 RCool04,17,1,1314.456,0,7,60,700,1021,4.5,3,1315.96,0,736609.63492,Aud,2016-10-06 14:52:00,37.0,10.7
Right,6_10_2016 level15_700_Robin 14_52 RCool04,18,1,1321.157,0,7,60,700,1021,4.5,7,1322.664,1,736609.634997,Aud,2016-10-06 14:52:00,37.0,10.7
Right,6_10_2016 level15_700_Robin 14_52 RCool04,19,0,1337.037,0,6,30,700,1001,9.0,6,1338.714,1,736609.635182,Aud,2016-10-06 14:52:00,37.0,10.7
Right,6_10_2016 level15_700_Robin 14_52 RCool04,20,0,1349.242,0,3,-60,700,1121,0.0,2,1350.739,0,736609.635321,Aud,2016-10-06 14:52:00,37.0,10.7
Right,6_10_2016 level15_700_Robin 14_52 RCool04,21,1,1355.987,1,3,-60,700,1121,0.0,2,1361.953,0,736609.635451,Aud,2016-10-06 14:52:00,37.0,10.7
Right,6_10_2016 level15_700_Robin 14_52 RCool04,22,1,1367.177,0,3,-60,700,1121,0.0,2,1369.092,0,736609.635534,Aud,2016-10-06 14:52:00,37.0,10.7
Right,6_10_2016 level15_700_Robin 14_52 RCool04,23,1,1374.356,0,3,-60,700,1121,0.0,3,1375.6,1,736609.635609,Aud,2016-10-06 14:52:00,37.0,10.7
Right,6_10_2016 level15_700_Robin 14_52 RCool04,24,0,1383.673,1,8,90,700,1001,4.5,6,1388.595,0,736609.63576,Aud,2016-10-06 14:52:00,37.0,10.7
Right,6_10_2016 level15_700_Robin 14_52 RCool04,25,1,1394.361,0,8,90,700,1001,4.5,7,1397.573,0,736609.635864,Aud,2016-10-06 14:52:00,37.0,10.7
Right,6_10_2016 level15_700_Robin 14_52 RCool04,26,1,1413.865,0,8,90,700,1001,4.5,7,1415.622,0,736609.636072,Aud,2016-10-06 14:52:00,37.0,10.7
Right,6_10_2016 level15_700_Robin 14_52 RCool04,27,1,1420.739,0,8,90,700,1001,4.5,8,1422.844,1,736609.636156,Aud,2016-10-06 14:52:00,37.0,10.7
Right,6_10_2016 level15_700_Robin 14_52 RCool04,28,0,1438.797,0,7,60,700,1081,0.0,6,1440.357,0,736609.636359,Aud,2016-10-06 14:52:00,37.0,10.7
Right,6_10_2016 level15_700_Robin 14_52 RCool04,29,1,1451.108,0,7,60,700,1081,0.0,-1,-1.0,0,736609.636657,Aud,2016-10-06 14:52:00,37.0,8.8
Right,6_10_2016 level15_700_Robin 14_52 RCool04,30,0,1474.25,0,3,-60,700,1021,9.0,2,1475.989,0,736609.636771,Aud,2016-10-06 14:52:00,37.0,8.8
Right,6_10_2016 level15_700_Robin 14_52 RCool04,31,1,1481.157,0,3,-60,700,1021,9.0,3,1482.724,1,736609.636849,Aud,2016-10-06 14:52:00,37.0,8.8
Right,6_10_2016 level15_700_Robin 14_52 RCool04,32,0,1491.887,0,8,90,700,1201,4.5,6,1493.719,0,736609.636976,Aud,2016-10-06 14:52:00,37.0,8.8
Right,6_10_2016 level15_700_Robin 14_52 RCool04,33,1,1503.627,0,8,90,700,1201,4.5,8,1505.732,1,736609.637115,Aud,2016-10-06 14:52:00,37.0,8.8
Right,6_10_2016 level15_700_Robin 14_52 RCool04,34,0,1517.973,1,8,90,700,1141,9.0,3,1522.207,0,736609.637306,Aud,2016-10-06 14:52:00,37.0,8.8
Right,6_10_2016 level15_700_Robin 14_52 RCool04,35,1,1527.479,0,8,90,700,1141,9.0,4,1532.023,0,736609.63742,Aud,2016-10-06 14:52:00,37.0,8.8
Right,6_10_2016 level15_700_Robin 14_52 RCool04,36,1,1538.141,0,8,90,700,1141,9.0,4,1541.101,0,736609.637525,Aud,2016-10-06 14:52:00,37.0,8.8
Right,6_10_2016 level15_700_Robin 14_52 RCool04,37,1,1546.392,0,8,90,700,1141,9.0,7,1548.002,0,736609.637605,Aud,2016-10-06 14:52:00,37.0,8.8
Right,6_10_2016 level15_700_Robin 14_52 RCool04,38,1,1558.066,0,8,90,700,1141,9.0,2,1566.102,0,736609.637814,Aud,2016-10-06 14:52:00,37.0,8.8
Right,6_10_2016 level15_700_Robin 14_52 RCool04,39,0,1577.033,0,2,-90,700,1041,9.0,3,1578.481,0,736609.637958,Aud,2016-10-06 14:52:00,37.0,8.8
Right,6_10_2016 level15_700_Robin 14_52 RCool04,40,1,1583.696,0,2,-90,700,1041,9.0,2,1584.813,1,736609.638031,Aud,2016-10-06 14:52:00,37.0,8.8
Right,6_10_2016 level15_700_Robin 14_52 RCool04,41,0,1593.477,0,2,-90,700,1061,4.5,2,1594.757,1,736609.638146,Aud,2016-10-06 14:52:00,37.0,8.8
Right,6_10_2016 level15_700_Robin 14_52 RCool04,42,0,1610.815,0,6,30,700,1101,0.0,4,1612.104,0,736609.638347,Aud,2016-10-06 14:52:00,37.0,8.8
Right,6_10_2016 level15_700_Robin 14_52 RCool04,43,1,1625.836,0,6,30,700,1101,0.0,6,1627.731,1,736609.638527,Aud,2016-10-06 14:52:00,37.0,8.8
Right,6_10_2016 level15_700_Robin 14_52 RCool04,44,0,1637.078,0,4,-30,700,1161,4.5,4,1638.22,1,736609.638649,Aud,2016-10-06 14:52:00,37.0,8.8
Right,6_10_2016 level15_700_Robin 14_52 RCool04,45,0,1647.139,0,3,-60,700,1061,0.0,3,1648.076,1,736609.638763,Aud,2016-10-06 14:52:00,37.0,8.8
Right,6_10_2016 level15_700_Robin 14_52 RCool04,46,0,1656.071,1,7,60,700,1201,9.0,2,1660.47,0,736609.638907,Aud,2016-10-06 14:52:00,37.0,8.8
Right,6_10_2016 level15_700_Robin 14_52 RCool04,47,1,1665.842,0,7,60,700,1201,9.0,7,1667.477,1,736609.638988,Aud,2016-10-06 14:52:00,37.0,8.8
Right,6_10_2016 level15_700_Robin 14_52 RCool04,48,0,1684.732,0,4,-30,700,1081,4.5,3,1689.123,0,736609.639238,Aud,2016-10-06 14:52:00,37.0,8.8
Right,6_10_2016 level15_700_Robin 14_52 RCool04,49,1,1694.32,0,4,-30,700,1081,4.5,4,1695.431,1,736609.639311,Aud,2016-10-06 14:52:00,37.0,8.8
Right,6_10_2016 level15_700_Robin 14_52 RCool04,50,0,1709.902,0,6,30,700,1161,0.0,6,1711.612,1,736609.639498,Aud,2016-10-06 14:52:00,37.0,8.8
Right,6_10_2016 level15_700_Robin 14_52 RCool04,51,0,1721.753,0,4,-30,700,1021,4.5,4,1722.928,1,736609.639629,Aud,2016-10-06 14:52:00,37.0,8.8
Right,6_10_2016 level15_700_Robin 14_52 RCool04,52,0,1734.159,0,4,-30,700,1101,0.0,4,1735.183,1,736609.639772,Aud,2016-10-06 14:52:00,37.0,8.8
Right,6_10_2016 level15_700_Robin 14_52 RCool04,53,0,1745.109,0,2,-90,700,1041,0.0,2,1746.726,1,736609.639904,Aud,2016-10-06 14:52:00,37.0,8.8
Right,6_10_2016 level15_700_Robin 14_52 RCool04,54,0,1755.702,0,8,90,700,1001,4.5,6,1757.166,0,736609.640026,Aud,2016-10-06 14:52:00,37.0,8.8
Right,6_10_2016 level15_700_Robin 14_52 RCool04,55,1,1762.479,1,8,90,700,1001,4.5,8,1767.915,1,736609.64015,Aud,2016-10-06 14:52:00,37.0,8.8
Right,6_10_2016 level15_700_Robin 14_52 RCool04,56,0,1781.412,0,6,30,700,1141,4.5,4,1783.232,0,736609.640327,Aud,2016-10-06 14:52:00,37.0,8.8
Right,6_10_2016 level15_700_Robin 14_52 RCool04,57,1,1788.499,0,6,30,700,1141,4.5,6,1789.781,1,736609.640404,Aud,2016-10-06 14:52:00,37.0,8.8
Right,6_10_2016 level15_700_Robin 14_52 RCool04,58,0,1799.807,0,2,-90,700,1121,0.0,3,1801.526,0,736609.640539,Aud,2016-10-06 14:52:00,37.0,8.8
Right,6_10_2016 level15_700_Robin 14_52 RCool04,59,1,1806.765,0,2,-90,700,1121,0.0,3,1807.853,0,736609.640612,Aud,2016-10-06 14:52:00,37.0,8.8
Right,6_10_2016 level15_700_Robin 14_52 RCool04,60,1,1813.175,1,2,-90,700,1121,0.0,3,1814.303,0,736609.640687,Aud,2016-10-06 14:52:00,37.0,8.8
Right,6_10_2016 level15_700_Robin 14_52 RCool04,61,1,1819.561,0,2,-90,700,1121,0.0,2,1822.73,1,736609.640784,Aud,2016-10-06 14:52:00,37.0,8.8
Right,6_10_2016 level15_700_Robin 14_52 RCool04,62,0,1832.844,0,3,-60,700,1041,4.5,3,1834.161,1,736609.640916,Aud,2016-10-06 14:52:00,37.0,8.8
Right,6_10_2016 level15_700_Robin 14_52 RCool04,63,0,1844.17,1,6,30,700,1081,0.0,3,1850.628,0,736609.641107,Aud,2016-10-06 14:52:00,37.0,8.8
Right,6_10_2016 level15_700_Robin 14_52 RCool04,64,1,1855.827,0,6,30,700,1081,0.0,4,1857.724,0,736609.641189,Aud,2016-10-06 14:52:00,37.0,8.8
Right,6_10_2016 level15_700_Robin 14_52 RCool04,65,1,1867.018,0,6,30,700,1081,0.0,8,1872.064,0,736609.641356,Aud,2016-10-06 14:52:00,37.0,8.8
Right,6_10_2016 level15_700_Robin 14_52 RCool04,66,1,1879.494,0,6,30,700,1081,0.0,7,1881.1,0,736609.64146,Aud,2016-10-06 14:52:00,37.0,8.8
Right,6_10_2016 level15_700_Robin 14_52 RCool04,67,0,1978.561,0,8,90,700,1181,4.5,-1,-1.0,0,736609.642762,Aud,2016-10-06 14:52:00,37.0,8.8
Right,6_10_2016 level15_700_Robin 14_52 RCool04,68,0,1997.284,0,3,-60,700,1001,0.0,3,2005.781,1,736609.642904,Aud,2016-10-06 14:52:00,,
Right,6_10_2016 level15_700_Robin 14_52 RCool04,69,0,2014.218,0,7,60,700,1141,4.5,6,2015.793,0,736609.643019,Aud,2016-10-06 14:52:00,,
Right,6_10_2016 level15_700_Robin 14_52 RCool04,70,1,2026.939,0,7,60,700,1141,4.5,8,2029.136,0,736609.643173,Aud,2016-10-06 14:52:00,,
Right,6_10_2016 level15_700_Robin 14_52 RCool04,71,1,2041.584,0,7,60,700,1141,4.5,4,2046.233,0,736609.643371,Aud,2016-10-06 14:52:00,,
Right,6_10_2016 level15_700_Robin 14_52 RCool04,72,1,2132.245,0,7,60,700,1141,4.5,2,2139.13,0,736609.644446,Aud,2016-10-06 14:52:00,,
Right,5_10_2016 level15_700_Robin 10_17 RCool_0,1,0,218.131,0,6,30,700,1021,0.0,-1,-1.0,0,736608.431746,Aud,2016-10-05 10:17:00,37.0,11.0
Right,5_10_2016 level15_700_Robin 10_17 RCool_0,2,0,243.196,0,7,60,700,1181,4.5,2,255.18,0,736608.432001,Aud,2016-10-05 10:17:00,37.0,11.0
Right,5_10_2016 level15_700_Robin 10_17 RCool_0,3,1,260.523,0,7,60,700,1181,4.5,-1,-1.0,0,736608.432236,Aud,2016-10-05 10:17:00,37.0,11.0
Right,5_10_2016 level15_700_Robin 10_17 RCool_0,4,0,277.195,0,6,30,700,1121,4.5,3,287.304,0,736608.432373,Aud,2016-10-05 10:17:00,37.0,11.0
Right,5_10_2016 level15_700_Robin 10_17 RCool_0,5,1,304.259,0,6,30,700,1121,4.5,4,307.596,0,736608.432608,Aud,2016-10-05 10:17:00,37.0,11.0
Right,5_10_2016 level15_700_Robin 10_17 RCool_0,6,0,322.172,0,8,90,700,1001,0.0,8,324.758,1,736608.432807,Aud,2016-10-05 10:17:00,37.0,11.0
Right,5_10_2016 level15_700_Robin 10_17 RCool_0,7,0,352.564,0,4,-30,700,1141,9.0,3,354.676,0,736608.433152,Aud,2016-10-05 10:17:00,37.0,11.0
Right,5_10_2016 level15_700_Robin 10_17 RCool_0,8,1,359.984,0,4,-30,700,1141,9.0,3,361.837,0,736608.433235,Aud,2016-10-05 10:17:00,37.0,11.0
Right,5_10_2016 level15_700_Robin 10_17 RCool_0,9,0,386.251,0,7,60,700,1161,0.0,7,388.363,1,736608.433542,Aud,2016-10-05 10:17:00,37.0,11.0
Right,5_10_2016 level15_700_Robin 10_17 RCool_0,10,0,398.868,0,4,-30,700,1081,9.0,4,400.658,1,736608.433685,Aud,2016-10-05 10:17:00,37.0,9.0
Right,5_10_2016 level15_700_Robin 10_17 RCool_0,11,0,412.816,0,2,-90,700,1061,0.0,2,414.599,1,736608.433846,Aud,2016-10-05 10:17:00,37.0,9.0
Right,5_10_2016 level15_700_Robin 10_17 RCool_0,12,0,429.623,0,3,-60,700,1101,4.5,3,431.234,1,736608.434038,Aud,2016-10-05 10:17:00,37.0,9.0
Right,5_10_2016 level15_700_Robin 10_17 RCool_0,13,0,440.417,0,2,-90,700,1021,9.0,3,441.92,0,736608.434162,Aud,2016-10-05 10:17:00,37.0,9.0
Right,5_10_2016 level15_700_Robin 10_17 RCool_0,14,1,447.092,0,2,-90,700,1021,9.0,2,448.751,1,736608.43424,Aud,2016-10-05 10:17:00,37.0,9.0
Right,5_10_2016 level15_700_Robin 10_17 RCool_0,15,0,460.211,0,3,-60,700,1101,0.0,3,461.709,1,736608.434391,Aud,2016-10-05 10:17:00,37.0,9.0
Right,5_10_2016 level15_700_Robin 10_17 RCool_0,16,0,473.633,0,2,-90,700,1061,4.5,2,474.833,1,736608.434543,Aud,2016-10-05 10:17:00,37.0,9.0
Right,5_10_2016 level15_700_Robin 10_17 RCool_0,17,0,487.866,0,4,-30,700,1001,0.0,2,489.553,0,736608.434713,Aud,2016-10-05 10:17:00,37.0,9.0
Right,5_10_2016 level15_700_Robin 10_17 RCool_0,18,1,494.746,0,4,-30,700,1001,0.0,2,496.877,0,736608.434798,Aud,2016-10-05 10:17:00,37.0,9.0
Right,5_10_2016 level15_700_Robin 10_17 RCool_0,19,1,502.047,0,4,-30,700,1001,0.0,3,504.804,0,736608.43489,Aud,2016-10-05 10:17:00,37.0,9.0
Right,5_10_2016 level15_700_Robin 10_17 RCool_0,20,0,509.748,0,6,30,700,1201,0.0,7,512.227,0,736608.434975,Aud,2016-10-05 10:17:00,37.0,9.0
Right,5_10_2016 level15_700_Robin 10_17 RCool_0,21,1,518.19,0,6,30,700,1201,0.0,6,520.156,1,736608.435067,Aud,2016-10-05 10:17:00,37.0,8.0
Right,5_10_2016 level15_700_Robin 10_17 RCool_0,22,0,534.689,1,8,90,700,1141,4.5,4,547.354,0,736608.435382,Aud,2016-10-05 10:17:00,37.0,8.0
Right,5_10_2016 level15_700_Robin 10_17 RCool_0,23,1,552.701,0,8,90,700,1141,4.5,7,555.157,0,736608.435472,Aud,2016-10-05 10:17:00,37.0,8.0
Right,5_10_2016 level15_700_Robin 10_17 RCool_0,24,0,559.342,0,7,60,700,1161,0.0,4,561.317,0,736608.435544,Aud,2016-10-05 10:17:00,37.0,8.0
Right,5_10_2016 level15_700_Robin 10_17 RCool_0,25,1,566.607,0,7,60,700,1161,0.0,4,572.935,0,736608.435678,Aud,2016-10-05 10:17:00,37.0,8.0
Right,5_10_2016 level15_700_Robin 10_17 RCool_0,26,1,578.211,0,7,60,700,1161,0.0,8,581.609,0,736608.435779,Aud,2016-10-05 10:17:00,37.0,8.0
Right,5_10_2016 level15_700_Robin 10_17 RCool_0,27,0,584.198,0,4,-30,700,1121,4.5,2,585.924,0,736608.435828,Aud,2016-10-05 10:17:00,37.0,8.0
Right,5_10_2016 level15_700_Robin 10_17 RCool_0,28,1,591.182,0,4,-30,700,1121,4.5,2,593.23,0,736608.435913,Aud,2016-10-05 10:17:00,37.0,8.0
Right,5_10_2016 level15_700_Robin 10_17 RCool_0,29,1,598.485,0,4,-30,700,1121,4.5,4,600.234,1,736608.435994,Aud,2016-10-05 10:17:00,37.0,8.0
Right,5_10_2016 level15_700_Robin 10_17 RCool_0,30,0,618.435,1,8,90,700,1081,0.0,3,627.004,0,736608.436304,Aud,2016-10-05 10:17:00,37.0,8.0
Right,5_10_2016 level15_700_Robin 10_17 RCool_0,31,1,633.565,0,8,90,700,1081,0.0,7,635.526,0,736608.436403,Aud,2016-10-05 10:17:00,37.0,8.0
Right,5_10_2016 level15_700_Robin 10_17 RCool_0,32,1,640.73,0,8,90,700,1081,0.0,7,642.296,0,736608.436481,Aud,2016-10-05 10:17:00,37.0,7.5
Right,5_10_2016 level15_700_Robin 10_17 RCool_0,33,0,649.355,0,7,60,700,1181,9.0,4,651.961,0,736608.436593,Aud,2016-10-05 10:17:00,37.0,7.5
Right,5_10_2016 level15_700_Robin 10_17 RCool_0,34,1,657.25,0,7,60,700,1181,9.0,6,658.945,0,736608.436674,Aud,2016-10-05 10:17:00,37.0,7.5
Right,5_10_2016 level15_700_Robin 10_17 RCool_0,35,0,663.953,0,6,30,700,1201,0.0,4,666.124,0,736608.436757,Aud,2016-10-05 10:17:00,37.0,7.5
Right,5_10_2016 level15_700_Robin 10_17 RCool_0,36,1,672.074,0,6,30,700,1201,0.0,4,675.347,0,736608.436863,Aud,2016-10-05 10:17:00,37.0,7.5
Right,5_10_2016 level15_700_Robin 10_17 RCool_0,37,1,680.748,0,6,30,700,1201,0.0,7,682.946,0,736608.436952,Aud,2016-10-05 10:17:00,37.0,7.5
Right,5_10_2016 level15_700_Robin 10_17 RCool_0,38,0,694.865,0,3,-60,700,1001,4.5,4,706.133,0,736608.43722,Aud,2016-10-05 10:17:00,37.0,7.5
Right,5_10_2016 level15_700_Robin 10_17 RCool_0,39,1,711.248,0,3,-60,700,1001,4.5,3,712.603,1,736608.437295,Aud,2016-10-05 10:17:00,37.0,7.5
Right,5_10_2016 level15_700_Robin 10_17 RCool_0,40,0,725.061,0,2,-90,700,1181,0.0,3,726.581,0,736608.437457,Aud,2016-10-05 10:17:00,37.0,7.5
Right,5_10_2016 level15_700_Robin 10_17 RCool_0,41,1,731.943,0,2,-90,700,1181,0.0,2,733.413,1,736608.437536,Aud,2016-10-05 10:17:00,37.0,7.5
Right,5_10_2016 level15_700_Robin 10_17 RCool_0,42,0,751.361,1,3,-60,700,1041,4.5,3,758.926,1,736608.437831,Aud,2016-10-05 10:17:00,37.0,7.5
Right,5_10_2016 level15_700_Robin 10_17 RCool_0,43,0,777.416,1,7,60,700,1141,4.5,3,786.548,0,736608.43815,Aud,2016-10-05 10:17:00,37.0,7.5
Right,5_10_2016 level15_700_Robin 10_17 RCool_0,44,1,791.796,0,7,60,700,1141,4.5,6,793.493,0,736608.438231,Aud,2016-10-05 10:17:00,37.0,7.5
Right,5_10_2016 level15_700_Robin 10_17 RCool_0,45,1,798.793,0,7,60,700,1141,4.5,6,800.666,0,736608.438315,Aud,2016-10-05 10:17:00,37.0,7.5
Right,5_10_2016 level15_700_Robin 10_17 RCool_0,46,1,806.003,0,7,60,700,1141,4.5,3,807.92,0,736608.438398,Aud,2016-10-05 10:17:00,37.0,7.5
Right,5_10_2016 level15_700_Robin 10_17 RCool_0,47,0,815.338,0,3,-60,700,1061,9.0,2,818.339,0,736608.438519,Aud,2016-10-05 10:17:00,37.0,7.5
Right,5_10_2016 level15_700_Robin 10_17 RCool_0,48,1,826.231,0,3,-60,700,1061,9.0,3,828.137,1,736608.438632,Aud,2016-10-05 10:17:00,37.0,7.5
Right,5_10_2016 level15_700_Robin 10_17 RCool_0,49,0,845.325,0,7,60,700,1081,4.5,3,848.232,0,736608.438864,Aud,2016-10-05 10:17:00,37.0,7.5
Right,5_10_2016 level15_700_Robin 10_17 RCool_0,50,1,853.443,0,7,60,700,1081,4.5,7,859.018,1,736608.438989,Aud,2016-10-05 10:17:00,37.0,7.5
Right,5_10_2016 level15_700_Robin 10_17 RCool_0,51,0,870.996,0,2,-90,700,1161,0.0,2,872.595,1,736608.439147,Aud,2016-10-05 10:17:00,37.0,7.5
Right,5_10_2016 level15_700_Robin 10_17 RCool_0,52,0,890.528,0,6,30,700,1121,0.0,6,892.486,1,736608.439377,Aud,2016-10-05 10:17:00,37.0,7.8
Right,5_10_2016 level15_700_Robin 10_17 RCool_0,53,0,902.322,0,2,-90,700,1021,9.0,2,904.054,1,736608.43951,Aud,2016-10-05 10:17:00,37.0,7.8
Right,5_10_2016 level15_700_Robin 10_17 RCool_0,54,0,924.069,0,4,-30,700,1121,9.0,2,925.993,0,736608.439765,Aud,2016-10-05 10:17:00,37.0,7.8
Right,5_10_2016 level15_700_Robin 10_17 RCool_0,55,1,932.074,0,4,-30,700,1121,9.0,4,933.959,1,736608.439857,Aud,2016-10-05 10:17:00,37.0,7.8
Right,5_10_2016 level15_700_Robin 10_17 RCool_0,56,0,945.476,0,6,30,700,1181,4.5,6,946.882,1,736608.440007,Aud,2016-10-05 10:17:00,37.0,7.8
Right,5_10_2016 level15_700_Robin 10_17 RCool_0,57,0,957.067,0,3,-60,700,1141,9.0,4,958.618,0,736608.440142,Aud,2016-10-05 10:17:00,37.0,7.8
Right,5_10_2016 level15_700_Robin 10_17 RCool_0,58,1,966.602,0,3,-60,700,1141,9.0,2,968.267,0,736608.440253,Aud,2016-10-05 10:17:00,37.0,7.8
Right,5_10_2016 level15_700_Robin 10_17 RCool_0,59,1,973.608,0,3,-60,700,1141,9.0,3,975.059,1,736608.440333,Aud,2016-10-05 10:17:00,37.0,7.8
Right,5_10_2016 level15_700_Robin 10_17 RCool_0,60,0,987.994,0,8,90,700,1061,4.5,6,989.553,0,736608.4405,Aud,2016-10-05 10:17:00,37.0,7.8
Right,5_10_2016 level15_700_Robin 10_17 RCool_0,61,1,994.717,0,8,90,700,1061,4.5,6,996.583,0,736608.440582,Aud,2016-10-05 10:17:00,37.0,7.8
Right,5_10_2016 level15_700_Robin 10_17 RCool_0,62,0,1010.68,1,4,-30,700,1101,0.0,4,1019.036,1,736608.440841,Aud,2016-10-05 10:17:00,37.0,7.8
Right,5_10_2016 level15_700_Robin 10_17 RCool_0,63,0,1033.484,0,8,90,700,1081,4.5,7,1035.819,0,736608.441036,Aud,2016-10-05 10:17:00,37.0,7.8
Right,5_10_2016 level15_700_Robin 10_17 RCool_0,64,1,1041.036,0,8,90,700,1081,4.5,4,1043.037,0,736608.441119,Aud,2016-10-05 10:17:00,37.0,7.8
Right,5_10_2016 level15_700_Robin 10_17 RCool_0,65,1,1048.244,0,8,90,700,1081,4.5,8,1050.195,1,736608.441202,Aud,2016-10-05 10:17:00,37.0,7.8
Right,5_10_2016 level15_700_Robin 10_17 RCool_0,66,0,1072.243,0,8,90,700,1021,4.5,6,1073.956,0,736608.441477,Aud,2016-10-05 10:17:00,37.0,7.8
Right,5_10_2016 level15_700_Robin 10_17 RCool_0,67,1,1086.912,0,8,90,700,1021,4.5,8,1088.952,1,736608.441651,Aud,2016-10-05 10:17:00,37.0,7.8
Right,5_10_2016 level15_700_Robin 10_17 RCool_0,68,0,1116.357,0,2,-90,700,1041,9.0,3,1118.336,0,736608.441991,Aud,2016-10-05 10:17:00,37.0,7.8
Right,5_10_2016 level15_700_Robin 10_17 RCool_0,69,1,1123.625,0,2,-90,700,1041,9.0,2,1125.022,1,736608.442068,Aud,2016-10-05 10:17:00,37.0,7.8
Right,5_10_2016 level15_700_Robin 10_17 RCool_0,70,0,1140.624,0,3,-60,700,1201,0.0,3,1143.666,1,736608.442284,Aud,2016-10-05 10:17:00,37.0,7.4
Right,5_10_2016 level15_700_Robin 10_17 RCool_0,71,0,1156.059,0,7,60,700,1001,9.0,6,1157.73,0,736608.442447,Aud,2016-10-05 10:17:00,37.0,7.4
Right,5_10_2016 level15_700_Robin 10_17 RCool_0,72,1,1178.387,0,7,60,700,1001,9.0,3,1186.185,0,736608.442776,Aud,2016-10-05 10:17:00,37.0,7.4
Right,5_10_2016 level15_700_Robin 10_17 RCool_0,73,1,1191.357,0,7,60,700,1001,9.0,4,1192.873,0,736608.442854,Aud,2016-10-05 10:17:00,37.0,7.4
Right,5_10_2016 level15_700_Robin 10_17 RCool_0,74,0,1198.542,1,7,60,700,1141,4.5,4,1208.343,0,736608.443032,Aud,2016-10-05 10:17:00,37.0,7.4
Right,5_10_2016 level15_700_Robin 10_17 RCool_0,75,1,1213.619,0,7,60,700,1141,4.5,8,1216.14,0,736608.443122,Aud,2016-10-05 10:17:00,37.0,7.4
Right,5_10_2016 level15_700_Robin 10_17 RCool_0,76,1,1221.405,1,7,60,700,1141,4.5,3,1229.14,0,736608.443273,Aud,2016-10-05 10:17:00,37.0,7.4
Right,5_10_2016 level15_700_Robin 10_17 RCool_0,77,0,1236.452,0,4,-30,700,1201,0.0,3,1238.187,0,736608.443378,Aud,2016-10-05 10:17:00,37.0,7.4
Right,5_10_2016 level15_700_Robin 10_17 RCool_0,78,1,1244.103,0,4,-30,700,1201,0.0,4,1246.256,1,736608.443471,Aud,2016-10-05 10:17:00,37.0,7.4
Right,5_10_2016 level15_700_Robin 10_17 RCool_0,79,0,1259.93,0,8,90,700,1041,9.0,3,1261.812,0,736608.443651,Aud,2016-10-05 10:17:00,37.0,7.4
Right,5_10_2016 level15_700_Robin 10_17 RCool_0,80,1,1266.996,0,8,90,700,1041,9.0,4,1268.914,0,736608.443734,Aud,2016-10-05 10:17:00,37.0,7.4
Right,5_10_2016 level15_700_Robin 10_17 RCool_0,81,1,1274.095,0,8,90,700,1041,9.0,7,1275.621,0,736608.443811,Aud,2016-10-05 10:17:00,37.0,7.4
Right,5_10_2016 level15_700_Robin 10_17 RCool_0,82,1,1280.803,0,8,90,700,1041,9.0,4,1282.814,0,736608.443894,Aud,2016-10-05 10:17:00,37.0,7.4
Right,5_10_2016 level15_700_Robin 10_17 RCool_0,83,0,1289.55,0,6,30,700,1001,4.5,2,1299.783,0,736608.444091,Aud,2016-10-05 10:17:00,37.0,7.4
Right,5_10_2016 level15_700_Robin 10_17 RCool_0,84,1,1304.958,0,6,30,700,1001,4.5,7,1309.252,0,736608.4442,Aud,2016-10-05 10:17:00,37.0,7.4
Right,5_10_2016 level15_700_Robin 10_17 RCool_0,85,0,1325.164,0,4,-30,700,1181,4.5,3,1327.113,0,736608.444407,Aud,2016-10-05 10:17:00,37.0,7.4
Right,5_10_2016 level15_700_Robin 10_17 RCool_0,86,1,1339.556,0,4,-30,700,1181,4.5,4,1342.121,1,736608.444581,Aud,2016-10-05 10:17:00,37.0,7.4
Right,5_10_2016 level15_700_Robin 10_17 RCool_0,87,0,1355.859,1,6,30,700,1061,9.0,6,1358.501,1,736608.444771,Aud,2016-10-05 10:17:00,37.0,7.4
Right,5_10_2016 level15_700_Robin 10_17 RCool_0,88,0,1367.613,0,2,-90,700,1021,0.0,2,1369.389,1,736608.444897,Aud,2016-10-05 10:17:00,37.0,7.4
Right,5_10_2016 level15_700_Robin 10_17 RCool_0,89,0,1381.24,0,3,-60,700,1101,9.0,4,1382.515,0,736608.445048,Aud,2016-10-05 10:17:00,37.0,7.4
Right,5_10_2016 level15_700_Robin 10_17 RCool_0,90,1,1387.774,0,3,-60,700,1101,9.0,3,1389.087,1,736608.445125,Aud,2016-10-05 10:17:00,37.0,7.4
Right,5_10_2016 level15_700_Robin 10_17 RCool_0,91,0,1401.67,0,7,60,700,1081,0.0,6,1403.692,0,736608.445294,Aud,2016-10-05 10:17:00,37.0,7.4
Right,5_10_2016 level15_700_Robin 10_17 RCool_0,92,1,1408.953,1,7,60,700,1081,0.0,3,1411.632,0,736608.445385,Aud,2016-10-05 10:17:00,37.0,7.4
Right,5_10_2016 level15_700_Robin 10_17 RCool_0,93,1,1417.817,0,7,60,700,1081,0.0,8,1420.705,0,736608.44549,Aud,2016-10-05 10:17:00,37.0,7.4
Right,5_10_2016 level15_700_Robin 10_17 RCool_0,94,1,1425.937,0,7,60,700,1081,0.0,4,1432.211,0,736608.445624,Aud,2016-10-05 10:17:00,37.0,7.4
Right,5_10_2016 level15_700_Robin 10_17 RCool_0,95,1,1437.441,0,7,60,700,1081,0.0,4,1440.873,0,736608.445723,Aud,2016-10-05 10:17:00,37.0,7.4
Right,5_10_2016 level15_700_Robin 10_17 RCool_0,96,0,1447.016,0,2,-90,700,1121,9.0,2,1448.397,1,736608.445811,Aud,2016-10-05 10:17:00,37.0,7.4
Right,5_10_2016 level15_700_Robin 10_17 RCool_0,97,0,1462.59,0,3,-60,700,1021,4.5,3,1464.042,1,736608.445992,Aud,2016-10-05 10:17:00,37.0,7.4
Right,5_10_2016 level15_700_Robin 10_17 RCool_0,98,0,1475.033,0,4,-30,700,1141,9.0,3,1476.217,0,736608.446133,Aud,2016-10-05 10:17:00,37.0,7.4
Right,5_10_2016 level15_700_Robin 10_17 RCool_0,99,1,1481.508,0,4,-30,700,1141,9.0,2,1483.795,0,736608.446221,Aud,2016-10-05 10:17:00,37.0,7.4
Right,5_10_2016 level15_700_Robin 10_17 RCool_0,100,1,1489.1,0,4,-30,700,1141,9.0,3,1490.592,0,736608.4463,Aud,2016-10-05 10:17:00,37.0,7.4
Right,5_10_2016 level15_700_Robin 10_17 RCool_0,101,0,1494.843,0,6,30,700,1121,0.0,4,1499.621,0,736608.446404,Aud,2016-10-05 10:17:00,37.0,7.4
Right,5_10_2016 level15_700_Robin 10_17 RCool_0,102,1,1509.706,0,6,30,700,1121,0.0,4,1511.221,0,736608.446538,Aud,2016-10-05 10:17:00,37.0,7.4
Right,5_10_2016 level15_700_Robin 10_17 RCool_0,103,1,1516.493,0,6,30,700,1121,0.0,4,1521.105,0,736608.446652,Aud,2016-10-05 10:17:00,37.0,7.4
Right,5_10_2016 level15_700_Robin 10_17 RCool_0,104,0,1527.698,0,6,30,700,1081,4.5,8,1529.917,0,736608.446754,Aud,2016-10-05 10:17:00,37.0,7.4
Right,5_10_2016 level15_700_Robin 10_17 RCool_0,105,1,1537.509,0,6,30,700,1081,4.5,3,1542.563,0,736608.4469,Aud,2016-10-05 10:17:00,37.0,7.4
Right,5_10_2016 level15_700_Robin 10_17 RCool_0,106,1,1553.294,0,6,30,700,1081,4.5,2,1557.614,0,736608.447075,Aud,2016-10-05 10:17:00,37.0,7.4
Right,5_10_2016 level15_700_Robin 10_17 RCool_0,107,1,1562.846,0,6,30,700,1081,4.5,3,1564.696,0,736608.447157,Aud,2016-10-05 10:17:00,37.0,7.4
Right,5_10_2016 level15_700_Robin 10_17 RCool_0,108,1,1570.423,0,6,30,700,1081,4.5,7,1572.648,0,736608.447249,Aud,2016-10-05 10:17:00,37.0,7.4
Right,5_10_2016 level15_700_Robin 10_17 RCool_0,109,0,1576.803,1,3,-60,700,1101,4.5,2,1580.534,0,736608.44734,Aud,2016-10-05 10:17:00,37.0,7.4
Right,5_10_2016 level15_700_Robin 10_17 RCool_0,110,1,1585.773,0,3,-60,700,1101,4.5,3,1586.967,1,736608.447414,Aud,2016-10-05 10:17:00,37.0,7.4
Right,5_10_2016 level15_700_Robin 10_17 RCool_0,111,0,1598.886,0,4,-30,700,1181,0.0,4,1600.045,1,736608.447566,Aud,2016-10-05 10:17:00,37.0,7.4
Right,5_10_2016 level15_700_Robin 10_17 RCool_0,112,0,1612.174,0,2,-90,700,1061,4.5,3,1613.427,0,736608.447721,Aud,2016-10-05 10:17:00,37.0,7.4
Right,5_10_2016 level15_700_Robin 10_17 RCool_0,113,1,1618.618,0,2,-90,700,1061,4.5,2,1620.365,1,736608.447801,Aud,2016-10-05 10:17:00,37.0,7.4
Right,5_10_2016 level15_700_Robin 10_17 RCool_0,114,0,1632.957,0,8,90,700,1041,9.0,6,1634.609,0,736608.447966,Aud,2016-10-05 10:17:00,37.0,7.4
Right,5_10_2016 level15_700_Robin 10_17 RCool_0,115,1,1639.815,0,8,90,700,1041,9.0,4,1641.233,0,736608.448043,Aud,2016-10-05 10:17:00,37.0,7.4
Right,5_10_2016 level15_700_Robin 10_17 RCool_0,116,1,1646.412,0,8,90,700,1041,9.0,8,1648.648,1,736608.448128,Aud,2016-10-05 10:17:00,37.0,7.4
Right,5_10_2016 level15_700_Robin 10_17 RCool_0,117,0,1672.69,1,8,90,700,1161,9.0,4,1683.738,0,736608.448535,Aud,2016-10-05 10:17:00,37.0,7.4
Right,5_10_2016 level15_700_Robin 10_17 RCool_0,118,1,1689.036,0,8,90,700,1161,9.0,6,1690.667,0,736608.448615,Aud,2016-10-05 10:17:00,37.0,7.4
Right,5_10_2016 level15_700_Robin 10_17 RCool_0,119,1,1696.02,0,8,90,700,1161,9.0,8,1697.643,1,736608.448696,Aud,2016-10-05 10:17:00,37.0,6.9
Right,5_10_2016 level15_700_Robin 10_17 RCool_0,120,0,1719.663,0,7,60,700,1001,4.5,6,1721.736,0,736608.448974,Aud,2016-10-05 10:17:00,37.0,6.9
Right,5_10_2016 level15_700_Robin 10_17 RCool_0,121,1,1726.877,0,7,60,700,1001,4.5,8,1730.92,0,736608.449081,Aud,2016-10-05 10:17:00,37.0,6.9
Right,5_10_2016 level15_700_Robin 10_17 RCool_0,122,1,1736.062,0,7,60,700,1001,4.5,-1,-1.0,0,736608.449314,Aud,2016-10-05 10:17:00,37.0,6.9
Right,5_10_2016 level15_700_Robin 10_17 RCool_0,123,0,1759.909,0,8,90,700,1121,9.0,4,1761.774,0,736608.449438,Aud,2016-10-05 10:17:00,37.0,6.9
Right,5_10_2016 level15_700_Robin 10_17 RCool_0,124,1,1767.003,0,8,90,700,1121,9.0,4,1770.543,0,736608.449539,Aud,2016-10-05 10:17:00,37.0,6.9
Right,5_10_2016 level15_700_Robin 10_17 RCool_0,125,1,1775.79,0,8,90,700,1121,9.0,8,1777.075,1,736608.449615,Aud,2016-10-05 10:17:00,37.0,6.9
Right,5_10_2016 level15_700_Robin 10_17 RCool_0,126,0,1790.998,0,6,30,700,1001,0.0,6,1792.941,1,736608.449798,Aud,2016-10-05 10:17:00,37.0,6.9
Right,5_10_2016 level15_700_Robin 10_17 RCool_0,127,0,1805.169,0,6,30,700,1101,4.5,7,1808.597,0,736608.44998,Aud,2016-10-05 10:17:00,37.0,7.3
Right,5_10_2016 level15_700_Robin 10_17 RCool_0,128,0,1915.509,0,7,60,700,1061,4.5,3,1924.742,0,736608.451324,Aud,2016-10-05 10:17:00,37.0,7.3
Right,5_10_2016 level15_700_Robin 10_17 RCool_0,129,1,1930.981,0,7,60,700,1061,4.5,3,1933.182,0,736608.451422,Aud,2016-10-05 10:17:00,,
Right,10_10_2016 level15_700_Robin 16_5 RCool04,5,0,953.447,0,4,-30,700,1101,9.0,8,957.7,0,736613.681869,Aud,2016-10-10 16:05:00,37.0,10.0
Right,10_10_2016 level15_700_Robin 16_5 RCool04,6,0,982.054,0,4,-30,700,1021,0.0,3,995.134,0,736613.682302,Aud,2016-10-10 16:05:00,37.0,10.0
Right,10_10_2016 level15_700_Robin 16_5 RCool04,7,1,1008.914,0,4,-30,700,1021,0.0,2,1018.046,0,736613.682568,Aud,2016-10-10 16:05:00,37.0,10.0
Right,10_10_2016 level15_700_Robin 16_5 RCool04,8,0,1022.583,0,3,-60,700,1161,9.0,4,1025.443,0,736613.682654,Aud,2016-10-10 16:05:00,37.0,10.0
Right,10_10_2016 level15_700_Robin 16_5 RCool04,9,1,1033.811,0,3,-60,700,1161,9.0,3,1035.896,1,736613.682774,Aud,2016-10-10 16:05:00,37.0,10.0
Right,10_10_2016 level15_700_Robin 16_5 RCool04,10,0,1048.71,0,3,-60,700,1141,9.0,3,1050.723,1,736613.682945,Aud,2016-10-10 16:05:00,37.0,10.0
Right,10_10_2016 level15_700_Robin 16_5 RCool04,11,0,1064.168,0,7,60,700,1001,4.5,7,1066.441,1,736613.683128,Aud,2016-10-10 16:05:00,37.0,10.0
Right,10_10_2016 level15_700_Robin 16_5 RCool04,12,0,1070.883,0,6,30,700,1061,0.0,3,1073.092,0,736613.683205,Aud,2016-10-10 16:05:00,37.0,10.0
Right,10_10_2016 level15_700_Robin 16_5 RCool04,13,1,1080.464,0,6,30,700,1061,0.0,8,1083.031,0,736613.683319,Aud,2016-10-10 16:05:00,37.0,10.0
Right,10_10_2016 level15_700_Robin 16_5 RCool04,14,1,1099.97,0,6,30,700,1061,0.0,2,1101.322,0,736613.683531,Aud,2016-10-10 16:05:00,37.0,10.0
Right,10_10_2016 level15_700_Robin 16_5 RCool04,15,1,1107.326,0,6,30,700,1061,0.0,3,1109.279,0,736613.683624,Aud,2016-10-10 16:05:00,37.0,10.0
Right,10_10_2016 level15_700_Robin 16_5 RCool04,16,1,1114.496,1,6,30,700,1061,0.0,4,1127.702,0,736613.683837,Aud,2016-10-10 16:05:00,37.0,10.0
Right,10_10_2016 level15_700_Robin 16_5 RCool04,17,1,1136.29,0,6,30,700,1061,0.0,7,1138.771,0,736613.683965,Aud,2016-10-10 16:05:00,37.0,10.0
Right,10_10_2016 level15_700_Robin 16_5 RCool04,18,1,1144.001,0,6,30,700,1061,0.0,8,1145.366,0,736613.684042,Aud,2016-10-10 16:05:00,37.0,10.0
Right,10_10_2016 level15_700_Robin 16_5 RCool04,19,0,1150.525,0,2,-90,700,1201,9.0,2,1152.842,1,736613.684128,Aud,2016-10-10 16:05:00,37.0,10.0
Right,10_10_2016 level15_700_Robin 16_5 RCool04,20,0,1164.456,0,7,60,700,1121,9.0,3,1166.02,0,736613.68428,Aud,2016-10-10 16:05:00,37.0,10.0
Right,10_10_2016 level15_700_Robin 16_5 RCool04,21,1,1171.261,0,7,60,700,1121,9.0,4,1176.397,0,736613.6844,Aud,2016-10-10 16:05:00,37.0,10.0
Right,10_10_2016 level15_700_Robin 16_5 RCool04,22,1,1181.665,0,7,60,700,1121,9.0,7,1185.421,1,736613.684505,Aud,2016-10-10 16:05:00,37.0,10.0
Right,10_10_2016 level15_700_Robin 16_5 RCool04,23,0,1204.289,0,8,90,700,1181,0.0,7,1205.669,0,736613.684739,Aud,2016-10-10 16:05:00,37.0,10.0
Right,10_10_2016 level15_700_Robin 16_5 RCool04,24,1,1211.218,0,8,90,700,1181,0.0,7,1212.668,0,736613.684821,Aud,2016-10-10 16:05:00,37.0,10.0
Right,10_10_2016 level15_700_Robin 16_5 RCool04,25,1,1219.063,0,8,90,700,1181,0.0,3,1224.053,0,736613.684952,Aud,2016-10-10 16:05:00,37.0,10.0
Right,10_10_2016 level15_700_Robin 16_5 RCool04,26,1,1229.417,0,8,90,700,1181,0.0,8,1230.892,1,736613.685031,Aud,2016-10-10 16:05:00,37.0,10.0
Right,10_10_2016 level15_700_Robin 16_5 RCool04,27,0,1240.759,0,2,-90,700,1101,4.5,3,1242.216,0,736613.685162,Aud,2016-10-10 16:05:00,37.0,10.0
Right,10_10_2016 level15_700_Robin 16_5 RCool04,28,1,1247.437,0,2,-90,700,1101,4.5,3,1248.678,0,736613.685237,Aud,2016-10-10 16:05:00,37.0,10.0
Right,10_10_2016 level15_700_Robin 16_5 RCool04,29,1,1253.958,0,2,-90,700,1101,4.5,3,1255.661,0,736613.685318,Aud,2016-10-10 16:05:00,37.0,10.0
Right,10_10_2016 level15_700_Robin 16_5 RCool04,30,1,1260.938,0,2,-90,700,1101,4.5,2,1263.209,1,736613.685405,Aud,2016-10-10 16:05:00,37.0,10.0
Right,10_10_2016 level15_700_Robin 16_5 RCool04,31,0,1274.691,0,8,90,700,1161,9.0,7,1276.349,0,736613.685558,Aud,2016-10-10 16:05:00,37.0,10.0
Right,10_10_2016 level15_700_Robin 16_5 RCool04,32,0,1307.325,0,4,-30,700,1041,0.0,8,1315.058,0,736613.686006,Aud,2016-10-10 16:05:00,37.0,10.0
Right,10_10_2016 level15_700_Robin 16_5 RCool04,33,1,1323.327,0,4,-30,700,1041,0.0,3,1326.682,0,736613.68614,Aud,2016-10-10 16:05:00,37.0,10.0
Right,10_10_2016 level15_700_Robin 16_5 RCool04,34,1,1336.103,0,4,-30,700,1041,0.0,8,1344.545,0,736613.686347,Aud,2016-10-10 16:05:00,37.0,8.5
Right,10_10_2016 level15_700_Robin 16_5 RCool04,35,1,1349.779,0,4,-30,700,1041,0.0,-1,-1.0,0,736613.686581,Aud,2016-10-10 16:05:00,37.0,8.5
Right,10_10_2016 level15_700_Robin 16_5 RCool04,36,0,1377.98,0,3,-60,700,1121,4.5,2,1382.56,0,736613.686787,Aud,2016-10-10 16:05:00,37.0,8.5
Right,10_10_2016 level15_700_Robin 16_5 RCool04,37,1,1387.859,0,3,-60,700,1121,4.5,3,1389.132,1,736613.686862,Aud,2016-10-10 16:05:00,37.0,8.5
Right,10_10_2016 level15_700_Robin 16_5 RCool04,38,0,1398.49,0,6,30,700,1001,9.0,6,1401.425,1,736613.687005,Aud,2016-10-10 16:05:00,37.0,8.5
Right,10_10_2016 level15_700_Robin 16_5 RCool04,39,0,1414.455,0,2,-90,700,1021,4.5,3,1415.805,0,736613.687171,Aud,2016-10-10 16:05:00,37.0,8.5
Right,10_10_2016 level15_700_Robin 16_5 RCool04,40,1,1420.96,0,2,-90,700,1021,4.5,2,1422.365,1,736613.687248,Aud,2016-10-10 16:05:00,37.0,8.5
Right,10_10_2016 level15_700_Robin 16_5 RCool04,41,0,1432.769,0,8,90,700,1061,0.0,4,1436.796,0,736613.687414,Aud,2016-10-10 16:05:00,37.0,8.5
Right,10_10_2016 level15_700_Robin 16_5 RCool04,42,1,1444.626,0,8,90,700,1061,0.0,8,1446.424,1,736613.687525,Aud,2016-10-10 16:05:00,37.0,8.5
Right,10_10_2016 level15_700_Robin 16_5 RCool04,43,0,1459.478,0,7,60,700,1081,9.0,6,1461.519,0,736613.6877,Aud,2016-10-10 16:05:00,37.0,8.5
Right,10_10_2016 level15_700_Robin 16_5 RCool04,44,1,1466.721,0,7,60,700,1081,9.0,6,1468.479,0,736613.687781,Aud,2016-10-10 16:05:00,37.0,8.5
