Trial	CorrectionTrial?	StartTime	CenterReward?	F1	F2	F3	F4	HoldTime	Atten	Pitch	Side	Response	RespTime	Correct	SpatialMask	
1	0	7.4907	1	460	1105	2857	4205	801	10.0	200	0	0	8.4258	1	1	
2	0	27.1456	0	730	2058	2857	4205	551	10.0	200	1	0	32.8869	0	3	
3	1	38.8405	0	730	2058	2857	4205	551	10.0	200	1	1	40.6181	1	3	
4	0	43.4529	0	730	2058	2857	4205	751	10.0	200	1	0	44.9731	0	4	
5	1	55.2962	0	730	2058	2857	4205	751	10.0	200	1	1	57.3232	1	4	
6	0	76.9829	0	460	1105	2857	4205	851	10.0	200	0	0	77.6314	1	3	
7	0	82.1120	0	730	2058	2857	4205	651	10.0	200	1	0	82.7906	0	0	
8	1	89.7004	0	730	2058	2857	4205	651	10.0	200	1	0	90.6700	0	0	
9	1	97.5322	0	730	2058	2857	4205	651	10.0	200	1	1	100.3383	1	0	
10	0	114.3570	0	460	1105	2857	4205	951	10.0	200	0	0	115.0083	1	4	
11	0	119.0132	0	730	2058	2857	4205	701	10.0	200	1	1	120.1843	1	5	
12	0	134.6806	0	460	1105	2857	4205	501	10.0	200	0	0	136.0668	1	1	
13	0	139.8004	0	730	2058	2857	4205	601	10.0	200	1	0	141.6305	0	2	
14	1	154.3859	0	730	2058	2857	4205	601	10.0	200	1	0	155.1768	0	2	
15	1	165.1556	0	730	2058	2857	4205	601	10.0	200	1	0	167.0806	0	2	
16	1	173.4195	0	730	2058	2857	4205	601	10.0	200	1	0	174.2574	0	2	
17	1	181.7767	0	730	2058	2857	4205	601	10.0	200	1	1	190.8335	1	2	
18	0	202.2990	0	730	2058	2857	4205	901	10.0	200	1	0	203.2750	0	5	
19	1	213.0393	0	730	2058	2857	4205	901	10.0	200	1	1	214.2450	1	5	
20	0	228.5568	0	460	1105	2857	4205	551	10.0	200	0	0	230.0819	1	0	
21	0	234.2764	0	460	1105	2857	4205	701	10.0	200	0	0	235.4257	1	0	
22	0	239.7026	0	730	2058	2857	4205	1001	10.0	200	1	0	240.6346	0	1	
23	1	249.6197	1	730	2058	2857	4205	1001	10.0	200	1	1	250.8383	1	1	
24	0	262.3553	0	460	1105	2857	4205	501	10.0	200	0	0	263.3031	1	4	
25	0	267.3956	1	460	1105	2857	4205	851	10.0	200	0	1	268.2877	0	0	
26	1	277.2763	1	460	1105	2857	4205	851	10.0	200	0	0	278.3959	1	0	
27	0	286.7890	1	460	1105	2857	4205	901	10.0	200	0	0	288.4000	1	5	
28	0	292.5783	0	460	1105	2857	4205	801	10.0	200	0	0	294.3530	1	1	
29	0	298.6824	0	730	2058	2857	4205	601	10.0	200	1	1	300.5906	1	1	
30	0	303.4496	0	460	1105	2857	4205	751	10.0	200	0	0	304.6163	1	2	
31	0	309.0340	0	730	2058	2857	4205	651	10.0	200	1	0	310.2916	0	5	
32	1	325.5306	0	730	2058	2857	4205	651	10.0	200	1	1	326.5753	1	5	
33	0	339.2967	0	460	1105	2857	4205	601	10.0	200	0	0	340.2405	1	5	
34	0	343.8860	0	730	2058	2857	4205	751	10.0	200	1	0	345.0524	0	0	
35	1	354.2841	0	730	2058	2857	4205	751	10.0	200	1	1	360.1827	1	0	
36	0	373.4793	0	730	2058	2857	4205	551	10.0	200	1	1	374.7490	1	0	
37	0	389.7042	0	730	2058	2857	4205	901	10.0	200	1	0	390.7369	0	4	
38	1	400.5083	0	730	2058	2857	4205	901	10.0	200	1	0	402.5924	0	4	
39	1	411.6267	0	730	2058	2857	4205	901	10.0	200	1	1	413.2398	1	4	
40	0	423.8747	1	460	1105	2857	4205	651	10.0	200	0	0	425.3077	1	2	
41	0	429.1126	0	460	1105	2857	4205	851	10.0	200	0	0	430.1875	1	3	
42	0	434.4982	0	730	2058	2857	4205	1001	10.0	200	1	0	435.7418	0	1	
43	1	449.9445	0	730	2058	2857	4205	1001	10.0	200	1	1	453.1758	1	1	
44	0	463.3308	0	460	1105	2857	4205	501	10.0	200	0	0	464.6777	1	2	
45	0	469.3792	0	460	1105	2857	4205	801	10.0	200	0	0	470.3334	1	4	
46	0	474.8474	1	730	2058	2857	4205	951	10.0	200	1	1	476.0784	1	4	
47	0	491.0980	0	460	1105	2857	4205	601	10.0	200	0	0	492.5422	1	3	
48	0	496.3475	0	730	2058	2857	4205	551	10.0	200	1	0	497.7840	0	3	
49	1	504.2975	0	730	2058	2857	4205	551	10.0	200	1	1	505.1224	1	3	
50	0	518.0305	0	730	2058	2857	4205	501	10.0	200	1	0	519.8090	0	3	
51	1	529.9636	0	730	2058	2857	4205	501	10.0	200	1	1	532.2449	1	3	
52	0	545.4465	0	730	2058	2857	4205	801	10.0	200	1	1	546.9775	1	2	
53	0	561.6287	0	730	2058	2857	4205	901	10.0	200	1	0	562.5636	0	2	
54	1	569.8200	0	730	2058	2857	4205	901	10.0	200	1	1	571.4342	1	2	
55	0	584.6188	0	460	1105	2857	4205	851	10.0	200	0	0	585.4824	1	5	
56	0	590.3061	1	730	2058	2857	4205	1001	10.0	200	1	0	591.0775	0	2	
57	1	604.1187	0	730	2058	2857	4205	1001	10.0	200	1	1	606.8055	1	2	
58	0	617.4283	0	460	1105	2857	4205	701	10.0	200	0	0	618.2698	1	3	
59	0	627.2850	0	460	1105	2857	4205	751	10.0	200	0	0	629.5943	1	1	
60	0	635.0927	0	460	1105	2857	4205	951	10.0	200	0	0	636.3387	1	2	
61	0	641.0962	0	730	2058	2857	4205	801	10.0	200	1	0	642.4522	0	0	
62	1	654.3229	0	730	2058	2857	4205	801	10.0	200	1	1	655.8387	1	0	
63	0	668.4570	0	460	1105	2857	4205	651	10.0	200	0	0	669.3135	1	4	
64	0	673.4973	0	730	2058	2857	4205	851	10.0	200	1	0	674.5637	0	1	
65	1	681.5139	0	730	2058	2857	4205	851	10.0	200	1	1	683.3036	1	1	
66	0	695.7054	0	730	2058	2857	4205	751	10.0	200	1	0	696.4996	0	1	
67	1	704.7411	0	730	2058	2857	4205	751	10.0	200	1	0	708.1474	0	1	
68	1	714.9307	0	730	2058	2857	4205	751	10.0	200	1	1	716.2587	1	1	
69	0	730.9361	0	730	2058	2857	4205	901	10.0	200	1	0	731.8675	0	0	
70	1	741.9991	0	730	2058	2857	4205	901	10.0	200	1	1	743.0971	1	0	
71	0	754.0575	0	730	2058	2857	4205	601	10.0	200	1	1	755.4192	1	1	
72	0	764.7567	0	730	2058	2857	4205	501	10.0	200	1	1	766.0526	1	5	
73	0	783.4425	0	460	1105	2857	4205	1001	10.0	200	0	0	784.9214	1	0	
74	0	789.3110	0	460	1105	2857	4205	951	10.0	200	0	0	790.8603	1	1	
75	0	795.3208	0	730	2058	2857	4205	701	10.0	200	1	1	796.7363	1	4	
76	0	806.6734	0	460	1105	2857	4205	851	10.0	200	0	0	807.4007	1	0	
77	0	811.6062	0	730	2058	2857	4205	651	10.0	200	1	0	813.3873	0	2	
78	1	819.8522	1	730	2058	2857	4205	651	10.0	200	1	0	821.0880	0	2	
79	1	830.3908	0	730	2058	2857	4205	651	10.0	200	1	1	833.2039	1	2	
80	0	842.9407	0	730	2058	2857	4205	551	10.0	200	1	0	844.2148	0	4	
81	1	855.2700	0	730	2058	2857	4205	551	10.0	200	1	1	856.7085	1	4	
82	0	863.2545	0	460	1105	2857	4205	901	10.0	200	0	0	864.4705	1	5	
83	0	873.0447	0	460	1105	2857	4205	1001	10.0	200	0	0	874.0908	1	5	
84	0	878.1459	0	730	2058	2857	4205	801	10.0	200	1	0	879.4897	0	2	
85	1	893.6885	0	730	2058	2857	4205	801	10.0	200	1	1	894.6195	1	2	
86	0	904.3250	0	460	1105	2857	4205	701	10.0	200	0	1	905.7557	0	1	
87	1	913.6842	0	460	1105	2857	4205	701	10.0	200	0	0	914.6310	1	1	
88	0	922.7931	0	730	2058	2857	4205	951	10.0	200	1	0	923.9794	0	3	
89	1	932.6553	0	730	2058	2857	4205	951	10.0	200	1	0	933.4618	0	3	
90	1	945.8936	1	730	2058	2857	4205	951	10.0	200	1	0	946.9932	0	3	
91	1	957.3943	0	730	2058	2857	4205	951	10.0	200	1	1	958.9445	1	3	
92	0	969.6290	0	730	2058	2857	4205	601	10.0	200	1	1	971.5912	1	5	
93	0	982.7865	0	460	1105	2857	4205	501	10.0	200	0	0	984.2160	1	3	
94	0	988.1519	0	460	1105	2857	4205	801	10.0	200	0	1	989.4687	0	2	
95	1	1016.5426	0	460	1105	2857	4205	801	10.0	200	0	0	1021.0392	1	2	
96	0	1025.3548	0	730	2058	2857	4205	951	10.0	200	1	0	1026.6042	0	3	
97	1	1037.1257	0	730	2058	2857	4205	951	10.0	200	1	0	1040.5645	0	3	
98	1	1046.8485	0	730	2058	2857	4205	951	10.0	200	1	0	1047.9200	0	3	
99	1	1057.6107	0	730	2058	2857	4205	951	10.0	200	1	0	1058.6682	0	3	
100	1	1069.7727	0	730	2058	2857	4205	951	10.0	200	1	0	1070.9075	0	3	
101	1	1082.2611	0	730	2058	2857	4205	951	10.0	200	1	0	1084.6623	0	3	
102	1	1124.0453	0	730	2058	2857	4205	951	10.0	200	1	0	1127.3146	0	3	
103	1	1133.7782	0	730	2058	2857	4205	951	10.0	200	1	-1	-1.0000	0	3	
104	0	1162.9573	0	460	1105	2857	4205	901	10.0	200	0	0	1165.5696	1	4	
105	0	1184.8823	0	730	2058	2857	4205	551	10.0	200	1	0	1187.4070	0	3	
106	1	1195.6583	0	730	2058	2857	4205	551	10.0	200	1	1	1196.8759	1	3	
107	0	1217.7282	0	460	1105	2857	4205	651	10.0	200	0	0	1219.5860	1	5	
108	0	1224.2977	0	730	2058	2857	4205	701	10.0	200	1	0	1225.5661	0	5	
109	1	1248.9526	1	730	2058	2857	4205	701	10.0	200	1	1	1251.2912	1	5	
110	0	1265.2709	0	460	1105	2857	4205	601	10.0	200	0	0	1266.2049	1	0	
111	0	1270.2644	0	730	2058	2857	4205	501	10.0	200	1	0	1271.8061	0	4	
112	1	1298.7959	0	730	2058	2857	4205	501	10.0	200	1	0	1314.1751	0	4	
113	1	1332.0873	0	730	2058	2857	4205	501	10.0	200	1	0	1333.6813	0	4	
