Trial	CorrectionTrial?	StartTime	CenterReward?	F1	F2	F3	F4	HoldTime	Atten	Pitch	Side	Response	RespTime	Correct	SpatialMask	
1	0	4.4355	0	460	1105	2857	4205	851	10.0	200	0	0	6.5048	1	3	
2	0	12.6694	0	730	2058	2857	4205	651	10.0	200	1	0	13.6674	0	3	
3	1	24.1204	1	730	2058	2857	4205	651	10.0	200	1	1	32.1473	1	3	
4	0	40.1308	1	460	1105	2857	4205	501	10.0	200	0	0	43.9896	1	1	
5	0	53.6515	0	460	1105	2857	4205	1001	10.0	200	0	0	54.8386	1	1	
6	0	61.3940	0	460	1105	2857	4205	801	10.0	200	0	0	62.2759	1	5	
7	0	65.6093	0	460	1105	2857	4205	901	10.0	200	0	0	66.8540	1	2	
8	0	70.3635	0	730	2058	2857	4205	701	10.0	200	1	1	71.9348	1	5	
9	0	82.8416	0	460	1105	2857	4205	951	10.0	200	0	0	83.8760	1	3	
10	0	87.4279	0	460	1105	2857	4205	601	10.0	200	0	1	88.5314	0	0	
11	1	96.2734	0	460	1105	2857	4205	601	10.0	200	0	1	97.6683	0	0	
12	1	103.6361	0	460	1105	2857	4205	601	10.0	200	0	1	105.9895	0	0	
13	1	111.8786	0	460	1105	2857	4205	601	10.0	200	0	0	113.1502	1	0	
14	0	116.2754	0	460	1105	2857	4205	551	10.0	200	0	0	117.5641	1	3	
15	0	120.6313	0	730	2058	2857	4205	701	10.0	200	1	0	121.6750	0	5	
16	1	128.0271	0	730	2058	2857	4205	701	10.0	200	1	1	129.1777	1	5	
17	0	138.6332	0	460	1105	2857	4205	501	10.0	200	0	0	139.5069	1	1	
18	0	146.6528	0	730	2058	2857	4205	1001	10.0	200	1	1	147.5407	1	0	
19	0	159.1483	0	730	2058	2857	4205	801	10.0	200	1	0	160.0346	0	1	
20	1	166.6811	1	730	2058	2857	4205	801	10.0	200	1	1	168.5790	1	1	
21	0	179.4207	0	460	1105	2857	4205	851	10.0	200	0	1	183.5947	0	0	
22	1	190.1360	1	460	1105	2857	4205	851	10.0	200	0	0	191.4586	1	0	
23	0	199.0572	0	730	2058	2857	4205	551	10.0	200	1	1	202.5835	1	3	
24	0	213.7511	0	730	2058	2857	4205	651	10.0	200	1	1	215.1457	1	3	
25	0	234.6943	0	460	1105	2857	4205	901	10.0	200	0	1	237.1610	0	2	
26	1	248.3465	0	460	1105	2857	4205	901	10.0	200	0	1	249.2652	0	2	
27	1	255.9512	0	460	1105	2857	4205	901	10.0	200	0	0	256.8299	1	2	
28	0	260.2345	1	730	2058	2857	4205	751	10.0	200	1	0	264.4538	0	2	
29	1	271.7368	0	730	2058	2857	4205	751	10.0	200	1	1	273.2578	1	2	
30	0	286.6198	0	730	2058	2857	4205	951	10.0	200	1	0	287.2459	0	4	
31	1	294.4404	1	730	2058	2857	4205	951	10.0	200	1	1	299.1171	1	4	
32	0	308.8217	0	460	1105	2857	4205	601	10.0	200	0	0	310.2146	1	4	
33	0	313.3040	0	460	1105	2857	4205	751	10.0	200	0	0	314.4912	1	0	
34	0	326.3725	0	730	2058	2857	4205	1001	10.0	200	1	1	327.5225	1	2	
35	0	336.8894	0	730	2058	2857	4205	801	10.0	200	1	0	338.0998	0	1	
36	1	345.5254	0	730	2058	2857	4205	801	10.0	200	1	1	347.1483	1	1	
37	0	355.8375	0	730	2058	2857	4205	501	10.0	200	1	0	357.3968	0	0	
38	1	366.3034	0	730	2058	2857	4205	501	10.0	200	1	1	370.1198	1	0	
39	0	381.1450	0	730	2058	2857	4205	701	10.0	200	1	1	382.8152	1	2	
40	0	391.3278	1	460	1105	2857	4205	651	10.0	200	0	0	396.1558	1	5	
41	0	406.5866	0	730	2058	2857	4205	901	10.0	200	1	1	408.4075	1	5	
42	0	421.3933	0	460	1105	2857	4205	551	10.0	200	0	0	422.7918	1	4	
43	0	426.2474	0	730	2058	2857	4205	951	10.0	200	1	0	427.1127	0	0	
44	1	436.8244	0	730	2058	2857	4205	951	10.0	200	1	1	438.1413	1	0	
45	0	449.7270	0	460	1105	2857	4205	651	10.0	200	0	0	450.8109	1	4	
46	0	453.6501	0	460	1105	2857	4205	751	10.0	200	0	0	455.0004	1	5	
47	0	461.6137	0	730	2058	2857	4205	601	10.0	200	1	1	464.0218	1	4	
48	0	474.3045	0	730	2058	2857	4205	701	10.0	200	1	1	475.6504	1	4	
49	0	487.9547	1	730	2058	2857	4205	801	10.0	200	1	1	488.6841	1	1	
50	0	512.8644	1	460	1105	2857	4205	551	10.0	200	0	0	513.9552	1	2	
51	0	526.1815	1	730	2058	2857	4205	851	10.0	200	1	1	534.5019	1	3	
52	0	548.1564	0	730	2058	2857	4205	901	10.0	200	1	0	549.3626	0	1	
53	1	565.1415	1	730	2058	2857	4205	901	10.0	200	1	1	569.7240	1	1	
54	0	580.0482	0	460	1105	2857	4205	1001	10.0	200	0	1	582.6921	0	2	
55	1	589.6255	0	460	1105	2857	4205	1001	10.0	200	0	0	590.5297	1	2	
56	0	602.4858	0	730	2058	2857	4205	501	10.0	200	1	1	603.8527	1	0	
57	0	613.5736	0	460	1105	2857	4205	601	10.0	200	0	0	614.9326	1	4	
58	0	618.2375	0	460	1105	2857	4205	1001	10.0	200	0	0	619.1838	1	4	
59	0	622.2293	0	460	1105	2857	4205	751	10.0	200	0	0	624.1412	1	3	
60	0	628.2045	0	460	1105	2857	4205	651	10.0	200	0	0	629.8851	1	3	
61	0	633.3885	0	730	2058	2857	4205	951	10.0	200	1	0	635.0220	0	3	
62	1	642.4127	0	730	2058	2857	4205	951	10.0	200	1	1	643.9707	1	3	
63	0	653.2452	0	460	1105	2857	4205	551	10.0	200	0	0	654.2224	1	0	
64	0	657.9811	0	460	1105	2857	4205	901	10.0	200	0	0	659.2412	1	5	
65	0	662.6985	0	730	2058	2857	4205	501	10.0	200	1	0	664.6872	0	0	
66	1	670.4481	0	730	2058	2857	4205	501	10.0	200	1	1	672.1432	1	0	
67	0	683.2740	0	460	1105	2857	4205	851	10.0	200	0	1	686.1818	0	2	
68	1	694.0516	0	460	1105	2857	4205	851	10.0	200	0	1	695.8878	0	2	
69	1	705.0804	0	460	1105	2857	4205	851	10.0	200	0	0	706.7029	1	2	
70	0	710.0998	1	460	1105	2857	4205	701	10.0	200	0	0	713.0689	1	1	
71	0	720.9959	0	730	2058	2857	4205	901	10.0	200	1	0	722.9351	0	1	
72	1	744.1747	0	730	2058	2857	4205	901	10.0	200	1	0	745.8096	0	1	
73	1	753.4034	0	730	2058	2857	4205	901	10.0	200	1	1	754.8166	1	1	
74	0	766.5791	0	730	2058	2857	4205	801	10.0	200	1	1	768.0794	1	5	
75	0	779.7497	0	730	2058	2857	4205	601	10.0	200	1	0	780.9342	0	1	
76	1	787.8381	0	730	2058	2857	4205	601	10.0	200	1	1	792.2181	1	1	
77	0	802.0943	0	730	2058	2857	4205	1001	10.0	200	1	0	803.1942	0	2	
78	1	817.2806	0	730	2058	2857	4205	1001	10.0	200	1	1	818.7394	1	2	
79	0	827.6673	0	460	1105	2857	4205	951	10.0	200	0	0	828.6262	1	2	
80	0	831.8881	1	460	1105	2857	4205	751	10.0	200	0	0	833.4382	1	3	
81	0	846.2933	0	730	2058	2857	4205	501	10.0	200	1	0	848.0689	0	4	
82	1	858.3474	0	730	2058	2857	4205	501	10.0	200	1	1	862.1564	1	4	
83	0	869.6998	0	460	1105	2857	4205	551	10.0	200	0	1	872.0368	0	0	
84	1	878.6761	0	460	1105	2857	4205	551	10.0	200	0	0	879.9628	1	0	
85	0	883.6086	0	730	2058	2857	4205	701	10.0	200	1	0	885.2212	0	2	
86	1	895.3636	0	730	2058	2857	4205	701	10.0	200	1	1	896.0822	1	2	
87	0	905.7274	0	730	2058	2857	4205	851	10.0	200	1	0	906.6362	0	3	
88	1	918.5987	0	730	2058	2857	4205	851	10.0	200	1	1	920.2060	1	3	
89	0	930.2485	0	460	1105	2857	4205	751	10.0	200	0	0	930.8820	1	0	
90	0	934.3660	1	460	1105	2857	4205	701	10.0	200	0	0	935.8220	1	1	
91	0	948.8503	0	730	2058	2857	4205	601	10.0	200	1	0	950.5858	0	5	
92	1	956.8736	0	730	2058	2857	4205	601	10.0	200	1	1	959.0916	1	5	
93	0	970.1878	0	730	2058	2857	4205	501	10.0	200	1	0	971.2634	0	2	
94	1	978.0879	0	730	2058	2857	4205	501	10.0	200	1	1	980.8077	1	2	
95	0	992.0918	0	460	1105	2857	4205	901	10.0	200	0	0	993.3935	1	5	
96	0	996.9040	0	730	2058	2857	4205	951	10.0	200	1	0	998.1883	0	4	
97	1	1006.0140	0	730	2058	2857	4205	951	10.0	200	1	1	1007.7881	1	4	
98	0	1026.4764	0	730	2058	2857	4205	801	10.0	200	1	0	1027.8165	0	0	
99	1	1034.2873	0	730	2058	2857	4205	801	10.0	200	1	1	1036.2402	1	0	
100	0	1047.7493	0	730	2058	2857	4205	551	10.0	200	1	1	1049.4732	1	4	
101	0	1063.6768	0	460	1105	2857	4205	851	10.0	200	0	0	1064.6800	1	1	
102	0	1067.6838	0	460	1105	2857	4205	651	10.0	200	0	0	1069.4710	1	5	
103	0	1072.6743	0	730	2058	2857	4205	501	10.0	200	1	0	1074.4793	0	5	
104	1	1081.8059	0	730	2058	2857	4205	501	10.0	200	1	1	1084.3159	1	5	
105	0	1098.4507	0	460	1105	2857	4205	601	10.0	200	0	0	1099.7912	1	4	
106	0	1103.3480	0	460	1105	2857	4205	751	10.0	200	0	0	1104.8973	1	0	
107	0	1108.4247	0	730	2058	2857	4205	801	10.0	200	1	0	1110.3330	0	3	
108	1	1121.7312	0	730	2058	2857	4205	801	10.0	200	1	1	1123.1968	1	3	
109	0	1141.4552	0	730	2058	2857	4205	651	10.0	200	1	1	1142.9353	1	5	
110	0	1157.3380	1	730	2058	2857	4205	851	10.0	200	1	0	1158.5418	0	0	
111	1	1176.2338	0	730	2058	2857	4205	851	10.0	200	1	1	1180.8195	1	0	
112	0	1197.3962	0	730	2058	2857	4205	701	10.0	200	1	0	1198.8519	0	1	
113	1	1206.4526	0	730	2058	2857	4205	701	10.0	200	1	1	1208.1674	1	1	
114	0	1222.3704	0	460	1105	2857	4205	901	10.0	200	0	0	1223.7919	1	3	
115	0	1227.3127	0	460	1105	2857	4205	551	10.0	200	0	0	1228.8185	1	4	
116	0	1232.7329	0	730	2058	2857	4205	1001	10.0	200	1	0	1233.9928	0	5	
117	1	1243.6478	0	730	2058	2857	4205	1001	10.0	200	1	1	1245.0940	1	5	
118	0	1256.6783	0	730	2058	2857	4205	701	10.0	200	1	0	1258.2859	0	2	
119	1	1276.8919	1	730	2058	2857	4205	701	10.0	200	1	1	1281.9336	1	2	
120	0	1291.9724	0	460	1105	2857	4205	501	10.0	200	0	0	1293.7822	1	2	
121	0	1297.1605	0	460	1105	2857	4205	651	10.0	200	0	0	1298.4277	1	4	
122	0	1301.8033	1	730	2058	2857	4205	601	10.0	200	1	0	1306.1077	0	4	
123	1	1317.2368	0	730	2058	2857	4205	601	10.0	200	1	1	1319.6808	1	4	
124	0	1329.2207	0	460	1105	2857	4205	801	10.0	200	0	0	1329.7925	1	3	
125	0	1337.0373	0	730	2058	2857	4205	951	10.0	200	1	0	1338.1272	0	5	
126	1	1344.5355	0	730	2058	2857	4205	951	10.0	200	1	1	1346.6130	1	5	
127	0	1362.6636	1	730	2058	2857	4205	751	10.0	200	1	0	1364.1348	0	1	
128	1	1378.3874	0	730	2058	2857	4205	751	10.0	200	1	0	1379.4496	0	1	
129	1	1389.6820	0	730	2058	2857	4205	751	10.0	200	1	1	1392.3153	1	1	
130	0	1402.0582	0	730	2058	2857	4205	551	10.0	200	1	0	1403.0638	0	2	
131	1	1409.1692	0	730	2058	2857	4205	551	10.0	200	1	1	1411.1888	1	2	
132	0	1425.3092	0	460	1105	2857	4205	901	10.0	200	0	0	1426.3271	1	3	
133	0	1429.4594	0	460	1105	2857	4205	1001	10.0	200	0	0	1430.4985	1	5	
134	0	1438.3658	0	460	1105	2857	4205	901	10.0	200	0	0	1439.5151	1	5	
135	0	1443.1234	0	460	1105	2857	4205	701	10.0	200	0	0	1444.3345	1	4	
136	0	1448.3404	0	460	1105	2857	4205	951	10.0	200	0	0	1450.5420	1	1	
137	0	1454.3736	0	730	2058	2857	4205	801	10.0	200	1	1	1457.0276	1	4	
138	0	1468.0619	0	730	2058	2857	4205	551	10.0	200	1	0	1469.0374	0	0	
139	1	1481.2986	0	730	2058	2857	4205	551	10.0	200	1	1	1482.7571	1	0	
140	0	1493.4085	0	460	1105	2857	4205	751	10.0	200	0	0	1494.2917	1	1	
141	0	1507.2536	0	730	2058	2857	4205	851	10.0	200	1	0	1508.5304	0	2	
142	1	1514.6520	0	730	2058	2857	4205	851	10.0	200	1	0	1515.2541	0	2	
143	1	1524.8089	0	730	2058	2857	4205	851	10.0	200	1	1	1526.0167	1	2	
144	0	1546.3961	0	730	2058	2857	4205	601	10.0	200	1	0	1547.9595	0	4	
145	1	1553.9603	0	730	2058	2857	4205	601	10.0	200	1	1	1555.4775	1	4	
146	0	1567.1060	0	460	1105	2857	4205	501	10.0	200	0	1	1571.7356	0	1	
147	1	1579.4278	0	460	1105	2857	4205	501	10.0	200	0	0	1582.0987	1	1	
148	0	1585.6357	0	460	1105	2857	4205	1001	10.0	200	0	0	1587.1743	1	0	
149	0	1604.6096	0	730	2058	2857	4205	551	10.0	200	1	1	1608.0069	1	3	
150	0	1618.0485	0	460	1105	2857	4205	901	10.0	200	0	0	1619.0534	1	0	
151	0	1626.2129	1	460	1105	2857	4205	1001	10.0	200	0	0	1627.3662	1	5	
152	0	1637.3001	0	730	2058	2857	4205	501	10.0	200	1	0	1638.1100	0	1	
153	1	1643.9014	0	730	2058	2857	4205	501	10.0	200	1	1	1645.7576	1	1	
154	0	1657.4161	0	730	2058	2857	4205	701	10.0	200	1	0	1659.1772	0	3	
155	1	1671.8358	0	730	2058	2857	4205	701	10.0	200	1	1	1672.5582	1	3	
156	0	1685.8907	0	460	1105	2857	4205	951	10.0	200	0	0	1687.5862	1	2	
157	0	1691.5946	0	730	2058	2857	4205	601	10.0	200	1	0	1693.6637	0	0	
158	1	1710.1182	0	730	2058	2857	4205	601	10.0	200	1	1	1710.8856	1	0	
159	0	1721.5911	0	460	1105	2857	4205	651	10.0	200	0	0	1722.5916	1	2	
160	0	1726.3416	1	730	2058	2857	4205	801	10.0	200	1	0	1730.5607	0	0	
161	1	1791.6554	0	730	2058	2857	4205	801	10.0	200	1	1	1792.3572	1	0	
162	0	1800.9760	0	730	2058	2857	4205	751	10.0	200	1	0	1801.9063	0	2	
163	1	1835.4209	0	730	2058	2857	4205	751	10.0	200	1	0	1837.5190	0	2	
164	1	1866.5280	0	730	2058	2857	4205	751	10.0	200	1	0	1868.7112	0	2	
