Trial	CorrectionTrial?	StartTime	CenterReward?	F1	F2	F3	F4	HoldTime	Atten	Pitch	Side	Response	RespTime	Correct	SpatialMask	
1	0	25.6604	0	730	2058	2857	4205	751	-7.0	200	1	0	27.9321	0	0	
2	1	36.8529	1	730	2058	2857	4205	751	-7.0	200	1	1	41.3377	1	0	
3	0	46.3368	0	460	1105	2857	4205	901	-5.0	200	0	1	47.1447	0	1	
4	1	61.1275	0	460	1105	2857	4205	901	-5.0	200	0	1	66.3712	0	1	
5	1	73.4084	0	460	1105	2857	4205	901	-5.0	200	0	0	74.0654	1	1	
6	0	84.3778	0	460	1105	2857	4205	951	-5.0	200	0	0	89.6220	1	5	
7	0	110.9769	0	460	1105	2857	4205	1001	-5.0	200	0	0	111.5235	1	1	
8	0	123.4831	0	460	1105	2857	4205	701	-5.0	200	0	0	123.9724	1	2	
9	0	132.0556	1	730	2058	2857	4205	651	-7.0	200	1	1	132.8069	1	1	
10	0	137.5624	0	460	1105	2857	4205	851	-5.0	200	0	1	140.5737	0	2	
11	1	154.0023	0	460	1105	2857	4205	851	-5.0	200	0	0	154.6300	1	2	
12	0	161.7011	0	460	1105	2857	4205	551	-5.0	200	0	1	162.6229	0	4	
13	1	172.3170	0	460	1105	2857	4205	551	-5.0	200	0	0	172.7892	1	4	
14	0	183.3798	0	730	2058	2857	4205	801	-7.0	200	1	1	184.0375	1	4	
15	0	187.9508	0	730	2058	2857	4205	601	-7.0	200	1	0	189.6192	0	3	
16	1	204.5929	0	730	2058	2857	4205	601	-7.0	200	1	1	205.5705	1	3	
17	0	210.0363	1	460	1105	2857	4205	801	-5.0	200	0	0	211.0300	1	3	
18	0	217.8922	0	460	1105	2857	4205	751	-5.0	200	0	0	221.1352	1	3	
19	0	229.5846	0	730	2058	2857	4205	1001	-7.0	200	1	1	230.1633	1	3	
20	0	234.1669	0	730	2058	2857	4205	551	-7.0	200	1	1	234.9192	1	1	
21	0	240.1378	1	730	2058	2857	4205	851	-7.0	200	1	1	241.1627	1	4	
22	0	245.9290	0	460	1105	2857	4205	901	-5.0	200	0	0	249.7852	1	5	
23	0	258.3348	0	460	1105	2857	4205	951	-5.0	200	0	1	258.8627	0	2	
24	1	275.9668	0	460	1105	2857	4205	951	-5.0	200	0	0	278.0379	1	2	
25	0	291.0259	0	730	2058	2857	4205	501	-7.0	200	1	1	291.8384	1	2	
26	0	295.6671	0	460	1105	2857	4205	601	-5.0	200	0	1	296.3480	0	0	
27	1	303.5884	0	460	1105	2857	4205	601	-5.0	200	0	0	305.4464	1	0	
28	0	314.3655	0	730	2058	2857	4205	651	-7.0	200	1	1	315.0488	1	4	
29	0	318.8327	1	460	1105	2857	4205	801	-5.0	200	0	1	319.8950	0	3	
30	1	333.4687	0	460	1105	2857	4205	801	-5.0	200	0	0	334.6774	1	3	
31	0	342.3312	0	730	2058	2857	4205	901	-7.0	200	1	1	342.9904	1	3	
32	0	348.0517	0	460	1105	2857	4205	751	-5.0	200	0	0	349.1000	1	4	
33	0	356.8105	0	460	1105	2857	4205	651	-5.0	200	0	0	357.9008	1	5	
34	0	367.0310	0	730	2058	2857	4205	851	-7.0	200	1	1	367.4609	1	2	
35	0	372.4493	0	460	1105	2857	4205	601	-5.0	200	0	0	373.3191	1	1	
36	0	381.6251	1	730	2058	2857	4205	551	-7.0	200	1	1	387.0283	1	5	
37	0	391.5992	0	460	1105	2857	4205	1001	-5.0	200	0	0	392.5913	1	0	
38	0	400.9424	1	730	2058	2857	4205	951	-7.0	200	1	1	401.5522	1	5	
39	0	406.0882	0	460	1105	2857	4205	701	-5.0	200	0	1	408.3920	0	0	
40	1	416.2773	0	460	1105	2857	4205	701	-5.0	200	0	0	422.0453	1	0	
41	0	430.4247	0	730	2058	2857	4205	701	-7.0	200	1	1	431.4401	1	1	
42	0	435.9858	0	730	2058	2857	4205	651	-7.0	200	1	1	436.8742	1	5	
43	0	441.2458	0	730	2058	2857	4205	551	-7.0	200	1	0	442.6336	0	0	
44	1	449.6797	0	730	2058	2857	4205	551	-7.0	200	1	1	450.7724	1	0	
45	0	454.1816	0	730	2058	2857	4205	801	-7.0	200	1	1	454.8961	1	2	
46	0	459.4101	0	730	2058	2857	4205	851	-7.0	200	1	1	460.4942	1	0	
47	0	465.4934	0	460	1105	2857	4205	751	-5.0	200	0	0	466.7699	1	4	
48	0	475.5272	0	460	1105	2857	4205	501	-5.0	200	0	0	477.2957	1	5	
49	0	485.6552	0	730	2058	2857	4205	901	-7.0	200	1	1	486.1974	1	3	
50	0	499.5574	0	460	1105	2857	4205	951	-5.0	200	0	0	501.1491	1	5	
51	0	507.3619	0	460	1105	2857	4205	1001	-5.0	200	0	1	507.8559	0	0	
52	1	515.6192	0	460	1105	2857	4205	1001	-5.0	200	0	0	516.9157	1	0	
53	0	529.2552	0	460	1105	2857	4205	501	-5.0	200	0	0	530.9406	1	2	
54	0	536.8949	0	460	1105	2857	4205	951	-5.0	200	0	0	538.3510	1	0	
55	0	545.3323	0	730	2058	2857	4205	801	-7.0	200	1	1	545.8675	1	2	
56	0	550.3644	0	460	1105	2857	4205	701	-5.0	200	0	1	551.4896	0	4	
57	1	560.0991	0	460	1105	2857	4205	701	-5.0	200	0	0	562.4065	1	4	
58	0	568.0555	0	730	2058	2857	4205	1001	-7.0	200	1	1	568.6755	1	4	
59	0	572.5055	0	460	1105	2857	4205	901	-5.0	200	0	0	575.0043	1	1	
60	0	581.0387	0	730	2058	2857	4205	601	-7.0	200	1	1	582.0153	1	3	
61	0	586.5713	0	730	2058	2857	4205	551	-7.0	200	1	1	587.2912	1	5	
62	0	592.0076	0	460	1105	2857	4205	651	-5.0	200	0	0	593.0647	1	3	
63	0	601.0328	0	730	2058	2857	4205	751	-7.0	200	1	1	601.9048	1	0	
64	0	606.3288	0	460	1105	2857	4205	801	-5.0	200	0	0	607.3569	1	5	
65	0	617.1453	0	730	2058	2857	4205	551	-7.0	200	1	1	618.2933	1	3	
66	0	622.7218	0	730	2058	2857	4205	901	-7.0	200	1	1	623.4144	1	4	
67	0	628.6461	0	460	1105	2857	4205	1001	-5.0	200	0	1	629.4812	0	0	
68	1	639.6572	0	460	1105	2857	4205	1001	-5.0	200	0	0	640.3325	1	0	
69	0	646.9376	0	460	1105	2857	4205	701	-5.0	200	0	0	648.4765	1	4	
70	0	654.4219	0	730	2058	2857	4205	751	-7.0	200	1	1	655.2893	1	1	
71	0	661.6550	0	460	1105	2857	4205	951	-5.0	200	0	1	662.3660	0	2	
72	1	669.7926	0	460	1105	2857	4205	951	-5.0	200	0	0	672.4594	1	2	
73	0	677.9953	0	460	1105	2857	4205	501	-5.0	200	0	0	680.1897	1	2	
74	0	687.9704	0	730	2058	2857	4205	851	-7.0	200	1	1	688.7028	1	4	
75	0	691.8920	0	460	1105	2857	4205	651	-5.0	200	0	0	694.3167	1	4	
76	0	705.5376	0	460	1105	2857	4205	751	-5.0	200	0	0	707.1972	1	3	
77	0	716.8766	1	730	2058	2857	4205	601	-7.0	200	1	1	717.6130	1	2	
78	0	720.8283	0	460	1105	2857	4205	701	-5.0	200	0	1	723.8210	0	1	
79	1	733.1956	0	460	1105	2857	4205	701	-5.0	200	0	0	734.8792	1	1	
80	0	742.5397	0	730	2058	2857	4205	651	-7.0	200	1	1	743.2317	1	2	
81	0	746.6956	0	460	1105	2857	4205	501	-5.0	200	0	1	747.4547	0	1	
82	1	753.3744	0	460	1105	2857	4205	501	-5.0	200	0	0	755.4741	1	1	
83	0	761.5988	0	460	1105	2857	4205	901	-5.0	200	0	0	762.5649	1	3	
84	0	768.7886	0	730	2058	2857	4205	951	-7.0	200	1	1	769.4426	1	5	
85	0	773.4878	0	730	2058	2857	4205	551	-7.0	200	1	1	774.2340	1	1	
86	0	780.8360	0	730	2058	2857	4205	801	-7.0	200	1	1	781.5696	1	5	
87	0	787.6947	0	730	2058	2857	4205	1001	-7.0	200	1	0	788.4820	0	1	
88	1	805.0940	0	730	2058	2857	4205	1001	-7.0	200	1	1	806.1026	1	1	
89	0	810.1058	0	730	2058	2857	4205	851	-7.0	200	1	1	810.8872	1	0	
90	0	816.3628	0	730	2058	2857	4205	901	-7.0	200	1	0	817.2708	0	0	
91	1	829.0729	0	730	2058	2857	4205	901	-7.0	200	1	1	829.6684	1	0	
92	0	833.9420	0	460	1105	2857	4205	1001	-5.0	200	0	0	834.9427	1	5	
93	0	841.8396	0	460	1105	2857	4205	651	-5.0	200	0	0	843.9264	1	2	
94	0	850.7494	0	730	2058	2857	4205	701	-7.0	200	1	0	853.1558	0	0	
95	1	861.8719	0	730	2058	2857	4205	701	-7.0	200	1	1	862.6153	1	0	
96	0	866.6414	0	730	2058	2857	4205	751	-7.0	200	1	1	867.5537	1	3	
97	0	871.3496	0	730	2058	2857	4205	501	-7.0	200	1	1	872.3517	1	0	
98	0	877.7704	0	460	1105	2857	4205	801	-5.0	200	0	1	878.6871	0	0	
99	1	891.9173	0	460	1105	2857	4205	801	-5.0	200	0	0	893.0537	1	0	
100	0	898.8294	0	730	2058	2857	4205	601	-7.0	200	1	0	900.6930	0	3	
101	1	906.8636	1	730	2058	2857	4205	601	-7.0	200	1	0	908.6444	0	3	
102	1	915.1520	1	730	2058	2857	4205	601	-7.0	200	1	1	921.7765	1	3	
103	0	925.9003	1	730	2058	2857	4205	551	-7.0	200	1	1	930.3668	1	0	
104	0	934.0677	0	460	1105	2857	4205	601	-5.0	200	0	1	936.3423	0	3	
105	1	943.4114	1	460	1105	2857	4205	601	-5.0	200	0	1	944.8014	0	3	
106	1	950.9687	0	460	1105	2857	4205	601	-5.0	200	0	0	953.1176	1	3	
107	0	958.3921	0	730	2058	2857	4205	801	-7.0	200	1	1	960.0087	1	3	
108	0	963.8276	0	460	1105	2857	4205	501	-5.0	200	0	1	966.4143	0	1	
109	1	980.8885	0	460	1105	2857	4205	501	-5.0	200	0	0	983.0418	1	1	
110	0	988.9624	0	460	1105	2857	4205	751	-5.0	200	0	0	990.9769	1	4	
111	0	997.1723	0	460	1105	2857	4205	901	-5.0	200	0	0	998.8552	1	2	
112	0	1008.0311	0	460	1105	2857	4205	851	-5.0	200	0	0	1009.2446	1	4	
113	0	1017.9305	0	460	1105	2857	4205	651	-5.0	200	0	0	1020.3680	1	1	
114	0	1026.2376	0	460	1105	2857	4205	951	-5.0	200	0	0	1028.1612	1	5	
115	0	1035.0581	0	730	2058	2857	4205	1001	-7.0	200	1	1	1035.9535	1	4	
116	0	1038.8940	0	730	2058	2857	4205	551	-7.0	200	1	1	1039.6942	1	5	
117	0	1043.9193	0	730	2058	2857	4205	851	-7.0	200	1	1	1045.0516	1	4	
118	0	1050.9895	0	460	1105	2857	4205	501	-5.0	200	0	1	1051.7601	0	1	
119	1	1057.4716	0	460	1105	2857	4205	501	-5.0	200	0	0	1058.6693	1	1	
120	0	1065.0807	0	460	1105	2857	4205	951	-5.0	200	0	0	1067.6151	1	0	
121	0	1073.0869	0	460	1105	2857	4205	901	-5.0	200	0	0	1075.0124	1	3	
122	0	1080.4858	0	730	2058	2857	4205	551	-7.0	200	1	1	1081.7166	1	2	
123	0	1085.4436	0	730	2058	2857	4205	801	-7.0	200	1	1	1086.2500	1	1	
124	0	1091.1873	0	730	2058	2857	4205	1001	-7.0	200	1	1	1092.1414	1	4	
125	0	1098.9919	0	460	1105	2857	4205	701	-5.0	200	0	0	1100.1795	1	4	
126	0	1106.8952	1	730	2058	2857	4205	751	-7.0	200	1	1	1108.0480	1	5	
127	0	1111.8327	0	730	2058	2857	4205	601	-7.0	200	1	1	1114.6203	1	1	
128	0	1118.2816	0	730	2058	2857	4205	701	-7.0	200	1	1	1120.3647	1	2	
129	0	1124.0337	0	460	1105	2857	4205	551	-5.0	200	0	0	1126.6749	1	0	
130	0	1136.7870	0	730	2058	2857	4205	901	-7.0	200	1	1	1137.8055	1	2	
131	0	1141.6182	0	460	1105	2857	4205	1001	-5.0	200	0	1	1142.0105	0	2	
132	1	1171.2745	0	460	1105	2857	4205	1001	-5.0	200	0	1	1172.4888	0	2	
133	1	1211.0597	0	460	1105	2857	4205	1001	-5.0	200	0	1	1211.5714	0	2	
