Trial	CorrectionTrial?	StartTime	CenterReward?	F1	F2	F3	F4	HoldTime	Atten	Pitch	Side	Response	RespTime	Correct	SpatialMask	
1	0	6.8488	0	460	1105	2857	4205	901	-5.0	200	0	1	9.0840	0	4	
2	1	20.0521	0	460	1105	2857	4205	901	-5.0	200	0	0	21.2608	1	4	
3	0	28.0573	0	730	2058	2857	4205	501	-7.0	200	1	1	28.7710	1	0	
4	0	33.6453	0	460	1105	2857	4205	751	-5.0	200	0	1	34.2574	0	0	
5	1	43.3350	0	460	1105	2857	4205	751	-5.0	200	0	0	44.2190	1	0	
6	0	55.4661	0	460	1105	2857	4205	801	-5.0	200	0	1	57.3066	0	2	
7	1	65.9028	0	460	1105	2857	4205	801	-5.0	200	0	1	66.7346	0	2	
8	1	75.3011	0	460	1105	2857	4205	801	-5.0	200	0	0	76.5191	1	2	
9	0	82.8606	0	730	2058	2857	4205	601	-7.0	200	1	1	83.6267	1	1	
10	0	88.7524	0	730	2058	2857	4205	1001	-7.0	200	1	1	89.5186	1	5	
11	0	95.5324	0	460	1105	2857	4205	651	-5.0	200	0	0	96.9186	1	3	
12	0	105.5224	0	730	2058	2857	4205	851	-7.0	200	1	0	106.5325	0	0	
13	1	115.1952	0	730	2058	2857	4205	851	-7.0	200	1	1	115.9543	1	0	
14	0	121.2062	0	730	2058	2857	4205	951	-7.0	200	1	1	122.1512	1	4	
15	0	127.3277	0	730	2058	2857	4205	551	-7.0	200	1	0	128.6178	0	2	
16	1	137.0216	0	730	2058	2857	4205	551	-7.0	200	1	1	138.1570	1	2	
17	0	143.2689	0	460	1105	2857	4205	601	-5.0	200	0	0	144.5197	1	5	
18	0	152.7534	0	460	1105	2857	4205	851	-5.0	200	0	0	153.6340	1	0	
19	0	162.4167	0	730	2058	2857	4205	551	-7.0	200	1	1	163.1214	1	0	
20	0	167.8497	0	460	1105	2857	4205	501	-5.0	200	0	0	169.0188	1	3	
21	0	176.3108	0	730	2058	2857	4205	701	-7.0	200	1	1	177.1636	1	2	
22	0	182.0229	0	460	1105	2857	4205	801	-5.0	200	0	0	182.8614	1	3	
23	0	190.7836	0	730	2058	2857	4205	651	-7.0	200	1	1	191.4432	1	3	
24	0	197.3918	0	730	2058	2857	4205	1001	-7.0	200	1	1	198.0719	1	2	
25	0	203.5712	1	460	1105	2857	4205	901	-5.0	200	0	1	205.3161	0	5	
26	1	213.2353	0	460	1105	2857	4205	901	-5.0	200	0	0	214.5154	1	5	
27	0	222.4126	0	730	2058	2857	4205	951	-7.0	200	1	1	223.2403	1	3	
28	0	227.1437	0	460	1105	2857	4205	551	-5.0	200	0	0	229.6782	1	5	
29	0	237.2926	0	460	1105	2857	4205	1001	-5.0	200	0	1	237.9393	0	1	
30	1	245.2865	0	460	1105	2857	4205	1001	-5.0	200	0	0	245.9317	1	1	
31	0	254.1688	0	730	2058	2857	4205	951	-7.0	200	1	1	254.8625	1	4	
32	0	258.7177	0	730	2058	2857	4205	501	-7.0	200	1	0	259.8578	0	3	
33	1	268.3668	0	730	2058	2857	4205	501	-7.0	200	1	1	269.6300	1	3	
34	0	274.8920	0	460	1105	2857	4205	701	-5.0	200	0	1	275.9444	0	2	
35	1	283.8367	0	460	1105	2857	4205	701	-5.0	200	0	0	285.1998	1	2	
36	0	293.4244	0	460	1105	2857	4205	801	-5.0	200	0	0	294.3895	1	2	
37	0	301.4542	0	730	2058	2857	4205	601	-7.0	200	1	1	302.4026	1	1	
38	0	306.5845	0	460	1105	2857	4205	851	-5.0	200	0	0	307.6250	1	0	
39	0	313.8031	0	460	1105	2857	4205	901	-5.0	200	0	0	314.6851	1	1	
40	0	320.8728	0	730	2058	2857	4205	751	-7.0	200	1	1	321.5374	1	1	
41	0	326.0612	0	460	1105	2857	4205	601	-5.0	200	0	0	326.9796	1	1	
42	0	333.5649	0	460	1105	2857	4205	651	-5.0	200	0	0	334.3482	1	4	
43	0	340.7471	0	730	2058	2857	4205	951	-7.0	200	1	1	341.4093	1	5	
44	0	345.2965	0	730	2058	2857	4205	551	-7.0	200	1	1	346.1516	1	5	
45	0	351.3281	0	460	1105	2857	4205	751	-5.0	200	0	0	352.4329	1	4	
46	0	359.6963	0	730	2058	2857	4205	901	-7.0	200	1	0	360.6495	0	4	
47	1	369.1779	0	730	2058	2857	4205	901	-7.0	200	1	1	370.5419	1	4	
48	0	376.5790	0	460	1105	2857	4205	801	-5.0	200	0	0	378.0611	1	0	
49	0	385.3732	0	460	1105	2857	4205	1001	-5.0	200	0	0	386.3022	1	5	
50	0	391.5880	0	730	2058	2857	4205	851	-7.0	200	1	0	392.6423	0	3	
51	1	404.3740	0	730	2058	2857	4205	851	-7.0	200	1	0	405.8579	0	3	
52	1	413.1492	0	730	2058	2857	4205	851	-7.0	200	1	0	415.6146	0	3	
53	1	422.5414	0	730	2058	2857	4205	851	-7.0	200	1	1	423.4576	1	3	
54	0	429.3382	0	460	1105	2857	4205	701	-5.0	200	0	0	430.8398	1	1	
55	0	439.9163	0	460	1105	2857	4205	1001	-5.0	200	0	0	441.0609	1	1	
56	0	447.6473	0	730	2058	2857	4205	701	-7.0	200	1	1	448.8181	1	5	
57	0	453.6739	0	730	2058	2857	4205	951	-7.0	200	1	0	454.5982	0	0	
58	1	462.3665	0	730	2058	2857	4205	951	-7.0	200	1	1	463.2559	1	0	
59	0	468.5577	0	460	1105	2857	4205	601	-5.0	200	0	0	470.0978	1	4	
60	0	476.3082	0	730	2058	2857	4205	651	-7.0	200	1	0	477.3564	0	0	
61	1	485.7070	0	730	2058	2857	4205	651	-7.0	200	1	1	487.1086	1	0	
62	0	491.1998	0	460	1105	2857	4205	551	-5.0	200	0	0	492.4629	1	3	
63	0	500.2253	0	460	1105	2857	4205	801	-5.0	200	0	0	501.3663	1	4	
64	0	508.3140	0	730	2058	2857	4205	501	-7.0	200	1	1	509.6930	1	2	
65	0	515.3151	0	460	1105	2857	4205	751	-5.0	200	0	0	516.6029	1	0	
66	0	524.6483	0	460	1105	2857	4205	901	-5.0	200	0	0	525.6873	1	2	
67	0	532.4638	0	730	2058	2857	4205	701	-7.0	200	1	1	533.3726	1	4	
68	0	538.4414	0	460	1105	2857	4205	1001	-5.0	200	0	0	539.5198	1	0	
69	0	545.9054	0	730	2058	2857	4205	851	-7.0	200	1	1	546.7251	1	1	
70	0	551.7459	0	730	2058	2857	4205	551	-7.0	200	1	1	552.6486	1	2	
71	0	559.9641	0	730	2058	2857	4205	951	-7.0	200	1	1	560.7295	1	3	
72	0	566.7676	0	730	2058	2857	4205	601	-7.0	200	1	0	568.9482	0	4	
73	1	575.3904	0	730	2058	2857	4205	601	-7.0	200	1	1	576.5909	1	4	
74	0	581.0872	0	730	2058	2857	4205	801	-7.0	200	1	1	581.9570	1	2	
75	0	588.7688	0	730	2058	2857	4205	501	-7.0	200	1	1	589.5972	1	5	
76	0	596.5557	0	730	2058	2857	4205	901	-7.0	200	1	1	597.3798	1	1	
77	0	602.8610	0	730	2058	2857	4205	651	-7.0	200	1	1	604.0963	1	1	
78	0	609.2818	0	730	2058	2857	4205	701	-7.0	200	1	1	610.3325	1	5	
79	0	616.3837	0	730	2058	2857	4205	901	-7.0	200	1	1	617.2932	1	4	
80	0	622.8274	1	460	1105	2857	4205	651	-5.0	200	0	1	624.1600	0	2	
81	1	634.3714	0	460	1105	2857	4205	651	-5.0	200	0	1	635.8877	0	2	
82	1	642.4635	0	460	1105	2857	4205	651	-5.0	200	0	0	647.5550	1	2	
83	0	655.5867	0	460	1105	2857	4205	601	-5.0	200	0	0	656.9586	1	2	
84	0	663.4529	0	730	2058	2857	4205	851	-7.0	200	1	0	664.6362	0	0	
85	1	673.4166	0	730	2058	2857	4205	851	-7.0	200	1	0	674.9183	0	0	
86	1	689.1513	0	730	2058	2857	4205	851	-7.0	200	1	1	689.5813	1	0	
87	0	694.9942	0	460	1105	2857	4205	551	-5.0	200	0	0	696.2387	1	1	
88	0	702.8221	0	460	1105	2857	4205	801	-5.0	200	0	0	704.3213	1	3	
89	0	709.6275	0	460	1105	2857	4205	951	-5.0	200	0	0	711.0461	1	5	
90	0	719.7195	0	460	1105	2857	4205	1001	-5.0	200	0	1	720.3053	0	5	
91	1	726.8403	0	460	1105	2857	4205	1001	-5.0	200	0	0	728.6919	1	5	
92	0	735.1497	0	730	2058	2857	4205	501	-7.0	200	1	1	736.6048	1	3	
93	0	741.5270	0	460	1105	2857	4205	651	-5.0	200	0	0	743.3032	1	4	
94	0	750.0047	0	460	1105	2857	4205	751	-5.0	200	0	1	751.2817	0	3	
95	1	759.7464	0	460	1105	2857	4205	751	-5.0	200	0	0	763.0598	1	3	
96	0	769.0742	0	730	2058	2857	4205	551	-7.0	200	1	0	771.8898	0	0	
97	1	781.5338	0	730	2058	2857	4205	551	-7.0	200	1	1	782.5754	1	0	
98	0	786.9929	0	460	1105	2857	4205	851	-5.0	200	0	0	788.2335	1	0	
99	0	796.5243	0	730	2058	2857	4205	701	-7.0	200	1	1	797.0765	1	5	
100	0	801.6709	0	460	1105	2857	4205	1001	-5.0	200	0	0	802.7754	1	5	
101	0	809.7246	0	460	1105	2857	4205	601	-5.0	200	0	1	810.1291	0	2	
102	1	820.1721	1	460	1105	2857	4205	601	-5.0	200	0	1	821.1592	0	2	
103	1	833.7277	1	460	1105	2857	4205	601	-5.0	200	0	0	838.0074	1	2	
104	0	844.7330	0	730	2058	2857	4205	901	-7.0	200	1	0	847.5446	0	0	
105	1	860.1703	1	730	2058	2857	4205	901	-7.0	200	1	0	869.4002	0	0	
