Trial	CorrectionTrial?	StartTime	CenterReward?	F1	F2	F3	F4	HoldTime	Atten	Pitch	Side	Response	RespTime	Correct	SpatialMask	
1	0	6.9973	0	730	2058	2857	4205	801	10.0	200	1	0	8.5085	0	4	
2	1	17.5729	0	730	2058	2857	4205	801	10.0	200	1	0	18.3961	0	4	
3	1	27.1870	0	730	2058	2857	4205	801	10.0	200	1	1	28.2348	1	4	
4	0	35.7805	0	460	1105	2857	4205	651	10.0	200	0	0	36.9899	1	5	
5	0	41.8423	0	730	2058	2857	4205	951	10.0	200	1	0	42.5110	0	3	
6	1	52.8792	0	730	2058	2857	4205	951	10.0	200	1	1	53.6934	1	3	
7	0	60.9328	0	460	1105	2857	4205	751	10.0	200	0	0	62.4906	1	1	
8	0	67.6864	0	460	1105	2857	4205	701	10.0	200	0	0	68.3418	1	2	
9	0	73.9382	0	730	2058	2857	4205	851	10.0	200	1	0	74.7391	0	1	
10	1	82.1823	0	730	2058	2857	4205	851	10.0	200	1	1	82.6894	1	1	
11	0	89.5885	0	730	2058	2857	4205	501	10.0	200	1	0	90.8541	0	2	
12	1	101.7392	0	730	2058	2857	4205	501	10.0	200	1	1	102.6405	1	2	
13	0	110.8166	1	460	1105	2857	4205	1001	10.0	200	0	0	111.5697	1	3	
14	0	124.2297	1	460	1105	2857	4205	901	10.0	200	0	1	124.5818	0	0	
15	1	130.7707	0	460	1105	2857	4205	901	10.0	200	0	0	133.5044	1	0	
16	0	138.2743	0	460	1105	2857	4205	601	10.0	200	0	0	139.8920	1	3	
17	0	144.2574	1	730	2058	2857	4205	651	10.0	200	1	0	147.6484	0	1	
18	1	167.5520	0	730	2058	2857	4205	651	10.0	200	1	0	169.2152	0	1	
19	1	178.7326	0	730	2058	2857	4205	651	10.0	200	1	1	179.6856	1	1	
20	0	186.3541	0	730	2058	2857	4205	601	10.0	200	1	0	187.7628	0	3	
21	1	193.9731	1	730	2058	2857	4205	601	10.0	200	1	1	199.8703	1	3	
22	0	205.7243	0	730	2058	2857	4205	701	10.0	200	1	1	206.7331	1	5	
23	0	213.0338	0	460	1105	2857	4205	1001	10.0	200	0	0	213.8708	1	4	
24	0	218.0210	1	730	2058	2857	4205	801	10.0	200	1	0	219.2350	0	0	
25	1	227.3214	0	730	2058	2857	4205	801	10.0	200	1	1	228.3945	1	0	
26	0	235.0344	0	460	1105	2857	4205	951	10.0	200	0	0	236.0889	1	1	
27	0	240.4105	0	460	1105	2857	4205	851	10.0	200	0	0	241.9703	1	1	
28	0	245.9921	0	730	2058	2857	4205	501	10.0	200	1	0	247.5431	0	2	
29	1	254.4763	0	730	2058	2857	4205	501	10.0	200	1	1	255.3152	1	2	
30	0	261.1938	0	730	2058	2857	4205	551	10.0	200	1	0	262.6248	0	0	
31	1	273.8066	1	730	2058	2857	4205	551	10.0	200	1	1	277.9964	1	0	
32	0	284.2919	0	460	1105	2857	4205	901	10.0	200	0	0	285.9238	1	5	
33	0	290.6428	0	730	2058	2857	4205	801	10.0	200	1	0	291.7353	0	5	
34	1	300.7522	0	730	2058	2857	4205	801	10.0	200	1	1	301.7866	1	5	
35	0	307.9384	0	460	1105	2857	4205	651	10.0	200	0	0	308.8343	1	0	
36	0	313.0600	1	460	1105	2857	4205	751	10.0	200	0	0	316.1126	1	2	
37	0	321.0586	0	730	2058	2857	4205	601	10.0	200	1	0	323.5112	0	4	
38	1	330.0885	0	730	2058	2857	4205	601	10.0	200	1	1	332.8167	1	4	
39	0	339.2015	0	730	2058	2857	4205	551	10.0	200	1	1	340.2090	1	5	
40	0	346.7799	0	460	1105	2857	4205	851	10.0	200	0	0	348.3465	1	3	
41	0	356.4956	0	730	2058	2857	4205	501	10.0	200	1	0	357.7967	0	4	
42	1	363.5079	0	730	2058	2857	4205	501	10.0	200	1	1	365.0202	1	4	
43	0	371.0617	0	730	2058	2857	4205	1001	10.0	200	1	0	372.1456	0	0	
44	1	378.1913	0	730	2058	2857	4205	1001	10.0	200	1	1	379.0850	1	0	
45	0	386.3821	0	730	2058	2857	4205	701	10.0	200	1	1	387.2983	1	1	
46	0	394.0807	0	460	1105	2857	4205	901	10.0	200	0	0	395.3623	1	0	
47	0	404.0707	0	730	2058	2857	4205	701	10.0	200	1	0	405.5752	0	3	
48	1	413.2405	0	730	2058	2857	4205	701	10.0	200	1	1	414.6827	1	3	
49	0	421.5482	1	460	1105	2857	4205	751	10.0	200	0	1	422.0840	0	2	
50	1	431.1810	0	460	1105	2857	4205	751	10.0	200	0	1	433.1339	0	2	
51	1	439.5699	0	460	1105	2857	4205	751	10.0	200	0	0	441.0126	1	2	
52	0	444.9251	0	730	2058	2857	4205	901	10.0	200	1	0	446.5433	0	2	
53	1	453.7384	0	730	2058	2857	4205	901	10.0	200	1	0	455.0114	0	2	
54	1	465.1799	0	730	2058	2857	4205	901	10.0	200	1	1	466.5385	1	2	
55	0	472.9674	0	460	1105	2857	4205	551	10.0	200	0	0	474.5457	1	5	
56	0	478.7166	0	460	1105	2857	4205	1001	10.0	200	0	0	480.0236	1	4	
57	0	484.5928	0	460	1105	2857	4205	501	10.0	200	0	0	486.3372	1	4	
58	0	490.5147	0	730	2058	2857	4205	651	10.0	200	1	0	492.1319	0	0	
59	1	499.0578	0	730	2058	2857	4205	651	10.0	200	1	1	500.2877	1	0	
60	0	505.9963	0	730	2058	2857	4205	851	10.0	200	1	1	507.4675	1	3	
61	0	512.8143	1	730	2058	2857	4205	601	10.0	200	1	1	514.4110	1	5	
62	0	521.5485	1	730	2058	2857	4205	951	10.0	200	1	1	524.9109	1	4	
63	0	531.1460	0	460	1105	2857	4205	651	10.0	200	0	0	532.6143	1	3	
64	0	536.6668	0	730	2058	2857	4205	901	10.0	200	1	0	537.3850	0	3	
65	1	548.7135	0	730	2058	2857	4205	901	10.0	200	1	1	549.5128	1	3	
66	0	555.0610	0	460	1105	2857	4205	551	10.0	200	0	0	556.6808	1	1	
67	0	561.7476	0	460	1105	2857	4205	1001	10.0	200	0	0	562.7127	1	0	
68	0	568.0974	0	460	1105	2857	4205	601	10.0	200	0	0	569.8941	1	2	
69	0	574.0378	0	730	2058	2857	4205	501	10.0	200	1	0	575.8096	0	1	
70	1	583.5844	0	730	2058	2857	4205	501	10.0	200	1	1	584.5535	1	1	
71	0	591.0660	1	730	2058	2857	4205	801	10.0	200	1	1	591.8725	1	2	
72	0	606.9069	1	730	2058	2857	4205	751	10.0	200	1	1	611.5376	1	2	
73	0	616.7924	0	460	1105	2857	4205	951	10.0	200	0	0	618.2629	1	4	
74	0	622.5817	1	730	2058	2857	4205	851	10.0	200	1	1	626.3318	1	1	
75	0	631.7746	0	460	1105	2857	4205	1001	10.0	200	0	0	633.6122	1	1	
76	0	637.5079	0	460	1105	2857	4205	651	10.0	200	0	0	639.0503	1	3	
77	0	643.0363	0	730	2058	2857	4205	751	10.0	200	1	1	644.6793	1	4	
78	0	651.9915	0	730	2058	2857	4205	551	10.0	200	1	1	654.1084	1	1	
79	0	660.8472	0	730	2058	2857	4205	601	10.0	200	1	1	662.2893	1	5	
80	0	668.6321	0	460	1105	2857	4205	951	10.0	200	0	0	670.3649	1	0	
81	0	674.8889	0	730	2058	2857	4205	851	10.0	200	1	0	676.0681	0	2	
82	1	683.0884	0	730	2058	2857	4205	851	10.0	200	1	1	684.5432	1	2	
83	0	689.8895	0	460	1105	2857	4205	701	10.0	200	0	0	691.6864	1	4	
84	0	696.4862	0	460	1105	2857	4205	801	10.0	200	0	0	698.0567	1	5	
85	0	702.2095	0	460	1105	2857	4205	501	10.0	200	0	0	704.0013	1	2	
86	0	707.9413	0	460	1105	2857	4205	501	10.0	200	0	0	709.9434	1	1	
87	0	714.4361	0	460	1105	2857	4205	851	10.0	200	0	0	715.9785	1	4	
88	0	722.9234	1	730	2058	2857	4205	1001	10.0	200	1	0	725.7507	0	0	
89	1	733.2554	0	730	2058	2857	4205	1001	10.0	200	1	1	734.9585	1	0	
90	0	740.6067	0	730	2058	2857	4205	751	10.0	200	1	1	742.2765	1	0	
91	0	748.6058	0	460	1105	2857	4205	551	10.0	200	0	0	750.8917	1	2	
92	0	755.4497	1	730	2058	2857	4205	601	10.0	200	1	1	759.0112	1	5	
93	0	764.2518	0	460	1105	2857	4205	651	10.0	200	0	0	766.0227	1	3	
94	0	770.7034	0	730	2058	2857	4205	801	10.0	200	1	0	772.5368	0	4	
95	1	778.5664	0	730	2058	2857	4205	801	10.0	200	1	1	780.0902	1	4	
96	0	785.1492	0	460	1105	2857	4205	701	10.0	200	0	1	787.5331	0	0	
97	1	796.3671	0	460	1105	2857	4205	701	10.0	200	0	0	797.9411	1	0	
98	0	802.3017	0	460	1105	2857	4205	901	10.0	200	0	0	803.9404	1	5	
99	0	808.3288	1	460	1105	2857	4205	801	10.0	200	0	0	811.6837	1	5	
100	0	816.1421	1	730	2058	2857	4205	551	10.0	200	1	1	820.3391	1	3	
101	0	825.3741	0	730	2058	2857	4205	901	10.0	200	1	0	827.1586	0	4	
102	1	836.0455	0	730	2058	2857	4205	901	10.0	200	1	1	837.0672	1	4	
103	0	842.0762	0	460	1105	2857	4205	651	10.0	200	0	0	843.1935	1	1	
104	0	847.8296	0	460	1105	2857	4205	951	10.0	200	0	0	849.7626	1	5	
105	0	853.7036	0	460	1105	2857	4205	501	10.0	200	0	0	855.8487	1	1	
106	0	860.4641	0	460	1105	2857	4205	1001	10.0	200	0	0	861.4845	1	4	
107	0	865.8494	0	730	2058	2857	4205	751	10.0	200	1	0	867.9489	0	1	
108	1	874.5277	0	730	2058	2857	4205	751	10.0	200	1	1	876.1758	1	1	
109	0	881.6678	0	730	2058	2857	4205	701	10.0	200	1	1	883.2113	1	1	
110	0	887.7797	0	460	1105	2857	4205	601	10.0	200	0	0	889.5958	1	4	
111	0	893.4741	0	460	1105	2857	4205	601	10.0	200	0	0	895.3825	1	3	
112	0	900.2513	0	730	2058	2857	4205	901	10.0	200	1	1	901.6268	1	0	
113	0	906.8184	0	460	1105	2857	4205	501	10.0	200	0	1	908.4242	0	2	
