Trial	CorrectionTrial?	StartTime	CenterReward?	F1	F2	F3	F4	HoldTime	Atten	Pitch	Side	Response	RespTime	Correct	SpatialMask	
1	0	3.8319	0	730	2058	2857	4205	951	-17.0	200	0	1	4.6430	0	5	
2	1	21.0514	0	730	2058	2857	4205	951	-17.0	200	0	1	21.5179	0	5	
3	1	36.8270	0	730	2058	2857	4205	951	-17.0	200	0	1	37.0622	0	5	
4	1	43.6622	0	730	2058	2857	4205	951	-17.0	200	0	0	44.3137	1	5	
5	0	49.0635	0	730	2058	2857	4205	801	-17.0	200	0	0	49.5707	1	5	
6	0	55.0769	1	730	2058	2857	4205	1001	-17.0	200	0	0	55.5892	1	2	
7	0	59.8557	0	730	2058	2857	4205	601	-17.0	200	0	0	60.6556	1	0	
8	0	64.7077	0	730	2058	2857	4205	751	-17.0	200	0	0	65.1254	1	2	
9	0	69.9315	0	460	1105	2857	4205	551	-15.0	200	1	1	70.2920	1	4	
10	0	74.3047	0	460	1105	2857	4205	901	-15.0	200	1	0	74.8719	0	2	
11	1	79.6115	0	460	1105	2857	4205	901	-15.0	200	1	1	79.8782	1	2	
12	0	84.2348	0	460	1105	2857	4205	701	-15.0	200	1	1	84.6730	1	5	
13	0	89.1886	0	730	2058	2857	4205	501	-17.0	200	0	1	89.8882	0	3	
14	1	95.8773	0	730	2058	2857	4205	501	-17.0	200	0	0	96.9495	1	3	
15	0	101.2282	0	730	2058	2857	4205	851	-17.0	200	0	0	101.6536	1	1	
16	0	105.8836	0	460	1105	2857	4205	901	-15.0	200	1	1	106.1634	1	5	
17	0	110.0969	0	460	1105	2857	4205	851	-15.0	200	1	1	110.7030	1	4	
18	0	114.4527	0	460	1105	2857	4205	601	-15.0	200	1	1	115.1184	1	3	
19	0	118.4800	1	730	2058	2857	4205	501	-17.0	200	0	0	120.6112	1	3	
20	0	138.4781	0	460	1105	2857	4205	951	-15.0	200	1	0	138.9576	0	1	
21	1	146.5140	0	460	1105	2857	4205	951	-15.0	200	1	0	147.4800	0	1	
22	1	163.4577	1	460	1105	2857	4205	951	-15.0	200	1	0	163.7910	0	1	
23	1	178.3298	0	460	1105	2857	4205	951	-15.0	200	1	1	179.3288	1	1	
24	0	183.3660	1	460	1105	2857	4205	651	-15.0	200	1	1	183.9256	1	3	
25	0	188.2772	0	730	2058	2857	4205	801	-17.0	200	0	0	191.2402	1	4	
26	0	195.8239	0	460	1105	2857	4205	751	-15.0	200	1	0	196.3363	0	2	
27	1	200.2290	0	460	1105	2857	4205	751	-15.0	200	1	1	200.5816	1	2	
28	0	209.6316	0	730	2058	2857	4205	1001	-17.0	200	0	0	210.2309	1	2	
29	0	214.7064	0	730	2058	2857	4205	551	-17.0	200	0	1	215.4798	0	5	
30	1	219.4101	0	730	2058	2857	4205	551	-17.0	200	0	0	219.9696	1	5	
31	0	227.9782	1	730	2058	2857	4205	951	-17.0	200	0	0	228.4160	1	1	
32	0	232.5233	0	730	2058	2857	4205	851	-17.0	200	0	0	234.4929	1	4	
33	0	238.9442	0	460	1105	2857	4205	651	-15.0	200	1	1	239.6495	1	5	
34	0	242.9067	0	730	2058	2857	4205	501	-17.0	200	0	0	244.1946	1	0	
35	0	248.0254	0	460	1105	2857	4205	751	-15.0	200	1	0	248.7219	0	0	
36	1	254.3187	0	460	1105	2857	4205	751	-15.0	200	1	1	254.5371	1	0	
37	0	258.0445	0	460	1105	2857	4205	601	-15.0	200	1	0	259.0310	0	0	
38	1	266.0303	0	460	1105	2857	4205	601	-15.0	200	1	1	266.8245	1	0	
39	0	270.1516	0	460	1105	2857	4205	701	-15.0	200	1	0	270.7579	0	3	
40	1	274.6293	0	460	1105	2857	4205	701	-15.0	200	1	1	275.2324	1	3	
41	0	283.5188	0	730	2058	2857	4205	1001	-17.0	200	0	0	284.0397	1	1	
42	0	287.8919	0	460	1105	2857	4205	901	-15.0	200	1	1	288.2814	1	1	
43	0	291.8973	0	730	2058	2857	4205	801	-17.0	200	0	0	292.2395	1	3	
44	0	296.1679	0	460	1105	2857	4205	751	-15.0	200	1	0	296.4891	0	0	
45	1	306.4313	0	460	1105	2857	4205	751	-15.0	200	1	1	306.6892	1	0	
46	0	310.4258	0	730	2058	2857	4205	801	-17.0	200	0	0	310.8767	1	0	
47	0	314.7484	0	460	1105	2857	4205	701	-15.0	200	1	1	315.3712	1	2	
48	0	319.2383	0	460	1105	2857	4205	851	-15.0	200	1	0	320.0805	0	1	
49	1	327.9786	0	460	1105	2857	4205	851	-15.0	200	1	1	328.4550	1	1	
50	0	332.2358	0	730	2058	2857	4205	601	-17.0	200	0	0	333.5588	1	4	
51	0	337.5541	0	460	1105	2857	4205	651	-15.0	200	1	1	337.9214	1	4	
52	0	341.4623	0	460	1105	2857	4205	901	-15.0	200	1	1	341.7536	1	0	
53	0	345.2533	0	460	1105	2857	4205	551	-15.0	200	1	1	346.0041	1	3	
54	0	349.3845	0	460	1105	2857	4205	951	-15.0	200	1	1	349.8268	1	3	
55	0	353.0589	0	460	1105	2857	4205	501	-15.0	200	1	1	353.6150	1	2	
56	0	357.0947	0	460	1105	2857	4205	751	-15.0	200	1	1	357.5289	1	5	
57	0	361.5004	0	730	2058	2857	4205	951	-17.0	200	0	0	362.2102	1	1	
58	0	365.3056	0	730	2058	2857	4205	551	-17.0	200	0	1	366.1639	0	5	
59	1	370.8086	0	730	2058	2857	4205	551	-17.0	200	0	1	371.4372	0	5	
60	1	375.7386	0	730	2058	2857	4205	551	-17.0	200	0	0	376.2976	1	5	
61	0	380.4193	0	730	2058	2857	4205	851	-17.0	200	0	0	382.5944	1	3	
62	0	386.2777	0	730	2058	2857	4205	651	-17.0	200	0	1	386.8607	0	1	
63	1	391.8301	0	730	2058	2857	4205	651	-17.0	200	0	1	392.3072	0	1	
64	1	396.4784	0	730	2058	2857	4205	651	-17.0	200	0	0	398.1392	1	1	
65	0	402.8307	0	730	2058	2857	4205	601	-17.0	200	0	0	403.2982	1	4	
66	0	406.9643	0	460	1105	2857	4205	501	-15.0	200	1	0	408.1709	0	1	
67	1	414.0465	1	460	1105	2857	4205	501	-15.0	200	1	1	414.8270	1	1	
68	0	418.3755	0	730	2058	2857	4205	901	-17.0	200	0	0	421.5108	1	4	
69	0	425.5051	0	730	2058	2857	4205	1001	-17.0	200	0	0	425.9257	1	0	
70	0	429.9771	0	460	1105	2857	4205	701	-15.0	200	1	1	430.8157	1	1	
71	0	443.7383	0	730	2058	2857	4205	1001	-17.0	200	0	0	444.1686	1	1	
72	0	447.7611	0	730	2058	2857	4205	651	-17.0	200	0	0	448.3940	1	0	
73	0	451.9836	0	730	2058	2857	4205	751	-17.0	200	0	0	452.4063	1	2	
74	0	456.0724	0	460	1105	2857	4205	851	-15.0	200	1	0	456.5133	0	3	
75	1	461.8413	0	460	1105	2857	4205	851	-15.0	200	1	1	462.2458	1	3	
76	0	465.2805	0	730	2058	2857	4205	551	-17.0	200	0	1	466.2987	0	0	
77	1	470.0099	0	730	2058	2857	4205	551	-17.0	200	0	0	471.2061	1	0	
78	0	474.9074	0	730	2058	2857	4205	801	-17.0	200	0	0	475.3186	1	2	
79	0	478.9180	0	460	1105	2857	4205	901	-15.0	200	1	1	479.3856	1	2	
80	0	482.7369	0	730	2058	2857	4205	951	-17.0	200	0	0	483.2578	1	4	
81	0	487.1063	0	460	1105	2857	4205	601	-15.0	200	1	1	487.6114	1	4	
82	0	491.0277	0	730	2058	2857	4205	501	-17.0	200	0	0	492.8057	1	3	
83	0	496.6111	0	730	2058	2857	4205	801	-17.0	200	0	0	497.2011	1	2	
84	0	500.6688	0	460	1105	2857	4205	551	-15.0	200	1	1	501.1114	1	5	
85	0	504.2879	0	460	1105	2857	4205	851	-15.0	200	1	1	504.6887	1	4	
86	0	508.5043	0	730	2058	2857	4205	1001	-17.0	200	0	0	509.5691	1	5	
87	0	512.7839	0	730	2058	2857	4205	601	-17.0	200	0	1	513.4565	0	3	
88	1	518.1071	0	730	2058	2857	4205	601	-17.0	200	0	1	518.4559	0	3	
89	1	523.9025	0	730	2058	2857	4205	601	-17.0	200	0	0	524.5494	1	3	
90	0	529.3061	0	460	1105	2857	4205	951	-15.0	200	1	1	529.6017	1	2	
91	0	537.1570	0	460	1105	2857	4205	901	-15.0	200	1	1	537.4123	1	0	
92	0	543.2461	1	730	2058	2857	4205	701	-17.0	200	0	1	544.0463	0	5	
93	1	553.2203	0	730	2058	2857	4205	701	-17.0	200	0	0	554.0566	1	5	
94	0	558.0494	0	460	1105	2857	4205	751	-15.0	200	1	1	558.5159	1	5	
95	0	561.5520	0	460	1105	2857	4205	501	-15.0	200	1	1	562.2800	1	4	
96	0	565.9337	0	460	1105	2857	4205	751	-15.0	200	1	1	566.3718	1	0	
97	0	569.7713	0	460	1105	2857	4205	601	-15.0	200	1	1	570.1356	1	1	
98	0	574.1647	0	460	1105	2857	4205	801	-15.0	200	1	1	574.4219	1	4	
99	0	588.0439	0	460	1105	2857	4205	1001	-15.0	200	1	0	588.6614	0	3	
100	1	596.3926	0	460	1105	2857	4205	1001	-15.0	200	1	1	597.7889	1	3	
101	0	601.6655	0	460	1105	2857	4205	851	-15.0	200	1	1	601.9849	1	2	
102	0	605.8696	0	460	1105	2857	4205	901	-15.0	200	1	1	606.4518	1	2	
103	0	609.8139	0	730	2058	2857	4205	551	-17.0	200	0	0	610.8642	1	5	
104	0	614.7210	1	460	1105	2857	4205	951	-15.0	200	1	1	615.0608	1	4	
105	0	617.9084	0	730	2058	2857	4205	501	-17.0	200	0	1	621.1000	0	4	
106	1	626.7985	0	730	2058	2857	4205	501	-17.0	200	0	0	628.5075	1	4	
107	0	631.6284	1	730	2058	2857	4205	651	-17.0	200	0	0	632.2584	1	1	
108	0	635.5834	0	730	2058	2857	4205	851	-17.0	200	0	0	638.2488	1	4	
109	0	641.5211	0	730	2058	2857	4205	751	-17.0	200	0	0	642.2431	1	3	
110	0	645.3369	0	460	1105	2857	4205	551	-15.0	200	1	1	645.9530	1	5	
111	0	651.4491	0	730	2058	2857	4205	901	-17.0	200	0	1	651.8900	0	0	
112	1	656.8852	0	730	2058	2857	4205	901	-17.0	200	0	0	657.2975	1	0	
113	0	661.0382	0	730	2058	2857	4205	701	-17.0	200	0	0	661.9066	1	1	
114	0	665.4157	0	730	2058	2857	4205	1001	-17.0	200	0	1	665.8559	0	2	
115	1	670.5469	0	730	2058	2857	4205	1001	-17.0	200	0	0	673.2026	1	2	
116	0	676.1519	0	460	1105	2857	4205	601	-15.0	200	1	1	676.7199	1	1	
117	0	682.5249	0	730	2058	2857	4205	951	-17.0	200	0	0	682.8857	1	2	
118	0	686.1987	1	460	1105	2857	4205	501	-15.0	200	1	1	687.1081	1	3	
119	0	689.8991	0	730	2058	2857	4205	651	-17.0	200	0	0	692.8622	1	2	
120	0	696.6844	0	460	1105	2857	4205	801	-15.0	200	1	1	697.3165	1	0	
121	0	700.2265	0	730	2058	2857	4205	601	-17.0	200	0	1	700.8272	0	4	
122	1	706.4002	0	730	2058	2857	4205	601	-17.0	200	0	0	707.6980	1	4	
123	0	710.8988	0	730	2058	2857	4205	551	-17.0	200	0	0	712.1220	1	0	
124	0	715.2894	1	730	2058	2857	4205	651	-17.0	200	0	0	716.0253	1	3	
125	0	720.4089	0	460	1105	2857	4205	1001	-15.0	200	1	0	722.7486	0	0	
126	1	728.6377	0	460	1105	2857	4205	1001	-15.0	200	1	1	728.9156	1	0	
127	0	732.2611	0	730	2058	2857	4205	751	-17.0	200	0	0	733.5210	1	5	
128	0	737.0814	0	460	1105	2857	4205	501	-15.0	200	1	0	737.6078	0	1	
129	1	741.9576	1	460	1105	2857	4205	501	-15.0	200	1	1	742.6259	1	1	
130	0	745.7729	0	460	1105	2857	4205	901	-15.0	200	1	1	748.3612	1	5	
131	0	751.5582	0	730	2058	2857	4205	701	-17.0	200	0	0	752.7367	1	3	
132	0	756.6436	0	460	1105	2857	4205	851	-15.0	200	1	1	757.1205	1	4	
133	0	760.8244	0	460	1105	2857	4205	551	-15.0	200	1	1	761.3242	1	0	
134	0	774.7586	0	460	1105	2857	4205	1001	-15.0	200	1	1	775.1741	1	1	
135	0	778.9829	0	460	1105	2857	4205	751	-15.0	200	1	1	779.3852	1	3	
136	0	782.7169	0	730	2058	2857	4205	501	-17.0	200	0	1	783.2937	0	1	
137	1	789.3643	0	730	2058	2857	4205	501	-17.0	200	0	0	790.2836	1	1	
138	0	793.5712	0	460	1105	2857	4205	651	-15.0	200	1	0	794.5163	0	2	
139	1	801.0678	0	460	1105	2857	4205	651	-15.0	200	1	1	801.4948	1	2	
140	0	804.8457	1	730	2058	2857	4205	851	-17.0	200	0	1	805.1798	0	5	
141	1	814.6578	0	730	2058	2857	4205	851	-17.0	200	0	0	815.7453	1	5	
142	0	819.2269	0	460	1105	2857	4205	901	-15.0	200	1	1	819.7845	1	5	
143	0	823.0366	0	730	2058	2857	4205	601	-17.0	200	0	1	825.9645	0	0	
144	1	830.0127	0	730	2058	2857	4205	601	-17.0	200	0	0	831.9206	1	0	
145	0	835.2621	0	460	1105	2857	4205	701	-15.0	200	1	1	835.8815	1	4	
146	0	839.1192	0	460	1105	2857	4205	801	-15.0	200	1	0	840.0963	0	3	
147	1	846.4268	1	460	1105	2857	4205	801	-15.0	200	1	0	847.6711	0	3	
148	1	857.7445	0	460	1105	2857	4205	801	-15.0	200	1	1	858.0234	1	3	
149	0	862.1996	0	460	1105	2857	4205	851	-15.0	200	1	1	862.5897	1	4	
150	0	866.0095	0	460	1105	2857	4205	551	-15.0	200	1	1	866.5475	1	1	
151	0	877.1346	1	460	1105	2857	4205	951	-15.0	200	1	0	878.0686	0	5	
152	1	887.0872	0	460	1105	2857	4205	951	-15.0	200	1	1	887.5260	1	5	
153	0	891.2003	0	730	2058	2857	4205	651	-17.0	200	0	0	892.7110	1	4	
154	0	896.3260	0	730	2058	2857	4205	901	-17.0	200	0	0	897.0624	1	5	
155	0	900.3645	1	460	1105	2857	4205	801	-15.0	200	1	1	900.8935	1	3	
156	0	903.9238	0	730	2058	2857	4205	701	-17.0	200	0	1	907.1986	0	4	
157	1	917.5827	0	730	2058	2857	4205	701	-17.0	200	0	0	919.1014	1	4	
158	0	922.0210	0	460	1105	2857	4205	501	-15.0	200	1	1	922.9656	1	5	
159	0	926.5756	0	730	2058	2857	4205	751	-17.0	200	0	1	938.4559	0	1	
160	1	943.6303	0	730	2058	2857	4205	751	-17.0	200	0	0	944.4763	1	1	
161	0	948.4412	0	730	2058	2857	4205	1001	-17.0	200	0	0	948.8236	1	4	
162	0	953.5845	0	730	2058	2857	4205	851	-17.0	200	0	1	954.3487	0	0	
