Trial	CorrectionTrial?	StartTime	CenterReward?	F1	F2	F3	F4	HoldTime	Atten	Pitch	Side	Response	RespTime	Correct	SpatialMask	
1	0	89.1472	0	730	2058	2857	4205	851	10.0	200	0	1	89.7578	0	3	
2	1	97.7033	0	730	2058	2857	4205	851	10.0	200	0	1	98.4812	0	3	
3	1	102.6108	0	730	2058	2857	4205	851	10.0	200	0	0	104.9232	1	3	
4	0	121.5060	1	460	1105	2857	4205	901	10.0	200	1	0	125.7785	0	5	
5	1	130.3450	0	460	1105	2857	4205	901	10.0	200	1	1	131.2741	1	5	
6	0	140.8015	0	730	2058	2857	4205	501	10.0	200	0	0	143.0548	1	2	
7	0	150.3537	0	730	2058	2857	4205	701	10.0	200	0	0	151.7736	1	1	
8	0	166.9420	0	730	2058	2857	4205	751	10.0	200	0	1	167.3964	0	1	
9	1	174.8125	0	730	2058	2857	4205	751	10.0	200	0	0	176.0531	1	1	
10	0	181.1647	0	730	2058	2857	4205	801	10.0	200	0	0	182.0544	1	4	
11	0	187.3720	0	730	2058	2857	4205	551	10.0	200	0	0	188.2496	1	5	
12	0	203.6473	0	460	1105	2857	4205	1001	10.0	200	1	1	204.2540	1	2	
13	0	218.8419	0	460	1105	2857	4205	951	10.0	200	1	0	220.0081	0	4	
14	1	227.0120	0	460	1105	2857	4205	951	10.0	200	1	1	228.0208	1	4	
15	0	236.5778	0	460	1105	2857	4205	651	10.0	200	1	0	237.3997	0	4	
16	1	244.1430	0	460	1105	2857	4205	651	10.0	200	1	1	245.0380	1	4	
17	0	255.6899	0	730	2058	2857	4205	651	10.0	200	0	0	256.9311	1	2	
18	0	261.7615	1	730	2058	2857	4205	501	10.0	200	0	0	265.4329	1	5	
19	0	274.0988	0	460	1105	2857	4205	701	10.0	200	1	0	274.5902	0	1	
20	1	282.7642	0	460	1105	2857	4205	701	10.0	200	1	1	283.4960	1	1	
21	0	294.1073	0	460	1105	2857	4205	951	10.0	200	1	0	295.1356	0	3	
22	1	304.8042	0	460	1105	2857	4205	951	10.0	200	1	1	305.5122	1	3	
23	0	316.7433	0	460	1105	2857	4205	901	10.0	200	1	0	317.6501	0	2	
24	1	322.6341	0	460	1105	2857	4205	901	10.0	200	1	0	323.4072	0	2	
25	1	330.2025	0	460	1105	2857	4205	901	10.0	200	1	1	330.7381	1	2	
26	0	343.9793	0	460	1105	2857	4205	551	10.0	200	1	0	345.3864	0	1	
27	1	354.8912	0	460	1105	2857	4205	551	10.0	200	1	0	356.5201	0	1	
28	1	369.5231	0	460	1105	2857	4205	551	10.0	200	1	1	370.1608	1	1	
29	0	382.8477	0	730	2058	2857	4205	851	10.0	200	0	0	384.3685	1	1	
30	0	391.5554	0	460	1105	2857	4205	1001	10.0	200	1	0	392.8108	0	5	
31	1	405.3857	0	460	1105	2857	4205	1001	10.0	200	1	1	405.7516	1	5	
32	0	416.2467	0	730	2058	2857	4205	801	10.0	200	0	0	416.7492	1	5	
33	0	424.0253	0	730	2058	2857	4205	751	10.0	200	0	0	425.0449	1	0	
34	0	431.9872	0	460	1105	2857	4205	901	10.0	200	1	0	433.0931	0	2	
35	1	439.2685	0	460	1105	2857	4205	901	10.0	200	1	1	439.6711	1	2	
36	0	454.8931	0	460	1105	2857	4205	701	10.0	200	1	0	455.7095	0	3	
37	1	461.5943	0	460	1105	2857	4205	701	10.0	200	1	1	462.6006	1	3	
38	0	471.3434	0	460	1105	2857	4205	1001	10.0	200	1	0	472.4713	0	5	
39	1	479.8435	0	460	1105	2857	4205	1001	10.0	200	1	1	480.8085	1	5	
40	0	488.4068	0	460	1105	2857	4205	851	10.0	200	1	1	489.2778	1	0	
41	0	495.3668	0	730	2058	2857	4205	751	10.0	200	0	0	496.0966	1	2	
42	0	501.0192	0	460	1105	2857	4205	501	10.0	200	1	0	501.8144	0	3	
43	1	512.6611	1	460	1105	2857	4205	501	10.0	200	1	0	517.4179	0	3	
44	1	522.8449	0	460	1105	2857	4205	501	10.0	200	1	0	524.2309	0	3	
45	1	531.9297	0	460	1105	2857	4205	501	10.0	200	1	1	533.0050	1	3	
46	0	540.0960	1	460	1105	2857	4205	551	10.0	200	1	0	544.1513	0	1	
47	1	550.8964	0	460	1105	2857	4205	551	10.0	200	1	1	551.5738	1	1	
48	0	563.7573	0	730	2058	2857	4205	951	10.0	200	0	0	565.6176	1	0	
49	0	570.6895	0	460	1105	2857	4205	601	10.0	200	1	1	571.5900	1	4	
50	0	574.8850	0	460	1105	2857	4205	651	10.0	200	1	0	576.0949	0	0	
51	1	581.6197	0	460	1105	2857	4205	651	10.0	200	1	0	582.7516	0	0	
52	1	591.1744	0	460	1105	2857	4205	651	10.0	200	1	1	591.9741	1	0	
53	0	599.5220	1	730	2058	2857	4205	751	10.0	200	0	0	604.5558	1	4	
54	0	610.5598	0	730	2058	2857	4205	951	10.0	200	0	0	611.4276	1	0	
55	0	616.3642	0	730	2058	2857	4205	851	10.0	200	0	1	617.1202	0	3	
56	1	621.2834	0	730	2058	2857	4205	851	10.0	200	0	0	621.8498	1	3	
57	0	626.3473	0	730	2058	2857	4205	601	10.0	200	0	0	627.4238	1	4	
58	0	632.2239	0	460	1105	2857	4205	651	10.0	200	1	0	632.7133	0	0	
59	1	641.2613	0	460	1105	2857	4205	651	10.0	200	1	1	641.6507	1	0	
60	0	645.7392	0	730	2058	2857	4205	901	10.0	200	0	0	646.9772	1	3	
61	0	655.0843	0	730	2058	2857	4205	801	10.0	200	0	1	655.8038	0	2	
62	1	662.8713	0	730	2058	2857	4205	801	10.0	200	0	1	663.2612	0	2	
63	1	667.9287	0	730	2058	2857	4205	801	10.0	200	0	1	668.7822	0	2	
64	1	674.3268	0	730	2058	2857	4205	801	10.0	200	0	0	675.3087	1	2	
65	0	680.2321	0	730	2058	2857	4205	1001	10.0	200	0	0	680.7353	1	0	
66	0	685.5160	0	460	1105	2857	4205	701	10.0	200	1	1	686.0464	1	4	
67	0	689.0035	0	730	2058	2857	4205	501	10.0	200	0	0	689.4758	1	3	
68	0	694.3864	0	460	1105	2857	4205	951	10.0	200	1	0	694.8825	0	1	
69	1	700.2109	0	460	1105	2857	4205	951	10.0	200	1	1	701.0188	1	1	
70	0	704.9736	0	730	2058	2857	4205	551	10.0	200	0	0	705.9416	1	5	
71	0	711.1634	0	730	2058	2857	4205	651	10.0	200	0	1	711.7210	0	3	
72	1	715.5688	0	730	2058	2857	4205	651	10.0	200	0	1	716.0601	0	3	
73	1	722.0444	1	730	2058	2857	4205	651	10.0	200	0	0	725.4777	1	3	
74	0	729.5887	0	460	1105	2857	4205	1001	10.0	200	1	1	729.9254	1	1	
75	0	738.2398	0	730	2058	2857	4205	801	10.0	200	0	0	739.3767	1	0	
76	0	746.5466	0	730	2058	2857	4205	751	10.0	200	0	1	747.0978	0	0	
77	1	751.5519	0	730	2058	2857	4205	751	10.0	200	0	1	751.9260	0	0	
78	1	757.2566	0	730	2058	2857	4205	751	10.0	200	0	0	758.1072	1	0	
79	0	770.2349	0	460	1105	2857	4205	851	10.0	200	1	1	771.2027	1	2	
80	0	780.4043	0	730	2058	2857	4205	901	10.0	200	0	0	781.1399	1	1	
81	0	784.9811	0	460	1105	2857	4205	601	10.0	200	1	1	785.3955	1	3	
82	0	791.2106	0	460	1105	2857	4205	701	10.0	200	1	1	791.5816	1	4	
83	0	800.5417	0	460	1105	2857	4205	1001	10.0	200	1	1	800.8181	1	5	
84	0	806.3050	0	730	2058	2857	4205	901	10.0	200	0	1	806.7351	0	3	
85	1	811.0669	0	730	2058	2857	4205	901	10.0	200	0	0	811.9267	1	3	
86	0	816.6097	0	460	1105	2857	4205	501	10.0	200	1	1	817.1627	1	3	
87	0	820.6513	0	730	2058	2857	4205	801	10.0	200	0	0	821.6146	1	2	
88	0	828.4919	1	460	1105	2857	4205	851	10.0	200	1	1	829.0122	1	5	
89	0	832.6019	0	460	1105	2857	4205	701	10.0	200	1	1	834.2326	1	4	
90	0	838.1335	0	460	1105	2857	4205	651	10.0	200	1	0	839.6620	0	5	
91	1	844.7602	0	460	1105	2857	4205	651	10.0	200	1	1	846.1213	1	5	
92	0	852.3385	1	730	2058	2857	4205	951	10.0	200	0	0	853.1586	1	2	
93	0	857.9239	0	730	2058	2857	4205	601	10.0	200	0	0	860.1849	1	1	
94	0	864.1557	0	730	2058	2857	4205	551	10.0	200	0	1	864.8812	0	4	
95	1	871.2138	0	730	2058	2857	4205	551	10.0	200	0	0	872.4966	1	4	
96	0	876.7765	0	730	2058	2857	4205	651	10.0	200	0	1	877.2088	0	1	
97	1	881.2179	0	730	2058	2857	4205	651	10.0	200	0	1	881.6628	0	1	
98	1	886.3620	0	730	2058	2857	4205	651	10.0	200	0	1	886.7827	0	1	
99	1	890.8886	1	730	2058	2857	4205	651	10.0	200	0	0	894.1960	1	1	
100	0	898.2594	1	460	1105	2857	4205	601	10.0	200	1	0	899.2189	0	2	
101	1	910.8722	0	460	1105	2857	4205	601	10.0	200	1	1	911.3475	1	2	
102	0	917.6257	0	460	1105	2857	4205	951	10.0	200	1	0	918.7013	0	3	
103	1	932.9598	0	460	1105	2857	4205	951	10.0	200	1	0	933.8880	0	3	
104	1	943.4018	0	460	1105	2857	4205	951	10.0	200	1	1	944.2125	1	3	
105	0	951.7690	0	460	1105	2857	4205	1001	10.0	200	1	0	952.7969	0	1	
106	1	959.7448	1	460	1105	2857	4205	1001	10.0	200	1	1	960.1556	1	1	
107	0	964.2720	0	730	2058	2857	4205	801	10.0	200	0	0	967.0767	1	4	
108	0	971.3735	0	730	2058	2857	4205	551	10.0	200	0	0	972.5381	1	4	
109	0	976.7595	0	460	1105	2857	4205	851	10.0	200	1	1	977.3463	1	2	
110	0	980.5527	0	730	2058	2857	4205	701	10.0	200	0	0	981.8925	1	5	
111	0	987.0812	0	460	1105	2857	4205	751	10.0	200	1	0	987.9132	0	0	
112	1	995.1551	0	460	1105	2857	4205	751	10.0	200	1	1	995.8382	1	0	
113	0	999.6243	0	730	2058	2857	4205	901	10.0	200	0	0	1001.0128	1	5	
114	0	1008.6849	0	460	1105	2857	4205	1001	10.0	200	1	1	1009.0357	1	0	
115	0	1012.9229	0	460	1105	2857	4205	701	10.0	200	1	1	1013.4014	1	0	
116	0	1017.7785	0	730	2058	2857	4205	651	10.0	200	0	0	1018.8429	1	5	
117	0	1023.5050	0	460	1105	2857	4205	801	10.0	200	1	1	1024.3735	1	0	
118	0	1027.8093	0	460	1105	2857	4205	551	10.0	200	1	1	1028.2960	1	0	
119	0	1034.6877	0	460	1105	2857	4205	951	10.0	200	1	1	1035.0988	1	5	
120	0	1038.1181	0	730	2058	2857	4205	501	10.0	200	0	1	1038.8975	0	1	
121	1	1043.1464	1	730	2058	2857	4205	501	10.0	200	0	0	1046.3632	1	1	
122	0	1052.2563	0	460	1105	2857	4205	851	10.0	200	1	0	1052.8839	0	3	
123	1	1058.0473	0	460	1105	2857	4205	851	10.0	200	1	1	1058.7408	1	3	
124	0	1062.7218	0	730	2058	2857	4205	751	10.0	200	0	0	1063.5488	1	2	
125	0	1068.4812	0	460	1105	2857	4205	901	10.0	200	1	1	1069.3518	1	0	
126	0	1072.7755	0	460	1105	2857	4205	801	10.0	200	1	1	1073.8163	1	5	
127	0	1077.2219	0	460	1105	2857	4205	651	10.0	200	1	1	1078.1531	1	2	
128	0	1086.9572	0	460	1105	2857	4205	1001	10.0	200	1	0	1088.1263	0	1	
129	1	1095.8307	1	460	1105	2857	4205	1001	10.0	200	1	1	1096.2135	1	1	
130	0	1106.1942	0	460	1105	2857	4205	701	10.0	200	1	0	1107.1740	0	3	
131	1	1111.7502	0	460	1105	2857	4205	701	10.0	200	1	1	1112.0873	1	3	
132	0	1115.3054	0	730	2058	2857	4205	601	10.0	200	0	1	1115.7983	0	1	
133	1	1120.0505	0	730	2058	2857	4205	601	10.0	200	0	0	1121.7996	1	1	
134	0	1126.2099	0	730	2058	2857	4205	551	10.0	200	0	0	1127.5503	1	4	
135	0	1137.6549	0	730	2058	2857	4205	951	10.0	200	0	0	1138.6137	1	0	
136	0	1142.3423	1	460	1105	2857	4205	501	10.0	200	1	1	1143.2228	1	2	
137	0	1146.3570	0	460	1105	2857	4205	751	10.0	200	1	0	1148.6342	0	2	
138	1	1156.7173	0	460	1105	2857	4205	751	10.0	200	1	1	1157.2924	1	2	
139	0	1165.2760	0	730	2058	2857	4205	851	10.0	200	0	0	1166.2091	1	0	
140	0	1170.3946	0	730	2058	2857	4205	601	10.0	200	0	0	1171.4589	1	5	
141	0	1175.6981	0	460	1105	2857	4205	701	10.0	200	1	0	1176.8132	0	4	
142	1	1182.2270	0	460	1105	2857	4205	701	10.0	200	1	1	1182.9080	1	4	
143	0	1193.0016	1	460	1105	2857	4205	951	10.0	200	1	0	1196.9385	0	5	
144	1	1203.2268	0	460	1105	2857	4205	951	10.0	200	1	1	1203.8677	1	5	
145	0	1219.0487	0	730	2058	2857	4205	901	10.0	200	0	1	1219.6226	0	3	
146	1	1226.1058	0	730	2058	2857	4205	901	10.0	200	0	0	1226.7020	1	3	
147	0	1231.3627	0	460	1105	2857	4205	501	10.0	200	1	1	1231.8986	1	1	
148	0	1234.9856	0	730	2058	2857	4205	651	10.0	200	0	1	1235.5435	0	5	
149	1	1241.9473	1	730	2058	2857	4205	651	10.0	200	0	0	1245.9115	1	5	
150	0	1250.1720	0	730	2058	2857	4205	851	10.0	200	0	0	1250.7683	1	2	
151	0	1255.3767	0	460	1105	2857	4205	751	10.0	200	1	1	1255.9444	1	1	
152	0	1259.5002	0	460	1105	2857	4205	1001	10.0	200	1	1	1260.0460	1	4	
153	0	1263.4756	0	730	2058	2857	4205	801	10.0	200	0	1	1264.2551	0	2	
154	1	1269.0742	0	730	2058	2857	4205	801	10.0	200	0	0	1269.9513	1	2	
155	0	1273.3046	0	730	2058	2857	4205	701	10.0	200	0	0	1274.3552	1	4	
156	0	1279.1525	0	730	2058	2857	4205	501	10.0	200	0	1	1279.9122	0	1	
157	1	1284.2999	0	730	2058	2857	4205	501	10.0	200	0	0	1285.3441	1	1	
158	0	1288.0078	0	730	2058	2857	4205	951	10.0	200	0	0	1289.0010	1	4	
159	0	1294.1564	0	460	1105	2857	4205	551	10.0	200	1	0	1295.3838	0	4	
160	1	1302.1992	0	460	1105	2857	4205	551	10.0	200	1	1	1303.0271	1	4	
161	0	1306.1948	0	730	2058	2857	4205	651	10.0	200	0	1	1306.9565	0	3	
162	1	1311.0858	0	730	2058	2857	4205	651	10.0	200	0	0	1312.0551	1	3	
163	0	1316.2927	0	730	2058	2857	4205	601	10.0	200	0	1	1316.9292	0	0	
164	1	1321.3893	0	730	2058	2857	4205	601	10.0	200	0	0	1322.4586	1	0	
165	0	1327.2729	0	460	1105	2857	4205	1001	10.0	200	1	1	1327.6839	1	3	
166	0	1330.9889	0	730	2058	2857	4205	751	10.0	200	0	0	1331.6938	1	3	
167	0	1335.8762	0	460	1105	2857	4205	851	10.0	200	1	0	1338.0769	0	4	
168	1	1349.2875	0	460	1105	2857	4205	851	10.0	200	1	1	1350.0889	1	4	
169	0	1353.2413	0	460	1105	2857	4205	801	10.0	200	1	1	1353.7821	1	5	
170	0	1357.3829	1	460	1105	2857	4205	851	10.0	200	1	1	1357.7712	1	5	
171	0	1360.8423	0	460	1105	2857	4205	551	10.0	200	1	0	1364.0393	0	0	
172	1	1369.1256	0	460	1105	2857	4205	551	10.0	200	1	0	1369.8937	0	0	
173	1	1374.5766	0	460	1105	2857	4205	551	10.0	200	1	1	1374.9921	1	0	
174	0	1384.1215	0	730	2058	2857	4205	951	10.0	200	0	0	1385.4645	1	1	
175	0	1389.6955	0	460	1105	2857	4205	601	10.0	200	1	1	1390.4277	1	3	
176	0	1394.3130	1	460	1105	2857	4205	1001	10.0	200	1	1	1394.7657	1	4	
177	0	1397.7861	0	460	1105	2857	4205	501	10.0	200	1	0	1400.6765	0	5	
178	1	1406.7222	0	460	1105	2857	4205	501	10.0	200	1	1	1407.6012	1	5	
179	0	1413.2584	0	730	2058	2857	4205	701	10.0	200	0	1	1413.9110	0	1	
180	1	1425.5455	0	730	2058	2857	4205	701	10.0	200	0	0	1426.3471	1	1	
181	0	1430.5570	0	460	1105	2857	4205	651	10.0	200	1	1	1431.3931	1	2	
182	0	1437.3080	0	730	2058	2857	4205	751	10.0	200	0	0	1438.1774	1	0	
183	0	1445.0164	1	730	2058	2857	4205	801	10.0	200	0	0	1447.0858	1	4	
184	0	1451.1792	0	730	2058	2857	4205	951	10.0	200	0	0	1452.6931	1	3	
185	0	1473.5968	0	460	1105	2857	4205	801	10.0	200	1	0	1474.8944	0	1	
186	1	1486.4548	0	460	1105	2857	4205	801	10.0	200	1	1	1486.8821	1	1	
187	0	1491.1943	0	460	1105	2857	4205	701	10.0	200	1	0	1492.2151	0	0	
188	1	1497.4676	0	460	1105	2857	4205	701	10.0	200	1	1	1498.3817	1	0	
189	0	1501.5154	0	460	1105	2857	4205	751	10.0	200	1	1	1502.3504	1	3	
190	0	1508.8517	0	730	2058	2857	4205	901	10.0	200	0	0	1509.4581	1	5	
191	0	1513.6999	0	460	1105	2857	4205	1001	10.0	200	1	1	1514.3585	1	2	
192	0	1517.4015	1	730	2058	2857	4205	501	10.0	200	0	1	1518.0905	0	2	
193	1	1525.6976	0	730	2058	2857	4205	501	10.0	200	0	0	1526.7353	1	2	
194	0	1531.2922	0	460	1105	2857	4205	851	10.0	200	1	0	1531.7968	0	3	
195	1	1545.2743	0	460	1105	2857	4205	851	10.0	200	1	1	1546.0576	1	3	
196	0	1549.4649	0	730	2058	2857	4205	551	10.0	200	0	1	1550.5952	0	0	
197	1	1554.2444	0	730	2058	2857	4205	551	10.0	200	0	0	1555.3521	1	0	
198	0	1559.1006	1	460	1105	2857	4205	651	10.0	200	1	1	1559.7919	1	2	
199	0	1568.8634	1	730	2058	2857	4205	801	10.0	200	0	1	1569.5997	0	1	
200	1	1590.4514	0	730	2058	2857	4205	801	10.0	200	0	0	1591.3681	1	1	
201	0	1595.2799	1	460	1105	2857	4205	1001	10.0	200	1	0	1599.0135	0	4	
202	1	1606.2230	0	460	1105	2857	4205	1001	10.0	200	1	0	1608.0598	0	4	
203	1	1616.2023	0	460	1105	2857	4205	1001	10.0	200	1	1	1616.7510	1	4	
204	0	1619.5936	0	730	2058	2857	4205	901	10.0	200	0	0	1620.6915	1	0	
