Trial	CorrectionTrial?	StartTime	CenterReward?	F1	F2	F3	F4	HoldTime	Atten	Pitch	Side	Response	RespTime	Correct	SpatialMask	
1	0	134.8881	0	460	1105	2857	4205	501	10.0	200	1	1	139.1684	1	5	
2	0	151.7528	1	730	2058	2857	4205	951	10.0	200	0	1	160.2589	0	1	
3	1	178.8528	0	730	2058	2857	4205	951	10.0	200	0	1	179.4207	0	1	
4	1	185.0876	0	730	2058	2857	4205	951	10.0	200	0	1	186.1541	0	1	
5	1	191.3435	0	730	2058	2857	4205	951	10.0	200	0	1	194.5729	0	1	
6	1	207.7501	0	730	2058	2857	4205	951	10.0	200	0	1	211.6253	0	1	
7	1	227.4595	0	730	2058	2857	4205	951	10.0	200	0	1	234.2335	0	1	
8	1	246.3694	0	730	2058	2857	4205	951	10.0	200	0	0	247.2873	1	1	
9	0	253.3800	0	730	2058	2857	4205	751	10.0	200	0	0	254.8285	1	2	
10	0	264.1843	0	730	2058	2857	4205	801	10.0	200	0	0	265.8269	1	3	
11	0	275.4025	1	460	1105	2857	4205	701	10.0	200	1	0	278.9912	0	2	
12	1	285.5212	0	460	1105	2857	4205	701	10.0	200	1	1	286.3194	1	2	
13	0	290.9429	0	460	1105	2857	4205	651	10.0	200	1	1	291.9410	1	5	
14	0	309.0239	0	730	2058	2857	4205	1001	10.0	200	0	0	315.3178	1	4	
15	0	320.4747	0	730	2058	2857	4205	851	10.0	200	0	1	320.8465	0	5	
16	1	326.8165	0	730	2058	2857	4205	851	10.0	200	0	0	327.7312	1	5	
17	0	334.1891	0	460	1105	2857	4205	601	10.0	200	1	0	335.4137	0	3	
18	1	341.3837	1	460	1105	2857	4205	601	10.0	200	1	0	345.2766	0	3	
19	1	350.6208	0	460	1105	2857	4205	601	10.0	200	1	1	351.1056	1	3	
20	0	355.0660	0	460	1105	2857	4205	551	10.0	200	1	1	356.1499	1	4	
21	0	369.7707	0	460	1105	2857	4205	951	10.0	200	1	1	370.3913	1	0	
22	0	375.0058	0	730	2058	2857	4205	651	10.0	200	0	1	375.4476	0	3	
23	1	381.2474	1	730	2058	2857	4205	651	10.0	200	0	1	381.9080	0	3	
24	1	389.2478	0	730	2058	2857	4205	651	10.0	200	0	1	392.4076	0	3	
25	1	397.1280	0	730	2058	2857	4205	651	10.0	200	0	1	397.9944	0	3	
26	1	402.5353	0	730	2058	2857	4205	651	10.0	200	0	0	404.4579	1	3	
27	0	405.8438	0	730	2058	2857	4205	901	10.0	200	0	1	406.2103	0	2	
28	1	413.3638	0	730	2058	2857	4205	901	10.0	200	0	0	414.5590	1	2	
29	0	419.7788	0	730	2058	2857	4205	851	10.0	200	0	0	420.5665	1	3	
30	0	426.4133	0	460	1105	2857	4205	501	10.0	200	1	0	428.4160	0	3	
31	1	432.7305	0	460	1105	2857	4205	501	10.0	200	1	1	433.5839	1	3	
32	0	438.2507	0	730	2058	2857	4205	801	10.0	200	0	0	440.0264	1	4	
33	0	447.3904	0	730	2058	2857	4205	751	10.0	200	0	0	448.6838	1	2	
34	0	454.3042	0	460	1105	2857	4205	701	10.0	200	1	1	455.0705	1	3	
35	0	458.8922	0	460	1105	2857	4205	1001	10.0	200	1	1	459.2947	1	5	
36	0	466.6874	0	460	1105	2857	4205	551	10.0	200	1	1	467.6997	1	4	
37	0	473.4716	0	730	2058	2857	4205	701	10.0	200	0	0	474.4207	1	1	
38	0	479.0997	0	730	2058	2857	4205	501	10.0	200	0	1	479.6566	0	0	
39	1	484.3971	0	730	2058	2857	4205	501	10.0	200	0	1	485.0755	0	0	
40	1	489.7224	0	730	2058	2857	4205	501	10.0	200	0	0	491.3085	1	0	
41	0	502.2088	0	460	1105	2857	4205	901	10.0	200	1	0	504.0801	0	2	
42	1	516.1218	0	460	1105	2857	4205	901	10.0	200	1	1	516.8041	1	2	
43	0	525.8831	0	460	1105	2857	4205	801	10.0	200	1	0	527.1476	0	1	
44	1	532.1700	0	460	1105	2857	4205	801	10.0	200	1	1	532.5781	1	1	
45	0	536.4761	0	460	1105	2857	4205	601	10.0	200	1	1	536.8101	1	4	
46	0	541.0762	0	730	2058	2857	4205	751	10.0	200	0	0	542.0438	1	5	
47	0	547.0636	0	730	2058	2857	4205	651	10.0	200	0	1	548.0638	0	0	
48	1	552.6934	0	730	2058	2857	4205	651	10.0	200	0	1	553.2973	0	0	
49	1	557.2409	0	730	2058	2857	4205	651	10.0	200	0	0	558.9029	1	0	
50	0	563.7645	0	730	2058	2857	4205	951	10.0	200	0	0	565.0314	1	5	
51	0	570.4251	0	460	1105	2857	4205	551	10.0	200	1	0	571.8175	0	1	
52	1	576.7890	0	460	1105	2857	4205	551	10.0	200	1	1	577.2415	1	1	
53	0	583.1172	0	730	2058	2857	4205	1001	10.0	200	0	0	584.5599	1	4	
54	0	594.2003	0	460	1105	2857	4205	651	10.0	200	1	1	594.8528	1	1	
55	0	601.8968	0	460	1105	2857	4205	851	10.0	200	1	0	603.7872	0	0	
56	1	610.6737	0	460	1105	2857	4205	851	10.0	200	1	1	611.4033	1	0	
57	0	616.4612	0	460	1105	2857	4205	901	10.0	200	1	1	616.8986	1	2	
58	0	621.4214	0	730	2058	2857	4205	601	10.0	200	0	1	621.8704	0	1	
59	1	626.5784	0	730	2058	2857	4205	601	10.0	200	0	1	627.4912	0	1	
60	1	633.9879	0	730	2058	2857	4205	601	10.0	200	0	1	635.4108	0	1	
61	1	640.5897	0	730	2058	2857	4205	601	10.0	200	0	1	641.2304	0	1	
62	1	645.9085	0	730	2058	2857	4205	601	10.0	200	0	0	647.7892	1	1	
63	0	653.6725	0	460	1105	2857	4205	701	10.0	200	1	0	654.4182	0	0	
64	1	659.1791	0	460	1105	2857	4205	701	10.0	200	1	1	659.6690	1	0	
65	0	669.5367	0	730	2058	2857	4205	1001	10.0	200	0	1	670.0317	0	0	
66	1	675.3686	0	730	2058	2857	4205	1001	10.0	200	0	0	676.6436	1	0	
67	0	681.2142	0	730	2058	2857	4205	751	10.0	200	0	0	682.9736	1	5	
68	0	691.2637	1	730	2058	2857	4205	951	10.0	200	0	0	694.4468	1	4	
69	0	699.1138	0	730	2058	2857	4205	501	10.0	200	0	1	699.9505	0	2	
70	1	703.9462	0	730	2058	2857	4205	501	10.0	200	0	0	705.2199	1	2	
71	0	710.8589	0	730	2058	2857	4205	801	10.0	200	0	0	711.8844	1	5	
72	0	717.0141	1	460	1105	2857	4205	501	10.0	200	1	1	717.7714	1	2	
73	0	725.9279	0	460	1105	2857	4205	751	10.0	200	1	1	726.5000	1	4	
74	0	734.4158	0	460	1105	2857	4205	851	10.0	200	1	0	735.7614	0	0	
75	1	745.8731	1	460	1105	2857	4205	851	10.0	200	1	0	750.5030	0	0	
76	1	756.3700	0	460	1105	2857	4205	851	10.0	200	1	1	757.0104	1	0	
77	0	760.4996	0	460	1105	2857	4205	551	10.0	200	1	1	761.0035	1	1	
78	0	765.5409	0	730	2058	2857	4205	801	10.0	200	0	0	766.9632	1	5	
79	0	779.0139	0	730	2058	2857	4205	1001	10.0	200	0	1	779.3592	0	0	
80	1	787.2444	0	730	2058	2857	4205	1001	10.0	200	0	0	788.3012	1	0	
81	0	793.4616	0	460	1105	2857	4205	651	10.0	200	1	1	794.2363	1	4	
82	0	812.0618	0	460	1105	2857	4205	951	10.0	200	1	1	812.8153	1	5	
83	0	817.8205	0	460	1105	2857	4205	601	10.0	200	1	1	818.3828	1	5	
84	0	826.3832	0	460	1105	2857	4205	901	10.0	200	1	0	827.6108	0	0	
85	1	832.4226	0	460	1105	2857	4205	901	10.0	200	1	1	833.0120	1	0	
86	0	840.5275	0	730	2058	2857	4205	901	10.0	200	0	1	841.3324	0	0	
87	1	845.4598	0	730	2058	2857	4205	901	10.0	200	0	0	846.6565	1	0	
88	0	852.0891	0	460	1105	2857	4205	601	10.0	200	1	1	852.6964	1	5	
89	0	859.7350	0	730	2058	2857	4205	651	10.0	200	0	0	861.0181	1	4	
90	0	866.5484	0	730	2058	2857	4205	1001	10.0	200	0	1	867.2917	0	3	
91	1	876.1837	0	730	2058	2857	4205	1001	10.0	200	0	0	877.1976	1	3	
92	0	892.5486	0	460	1105	2857	4205	851	10.0	200	1	1	893.1234	1	2	
93	0	899.8435	1	460	1105	2857	4205	801	10.0	200	1	1	900.5163	1	1	
94	0	905.6872	0	730	2058	2857	4205	951	10.0	200	0	0	908.4915	1	3	
95	0	913.4180	0	730	2058	2857	4205	551	10.0	200	0	1	914.3942	0	1	
96	1	918.1142	0	730	2058	2857	4205	551	10.0	200	0	0	919.8567	1	1	
97	0	924.9409	0	460	1105	2857	4205	701	10.0	200	1	1	925.6292	1	1	
98	0	934.8262	0	730	2058	2857	4205	751	10.0	200	0	0	935.8147	1	1	
99	0	945.7866	0	460	1105	2857	4205	651	10.0	200	1	1	946.5385	1	4	
100	0	951.0520	0	460	1105	2857	4205	501	10.0	200	1	1	951.8904	1	3	
101	0	962.0212	0	730	2058	2857	4205	601	10.0	200	0	1	962.8008	0	2	
102	1	966.7590	0	730	2058	2857	4205	601	10.0	200	0	0	968.2872	1	2	
103	0	975.6566	0	460	1105	2857	4205	751	10.0	200	1	1	976.1106	1	0	
104	0	984.0233	0	730	2058	2857	4205	701	10.0	200	0	1	984.4997	0	2	
105	1	989.2672	0	730	2058	2857	4205	701	10.0	200	0	0	990.6431	1	2	
106	0	995.5652	0	730	2058	2857	4205	801	10.0	200	0	0	996.8185	1	0	
107	0	1001.8660	0	730	2058	2857	4205	551	10.0	200	0	0	1003.7991	1	4	
108	0	1009.3656	0	460	1105	2857	4205	851	10.0	200	1	1	1010.2296	1	3	
109	0	1022.0723	0	460	1105	2857	4205	901	10.0	200	1	0	1023.0440	0	2	
110	1	1038.2787	0	460	1105	2857	4205	901	10.0	200	1	1	1039.0606	1	2	
111	0	1064.4179	0	730	2058	2857	4205	1001	10.0	200	0	1	1065.2951	0	3	
112	1	1070.3046	0	730	2058	2857	4205	1001	10.0	200	0	1	1077.1293	0	3	
113	1	1084.9193	0	730	2058	2857	4205	1001	10.0	200	0	0	1086.0856	1	3	
114	0	1094.5235	0	730	2058	2857	4205	751	10.0	200	0	1	1095.0538	0	1	
115	1	1099.3974	0	730	2058	2857	4205	751	10.0	200	0	0	1100.6944	1	1	
116	0	1105.7236	0	460	1105	2857	4205	601	10.0	200	1	0	1106.5993	0	3	
117	1	1112.2980	0	460	1105	2857	4205	601	10.0	200	1	1	1112.7271	1	3	
118	0	1116.0325	0	460	1105	2857	4205	651	10.0	200	1	1	1116.7352	1	2	
119	0	1121.8953	0	730	2058	2857	4205	951	10.0	200	0	1	1122.4841	0	0	
120	1	1126.5137	0	730	2058	2857	4205	951	10.0	200	0	0	1127.2016	1	0	
121	0	1131.7586	1	730	2058	2857	4205	551	10.0	200	0	0	1135.5672	1	5	
122	0	1144.0753	0	460	1105	2857	4205	501	10.0	200	1	1	1144.6287	1	0	
123	0	1150.9884	0	460	1105	2857	4205	701	10.0	200	1	1	1151.7289	1	4	
124	0	1155.2662	0	460	1105	2857	4205	901	10.0	200	1	1	1155.6279	1	1	
125	0	1163.5619	0	460	1105	2857	4205	801	10.0	200	1	0	1164.7750	0	0	
126	1	1176.1200	0	460	1105	2857	4205	801	10.0	200	1	1	1176.7348	1	0	
127	0	1182.1571	0	730	2058	2857	4205	1001	10.0	200	0	1	1182.7103	0	2	
128	1	1187.0040	1	730	2058	2857	4205	1001	10.0	200	0	0	1188.4723	1	2	
129	0	1193.4620	0	460	1105	2857	4205	951	10.0	200	1	0	1196.2685	0	4	
130	1	1208.6029	0	460	1105	2857	4205	951	10.0	200	1	0	1211.2807	0	4	
131	1	1222.8695	0	460	1105	2857	4205	951	10.0	200	1	1	1224.2818	1	4	
132	0	1233.6305	0	730	2058	2857	4205	901	10.0	200	0	0	1235.0654	1	5	
133	0	1239.9115	0	730	2058	2857	4205	601	10.0	200	0	0	1241.2289	1	4	
134	0	1246.1537	0	730	2058	2857	4205	501	10.0	200	0	0	1247.7045	1	5	
135	0	1252.8561	0	730	2058	2857	4205	651	10.0	200	0	0	1254.2969	1	4	
136	0	1264.9320	0	460	1105	2857	4205	551	10.0	200	1	1	1265.5888	1	5	
137	0	1275.0347	0	730	2058	2857	4205	851	10.0	200	0	0	1277.0931	1	2	
138	0	1281.9115	1	460	1105	2857	4205	801	10.0	200	1	1	1282.5349	1	0	
139	0	1286.2292	0	730	2058	2857	4205	701	10.0	200	0	1	1288.2416	0	1	
140	1	1292.4392	0	730	2058	2857	4205	701	10.0	200	0	0	1293.5403	1	1	
141	0	1298.9695	0	460	1105	2857	4205	1001	10.0	200	1	0	1299.6778	0	2	
142	1	1305.1001	0	460	1105	2857	4205	1001	10.0	200	1	0	1306.6620	0	2	
143	1	1320.6867	0	460	1105	2857	4205	1001	10.0	200	1	1	1321.6729	1	2	
144	0	1329.6744	0	730	2058	2857	4205	801	10.0	200	0	0	1331.1291	1	3	
145	0	1335.4118	0	730	2058	2857	4205	601	10.0	200	0	1	1336.0779	0	3	
146	1	1340.5101	0	730	2058	2857	4205	601	10.0	200	0	1	1341.1005	0	3	
147	1	1346.3921	0	730	2058	2857	4205	601	10.0	200	0	0	1348.1653	1	3	
148	0	1353.9299	0	460	1105	2857	4205	951	10.0	200	1	1	1354.7098	1	2	
149	0	1358.2456	0	460	1105	2857	4205	901	10.0	200	1	1	1359.2863	1	5	
150	0	1362.9826	0	730	2058	2857	4205	501	10.0	200	0	0	1365.1961	1	3	
151	0	1375.6077	0	730	2058	2857	4205	751	10.0	200	0	1	1376.2259	0	1	
152	1	1380.9217	0	730	2058	2857	4205	751	10.0	200	0	0	1382.0535	1	1	
153	0	1386.4868	0	730	2058	2857	4205	551	10.0	200	0	1	1387.2148	0	0	
154	1	1391.5742	0	730	2058	2857	4205	551	10.0	200	0	1	1392.2691	0	0	
155	1	1396.6377	0	730	2058	2857	4205	551	10.0	200	0	0	1398.1295	1	0	
156	0	1403.4955	0	730	2058	2857	4205	651	10.0	200	0	0	1404.5630	1	0	
157	0	1409.1670	0	730	2058	2857	4205	851	10.0	200	0	0	1410.2422	1	4	
158	0	1414.3934	1	460	1105	2857	4205	1001	10.0	200	1	0	1417.5925	0	3	
159	1	1421.6561	0	460	1105	2857	4205	1001	10.0	200	1	1	1421.9988	1	3	
160	0	1480.9933	0	730	2058	2857	4205	501	10.0	200	0	1	1481.8673	0	2	
