Trial	CorrectionTrial?	StartTime	CenterReward?	F1	F2	F3	F4	HoldTime	Atten	Pitch	Side	Response	RespTime	Correct	SpatialMask	
1	0	26.8107	0	730	2058	2857	4205	601	-17.0	200	0	1	30.2070	0	2	
2	1	37.8020	0	730	2058	2857	4205	601	-17.0	200	0	1	38.5819	0	2	
3	1	42.4386	0	730	2058	2857	4205	601	-17.0	200	0	0	44.1074	1	2	
4	0	51.7723	0	460	1105	2857	4205	801	-15.0	200	1	0	54.3283	0	3	
5	1	59.4209	0	460	1105	2857	4205	801	-15.0	200	1	1	59.9965	1	3	
6	0	71.1936	0	460	1105	2857	4205	851	-15.0	200	1	0	72.7944	0	2	
7	1	79.3775	0	460	1105	2857	4205	851	-15.0	200	1	0	81.3488	0	2	
8	1	88.0711	0	460	1105	2857	4205	851	-15.0	200	1	1	88.9722	1	2	
9	0	101.6675	0	460	1105	2857	4205	1001	-15.0	200	1	0	103.0118	0	0	
10	1	112.3935	0	460	1105	2857	4205	1001	-15.0	200	1	1	116.9455	1	0	
11	0	130.5439	0	460	1105	2857	4205	651	-15.0	200	1	1	131.0270	1	2	
12	0	142.2810	0	460	1105	2857	4205	551	-15.0	200	1	1	143.0948	1	5	
13	0	151.5353	0	460	1105	2857	4205	901	-15.0	200	1	0	152.6004	0	0	
14	1	165.7308	0	460	1105	2857	4205	901	-15.0	200	1	1	170.3635	1	0	
15	0	191.9632	0	730	2058	2857	4205	951	-17.0	200	0	1	192.2481	0	3	
16	1	201.6480	1	730	2058	2857	4205	951	-17.0	200	0	0	204.0266	1	3	
17	0	210.2002	0	460	1105	2857	4205	751	-15.0	200	1	0	213.3513	0	1	
18	1	218.4324	0	460	1105	2857	4205	751	-15.0	200	1	1	218.9280	1	1	
19	0	220.8508	0	460	1105	2857	4205	701	-15.0	200	1	1	221.3188	1	5	
20	0	244.9389	0	730	2058	2857	4205	651	-17.0	200	0	0	247.5801	1	4	
21	0	258.2613	0	730	2058	2857	4205	601	-17.0	200	0	0	259.0444	1	3	
22	0	264.9422	0	730	2058	2857	4205	751	-17.0	200	0	0	265.8369	1	5	
23	0	271.9652	0	460	1105	2857	4205	801	-15.0	200	1	0	272.7518	0	4	
24	1	279.8918	0	460	1105	2857	4205	801	-15.0	200	1	0	280.7682	0	4	
25	1	288.2501	0	460	1105	2857	4205	801	-15.0	200	1	1	288.5391	1	4	
26	0	297.4009	0	460	1105	2857	4205	551	-15.0	200	1	0	299.1234	0	2	
27	1	304.8004	0	460	1105	2857	4205	551	-15.0	200	1	1	305.1681	1	2	
28	0	319.1762	0	730	2058	2857	4205	501	-17.0	200	0	0	324.5312	1	1	
29	0	367.0227	0	730	2058	2857	4205	1001	-17.0	200	0	1	371.3562	0	4	
30	1	375.7393	0	730	2058	2857	4205	1001	-17.0	200	0	0	376.6338	1	4	
31	0	386.7843	0	730	2058	2857	4205	851	-17.0	200	0	1	387.3889	0	0	
32	1	396.0062	1	730	2058	2857	4205	851	-17.0	200	0	0	397.8316	1	0	
33	0	404.7290	0	460	1105	2857	4205	901	-15.0	200	1	0	407.0083	0	1	
34	1	418.2267	0	460	1105	2857	4205	901	-15.0	200	1	1	418.5134	1	1	
35	0	426.4679	1	460	1105	2857	4205	701	-15.0	200	1	1	429.6087	1	4	
36	0	439.2627	0	730	2058	2857	4205	651	-17.0	200	0	0	440.9348	1	5	
37	0	446.8603	0	460	1105	2857	4205	901	-15.0	200	1	0	448.4024	0	3	
38	1	457.9985	0	460	1105	2857	4205	901	-15.0	200	1	1	459.1561	1	3	
39	0	464.3241	0	460	1105	2857	4205	601	-15.0	200	1	1	465.3960	1	4	
40	0	474.4507	1	730	2058	2857	4205	1001	-17.0	200	0	0	475.3842	1	3	
41	0	480.3455	0	460	1105	2857	4205	551	-15.0	200	1	0	482.9848	0	3	
42	1	489.8480	1	460	1105	2857	4205	551	-15.0	200	1	1	490.3861	1	3	
43	0	495.8345	0	460	1105	2857	4205	701	-15.0	200	1	1	497.3013	1	1	
44	0	501.1922	0	730	2058	2857	4205	851	-17.0	200	0	0	502.4296	1	0	
45	0	510.7495	0	730	2058	2857	4205	801	-17.0	200	0	0	512.0268	1	4	
46	0	524.2598	0	730	2058	2857	4205	951	-17.0	200	0	0	526.3536	1	0	
47	0	540.6605	0	730	2058	2857	4205	751	-17.0	200	0	0	542.1474	1	2	
48	0	552.3855	0	730	2058	2857	4205	851	-17.0	200	0	0	553.0936	1	5	
49	0	565.7774	0	730	2058	2857	4205	1001	-17.0	200	0	0	566.4106	1	1	
50	0	571.7179	1	730	2058	2857	4205	551	-17.0	200	0	1	572.2679	0	1	
51	1	579.6577	0	730	2058	2857	4205	551	-17.0	200	0	1	579.9780	0	1	
52	1	585.1392	0	730	2058	2857	4205	551	-17.0	200	0	1	585.9031	0	1	
53	1	590.2701	0	730	2058	2857	4205	551	-17.0	200	0	0	591.8995	1	1	
54	0	606.9874	0	460	1105	2857	4205	901	-15.0	200	1	0	608.5872	0	0	
55	1	624.1553	0	460	1105	2857	4205	901	-15.0	200	1	0	625.4726	0	0	
56	1	633.9561	0	460	1105	2857	4205	901	-15.0	200	1	1	634.5875	1	0	
57	0	640.3300	0	730	2058	2857	4205	701	-17.0	200	0	0	642.2931	1	2	
58	0	646.9870	0	460	1105	2857	4205	751	-15.0	200	1	1	647.7702	1	5	
59	0	650.9259	0	730	2058	2857	4205	501	-17.0	200	0	0	652.1151	1	4	
60	0	656.5675	0	730	2058	2857	4205	651	-17.0	200	0	1	657.5240	0	1	
61	1	662.6239	0	730	2058	2857	4205	651	-17.0	200	0	0	663.7722	1	1	
62	0	677.5793	0	730	2058	2857	4205	951	-17.0	200	0	0	679.1645	1	0	
63	0	684.4318	0	460	1105	2857	4205	601	-15.0	200	1	1	685.1953	1	3	
64	0	691.5165	0	460	1105	2857	4205	1001	-15.0	200	1	1	691.8137	1	4	
65	0	704.2923	0	730	2058	2857	4205	901	-17.0	200	0	0	705.8891	1	2	
66	0	715.1068	0	460	1105	2857	4205	701	-15.0	200	1	1	715.4845	1	2	
67	0	720.5807	0	730	2058	2857	4205	551	-17.0	200	0	1	721.4480	0	5	
68	1	726.7831	0	730	2058	2857	4205	551	-17.0	200	0	1	727.6611	0	5	
69	1	732.2989	0	730	2058	2857	4205	551	-17.0	200	0	0	733.5990	1	5	
70	0	744.1275	0	730	2058	2857	4205	651	-17.0	200	0	0	744.9646	1	4	
71	0	752.5000	0	460	1105	2857	4205	851	-15.0	200	1	1	752.9973	1	1	
72	0	758.3735	0	730	2058	2857	4205	501	-17.0	200	0	0	759.9389	1	3	
73	0	764.4195	0	730	2058	2857	4205	951	-17.0	200	0	0	765.0927	1	1	
74	0	774.2421	0	460	1105	2857	4205	601	-15.0	200	1	1	774.6083	1	1	
75	0	790.4942	1	730	2058	2857	4205	801	-17.0	200	0	0	791.6463	1	5	
76	0	796.0301	0	460	1105	2857	4205	701	-15.0	200	1	0	798.1846	0	5	
77	1	803.4308	0	460	1105	2857	4205	701	-15.0	200	1	1	803.6645	1	5	
78	0	808.6725	0	460	1105	2857	4205	801	-15.0	200	1	0	809.9419	0	2	
79	1	815.7870	0	460	1105	2857	4205	801	-15.0	200	1	1	816.3264	1	2	
80	0	833.6993	0	730	2058	2857	4205	951	-17.0	200	0	1	834.1197	0	3	
81	1	838.5730	0	730	2058	2857	4205	951	-17.0	200	0	0	839.0679	1	3	
82	0	856.0342	0	460	1105	2857	4205	1001	-15.0	200	1	1	856.4713	1	0	
83	0	867.0973	0	460	1105	2857	4205	901	-15.0	200	1	0	868.3765	0	0	
84	1	878.8208	0	460	1105	2857	4205	901	-15.0	200	1	0	879.6720	0	0	
85	1	886.2698	0	460	1105	2857	4205	901	-15.0	200	1	0	887.8944	0	0	
86	1	898.8466	0	460	1105	2857	4205	901	-15.0	200	1	1	899.2340	1	0	
87	0	904.6478	0	460	1105	2857	4205	601	-15.0	200	1	1	912.7044	1	0	
88	0	918.5942	0	730	2058	2857	4205	501	-17.0	200	0	0	919.9703	1	5	
89	0	924.7628	0	460	1105	2857	4205	751	-15.0	200	1	1	925.4488	1	4	
90	0	934.5009	0	730	2058	2857	4205	851	-17.0	200	0	0	935.6122	1	0	
91	0	940.4184	1	730	2058	2857	4205	651	-17.0	200	0	0	941.0410	1	2	
92	0	946.0011	0	460	1105	2857	4205	551	-15.0	200	1	0	948.2872	0	4	
93	1	953.9432	0	460	1105	2857	4205	551	-15.0	200	1	1	954.2616	1	4	
94	0	957.5968	0	460	1105	2857	4205	651	-15.0	200	1	1	958.0273	1	3	
95	0	964.2146	0	730	2058	2857	4205	601	-17.0	200	0	0	965.0738	1	0	
96	0	977.9164	0	730	2058	2857	4205	1001	-17.0	200	0	0	979.0892	1	1	
97	0	986.6032	0	460	1105	2857	4205	751	-15.0	200	1	1	986.9658	1	5	
98	0	994.8721	0	730	2058	2857	4205	801	-17.0	200	0	0	995.7577	1	4	
99	0	1014.1821	0	460	1105	2857	4205	901	-15.0	200	1	1	1014.4832	1	3	
100	0	1021.5736	0	730	2058	2857	4205	701	-17.0	200	0	0	1023.2176	1	3	
101	0	1027.7751	0	460	1105	2857	4205	501	-15.0	200	1	1	1028.1851	1	1	
102	0	1032.8317	0	730	2058	2857	4205	851	-17.0	200	0	1	1033.1758	0	2	
103	1	1041.6682	0	730	2058	2857	4205	851	-17.0	200	0	0	1043.1530	1	2	
104	0	1050.6229	0	460	1105	2857	4205	651	-15.0	200	1	1	1050.9728	1	5	
105	0	1077.3834	0	460	1105	2857	4205	951	-15.0	200	1	1	1079.8401	1	2	
106	0	1083.7801	0	460	1105	2857	4205	551	-15.0	200	1	1	1084.2796	1	3	
107	0	1094.1336	0	730	2058	2857	4205	851	-17.0	200	0	0	1095.6807	1	1	
108	0	1100.6959	0	730	2058	2857	4205	751	-17.0	200	0	0	1102.2160	1	0	
109	0	1107.2777	0	460	1105	2857	4205	801	-15.0	200	1	1	1107.7760	1	5	
110	0	1127.0523	0	460	1105	2857	4205	901	-15.0	200	1	0	1127.7991	0	2	
111	1	1134.4799	0	460	1105	2857	4205	901	-15.0	200	1	1	1134.7861	1	2	
112	0	1156.0301	0	730	2058	2857	4205	1001	-17.0	200	0	0	1156.8662	1	3	
113	0	1162.0907	0	460	1105	2857	4205	701	-15.0	200	1	1	1162.6792	1	0	
114	0	1165.7691	0	730	2058	2857	4205	601	-17.0	200	0	0	1166.7948	1	1	
115	0	1171.5169	0	730	2058	2857	4205	651	-17.0	200	0	0	1172.4565	1	5	
116	0	1177.0814	0	730	2058	2857	4205	501	-17.0	200	0	0	1177.7824	1	4	
117	0	1194.4867	0	460	1105	2857	4205	951	-15.0	200	1	1	1194.8338	1	0	
118	0	1199.6434	0	460	1105	2857	4205	701	-15.0	200	1	1	1200.0868	1	2	
119	0	1211.9762	0	730	2058	2857	4205	751	-17.0	200	0	0	1213.3901	1	4	
120	0	1217.9690	0	460	1105	2857	4205	551	-15.0	200	1	1	1218.3332	1	5	
121	0	1222.4321	0	460	1105	2857	4205	901	-15.0	200	1	0	1223.9073	0	4	
122	1	1233.8872	0	460	1105	2857	4205	901	-15.0	200	1	1	1234.1971	1	4	
123	0	1242.0452	0	460	1105	2857	4205	801	-15.0	200	1	1	1242.4744	1	0	
124	0	1265.5255	0	460	1105	2857	4205	1001	-15.0	200	1	1	1265.9343	1	2	
125	0	1270.0335	0	460	1105	2857	4205	601	-15.0	200	1	1	1270.4167	1	1	
126	0	1275.3584	0	730	2058	2857	4205	601	-17.0	200	0	0	1276.0183	1	0	
127	0	1280.9023	0	730	2058	2857	4205	751	-17.0	200	0	0	1281.6187	1	0	
128	0	1286.8782	1	730	2058	2857	4205	651	-17.0	200	0	0	1287.4789	1	2	
129	0	1292.5666	0	730	2058	2857	4205	551	-17.0	200	0	0	1295.3511	1	4	
130	0	1299.6898	1	730	2058	2857	4205	901	-17.0	200	0	0	1300.2550	1	3	
131	0	1306.3588	0	730	2058	2857	4205	501	-17.0	200	0	0	1309.2630	1	5	
132	0	1314.9225	0	730	2058	2857	4205	951	-17.0	200	0	0	1315.7433	1	5	
133	0	1320.8314	0	460	1105	2857	4205	701	-15.0	200	1	1	1321.3600	1	3	
134	0	1325.7692	0	730	2058	2857	4205	801	-17.0	200	0	0	1326.6980	1	1	
135	0	1339.6696	0	460	1105	2857	4205	1001	-15.0	200	1	1	1339.9875	1	5	
136	0	1343.7452	1	460	1105	2857	4205	501	-15.0	200	1	1	1347.1664	1	1	
137	0	1354.0363	0	730	2058	2857	4205	701	-17.0	200	0	0	1355.0743	1	2	
138	0	1359.6788	0	460	1105	2857	4205	651	-15.0	200	1	1	1360.5041	1	4	
139	0	1364.3186	0	460	1105	2857	4205	901	-15.0	200	1	1	1364.8796	1	4	
140	0	1376.6800	0	730	2058	2857	4205	851	-17.0	200	0	0	1377.6413	1	3	
141	0	1382.1346	0	460	1105	2857	4205	551	-15.0	200	1	1	1382.6880	1	3	
142	0	1389.7002	0	460	1105	2857	4205	751	-15.0	200	1	1	1390.4536	1	1	
143	0	1394.2517	0	730	2058	2857	4205	951	-17.0	200	0	0	1395.9250	1	2	
144	0	1409.5465	0	460	1105	2857	4205	801	-15.0	200	1	1	1410.1096	1	2	
145	0	1422.0583	0	730	2058	2857	4205	1001	-17.0	200	0	0	1422.5546	1	4	
146	0	1434.2963	0	730	2058	2857	4205	801	-17.0	200	0	0	1435.0729	1	1	
147	0	1439.8744	0	460	1105	2857	4205	751	-15.0	200	1	1	1440.8258	1	4	
148	0	1474.7270	0	460	1105	2857	4205	951	-15.0	200	1	0	1475.7929	0	0	
149	1	1486.3625	0	460	1105	2857	4205	951	-15.0	200	1	1	1486.7195	1	0	
150	0	1494.2231	0	460	1105	2857	4205	701	-15.0	200	1	0	1495.2982	0	3	
151	1	1503.9911	0	460	1105	2857	4205	701	-15.0	200	1	0	1505.0673	0	3	
152	1	1510.8327	0	460	1105	2857	4205	701	-15.0	200	1	1	1511.7741	1	3	
153	0	1515.4895	0	460	1105	2857	4205	551	-15.0	200	1	1	1515.9604	1	4	
154	0	1519.6183	1	460	1105	2857	4205	501	-15.0	200	1	1	1522.3856	1	5	
155	0	1526.5761	0	730	2058	2857	4205	601	-17.0	200	0	1	1527.6596	0	1	
156	1	1534.2897	0	730	2058	2857	4205	601	-17.0	200	0	0	1535.2850	1	1	
157	0	1542.7686	0	730	2058	2857	4205	651	-17.0	200	0	0	1543.9503	1	4	
158	0	1560.6635	0	730	2058	2857	4205	1001	-17.0	200	0	1	1565.5425	0	2	
159	1	1602.8187	0	730	2058	2857	4205	1001	-17.0	200	0	0	1604.3504	1	2	
160	0	1616.9178	0	730	2058	2857	4205	851	-17.0	200	0	0	1617.9937	1	0	
161	0	1622.1731	0	730	2058	2857	4205	901	-17.0	200	0	0	1623.0610	1	4	
162	0	1628.1784	0	730	2058	2857	4205	851	-17.0	200	0	1	1629.3054	0	1	
163	1	1634.8402	0	730	2058	2857	4205	851	-17.0	200	0	0	1635.5004	1	1	
164	0	1640.0964	1	460	1105	2857	4205	501	-15.0	200	1	1	1640.5743	1	0	
165	0	1644.2486	0	730	2058	2857	4205	651	-17.0	200	0	1	1646.2217	0	2	
166	1	1654.5268	0	730	2058	2857	4205	651	-17.0	200	0	0	1655.5798	1	2	
167	0	1662.2603	0	460	1105	2857	4205	751	-15.0	200	1	1	1662.7406	1	3	
168	0	1674.3629	0	460	1105	2857	4205	1001	-15.0	200	1	1	1674.8590	1	2	
169	0	1682.1468	0	730	2058	2857	4205	701	-17.0	200	0	0	1683.1010	1	3	
170	0	1687.7738	1	460	1105	2857	4205	951	-15.0	200	1	1	1688.1682	1	1	
171	0	1691.8462	0	460	1105	2857	4205	801	-15.0	200	1	1	1693.5685	1	5	
172	0	1696.9913	0	730	2058	2857	4205	551	-17.0	200	0	0	1698.5098	1	2	
173	0	1704.0369	0	460	1105	2857	4205	651	-15.0	200	1	0	1705.2913	0	2	
174	1	1711.5162	0	460	1105	2857	4205	651	-15.0	200	1	0	1712.9357	0	2	
175	1	1720.0705	0	460	1105	2857	4205	651	-15.0	200	1	1	1720.4317	1	2	
176	0	1725.5675	0	460	1105	2857	4205	851	-15.0	200	1	1	1726.0375	1	5	
177	0	1733.8810	0	730	2058	2857	4205	951	-17.0	200	0	0	1734.7171	1	5	
178	0	1739.6951	0	730	2058	2857	4205	801	-17.0	200	0	1	1740.4450	0	3	
179	1	1745.5605	1	730	2058	2857	4205	801	-17.0	200	0	0	1746.6230	1	3	
180	0	1751.4781	0	730	2058	2857	4205	551	-17.0	200	0	0	1755.0038	1	0	
181	0	1760.8188	0	730	2058	2857	4205	501	-17.0	200	0	0	1762.0941	1	5	
182	0	1767.1548	0	730	2058	2857	4205	601	-17.0	200	0	0	1768.1729	1	5	
183	0	1779.0987	1	460	1105	2857	4205	1001	-15.0	200	1	1	1779.5360	1	1	
184	0	1784.7345	0	730	2058	2857	4205	751	-17.0	200	0	1	1786.8762	0	0	
185	1	1791.9204	0	730	2058	2857	4205	751	-17.0	200	0	0	1792.7635	1	0	
186	0	1822.2213	0	460	1105	2857	4205	901	-15.0	200	1	1	1822.7251	1	1	
187	0	1830.8563	0	730	2058	2857	4205	751	-17.0	200	0	0	1831.6229	1	3	
188	0	1846.0908	1	460	1105	2857	4205	851	-15.0	200	1	1	1846.6213	1	0	
189	0	1851.1249	1	460	1105	2857	4205	801	-15.0	200	1	1	1854.0206	1	4	
190	0	1858.0799	0	460	1105	2857	4205	601	-15.0	200	1	1	1858.4699	1	3	
191	0	1869.2656	0	730	2058	2857	4205	701	-17.0	200	0	0	1870.3704	1	4	
192	0	1875.0988	0	460	1105	2857	4205	901	-15.0	200	1	1	1875.6651	1	3	
193	0	1889.7065	0	730	2058	2857	4205	951	-17.0	200	0	0	1891.0752	1	2	
