Trial	CorrectionTrial?	StartTime	CenterReward?	F1	F2	F3	F4	HoldTime	Atten	Pitch	Side	Response	RespTime	Correct	SpatialMask	
1	0	3.3253	0	460	1105	2857	4205	601	-15.0	200	1	1	3.7430	1	2	
2	0	16.0094	0	730	2058	2857	4205	851	-17.0	200	0	1	22.2441	0	5	
3	1	31.6349	0	730	2058	2857	4205	851	-17.0	200	0	0	33.3184	1	5	
4	0	40.5917	1	460	1105	2857	4205	651	-15.0	200	1	1	41.1378	1	5	
5	0	51.6940	0	730	2058	2857	4205	951	-17.0	200	0	0	55.4734	1	1	
6	0	61.5839	0	460	1105	2857	4205	1001	-15.0	200	1	0	62.9732	0	4	
7	1	70.1405	0	460	1105	2857	4205	1001	-15.0	200	1	0	71.3123	0	4	
8	1	78.6469	0	460	1105	2857	4205	1001	-15.0	200	1	1	79.0403	1	4	
9	0	98.9818	1	730	2058	2857	4205	751	-17.0	200	0	0	103.8622	1	3	
10	0	109.0205	0	730	2058	2857	4205	551	-17.0	200	0	0	111.3250	1	1	
11	0	117.0018	0	460	1105	2857	4205	701	-15.0	200	1	0	119.0270	0	4	
12	1	123.3916	0	460	1105	2857	4205	701	-15.0	200	1	0	124.9013	0	4	
13	1	129.8556	0	460	1105	2857	4205	701	-15.0	200	1	1	130.1416	1	4	
14	0	140.6742	0	460	1105	2857	4205	501	-15.0	200	1	0	142.1129	0	5	
15	1	149.7477	0	460	1105	2857	4205	501	-15.0	200	1	1	150.4449	1	5	
16	0	159.0297	0	730	2058	2857	4205	901	-17.0	200	0	0	160.3300	1	4	
17	0	165.8948	0	730	2058	2857	4205	551	-17.0	200	0	1	166.3812	0	5	
18	1	173.1942	0	730	2058	2857	4205	551	-17.0	200	0	0	175.4977	1	5	
19	0	180.3016	0	730	2058	2857	4205	651	-17.0	200	0	0	181.5229	1	3	
20	0	194.5616	0	730	2058	2857	4205	901	-17.0	200	0	0	195.4825	1	2	
21	0	200.9021	0	460	1105	2857	4205	501	-15.0	200	1	1	201.5682	1	3	
22	0	204.6757	0	460	1105	2857	4205	701	-15.0	200	1	1	205.0456	1	3	
23	0	211.0820	0	730	2058	2857	4205	951	-17.0	200	0	1	211.4263	0	3	
24	1	217.2082	0	730	2058	2857	4205	951	-17.0	200	0	0	218.5813	1	3	
25	0	231.3340	0	730	2058	2857	4205	751	-17.0	200	0	0	232.4395	1	4	
26	0	243.4126	0	730	2058	2857	4205	851	-17.0	200	0	0	244.0916	1	0	
27	0	252.7470	0	730	2058	2857	4205	801	-17.0	200	0	0	253.7010	1	0	
28	0	258.5039	0	730	2058	2857	4205	601	-17.0	200	0	0	260.3555	1	2	
29	0	266.1571	0	460	1105	2857	4205	751	-15.0	200	1	1	267.0411	1	4	
30	0	276.1691	1	460	1105	2857	4205	951	-15.0	200	1	1	276.5387	1	0	
31	0	281.7171	1	730	2058	2857	4205	551	-17.0	200	0	0	286.0652	1	2	
32	0	293.2200	0	460	1105	2857	4205	1001	-15.0	200	1	1	293.6621	1	3	
33	0	310.4228	0	460	1105	2857	4205	851	-15.0	200	1	1	310.9191	1	2	
34	0	321.9778	0	460	1105	2857	4205	651	-15.0	200	1	1	322.6085	1	1	
35	0	339.8271	0	730	2058	2857	4205	801	-17.0	200	0	0	341.8175	1	4	
36	0	346.6956	0	460	1105	2857	4205	601	-15.0	200	1	1	347.6445	1	5	
37	0	355.3974	0	730	2058	2857	4205	701	-17.0	200	0	0	357.0257	1	0	
38	0	361.8468	0	460	1105	2857	4205	501	-15.0	200	1	1	362.5489	1	1	
39	0	377.1810	0	460	1105	2857	4205	801	-15.0	200	1	0	378.6394	0	1	
40	1	385.6031	0	460	1105	2857	4205	801	-15.0	200	1	1	385.9407	1	1	
41	0	395.0503	0	730	2058	2857	4205	851	-17.0	200	0	0	396.5670	1	1	
42	0	404.7036	0	460	1105	2857	4205	751	-15.0	200	1	0	405.6033	0	0	
43	1	415.8801	0	460	1105	2857	4205	751	-15.0	200	1	1	416.2139	1	0	
44	0	421.4672	0	730	2058	2857	4205	551	-17.0	200	0	0	422.7604	1	5	
45	0	427.6036	0	460	1105	2857	4205	601	-15.0	200	1	1	428.2779	1	2	
46	0	435.4821	0	460	1105	2857	4205	651	-15.0	200	1	1	436.0888	1	0	
47	0	439.7632	0	730	2058	2857	4205	501	-17.0	200	0	0	440.7572	1	1	
48	0	445.5371	0	730	2058	2857	4205	901	-17.0	200	0	0	446.5846	1	5	
49	0	457.1091	0	730	2058	2857	4205	1001	-17.0	200	0	0	458.4060	1	2	
50	0	463.3183	0	730	2058	2857	4205	701	-17.0	200	0	0	465.4531	1	2	
51	0	471.5029	0	460	1105	2857	4205	1001	-15.0	200	1	0	472.3115	0	1	
52	1	482.5145	0	460	1105	2857	4205	1001	-15.0	200	1	1	482.8532	1	1	
53	0	489.0039	0	460	1105	2857	4205	701	-15.0	200	1	1	489.3791	1	5	
54	0	500.6025	1	460	1105	2857	4205	801	-15.0	200	1	0	501.6250	0	2	
55	1	522.4693	0	460	1105	2857	4205	801	-15.0	200	1	0	524.8977	0	2	
56	1	537.7028	0	460	1105	2857	4205	801	-15.0	200	1	1	537.9478	1	2	
57	0	546.2941	0	730	2058	2857	4205	851	-17.0	200	0	0	547.5971	1	3	
58	0	554.8610	0	460	1105	2857	4205	901	-15.0	200	1	1	555.2860	1	1	
59	0	563.7794	0	730	2058	2857	4205	651	-17.0	200	0	0	564.7347	1	3	
60	0	569.4333	0	460	1105	2857	4205	501	-15.0	200	1	1	570.0081	1	0	
61	0	573.5601	0	460	1105	2857	4205	601	-15.0	200	1	1	573.9978	1	4	
62	0	585.4478	0	730	2058	2857	4205	951	-17.0	200	0	1	589.6119	0	2	
63	1	594.0945	0	730	2058	2857	4205	951	-17.0	200	0	1	594.4316	0	2	
64	1	598.8775	0	730	2058	2857	4205	951	-17.0	200	0	1	599.9481	0	2	
65	1	608.6821	0	730	2058	2857	4205	951	-17.0	200	0	0	610.6678	1	2	
66	0	615.5022	0	460	1105	2857	4205	751	-15.0	200	1	1	615.8952	1	3	
67	0	619.7769	0	460	1105	2857	4205	801	-15.0	200	1	1	620.0832	1	4	
68	0	628.1595	0	730	2058	2857	4205	951	-17.0	200	0	0	629.4795	1	1	
69	0	651.0052	0	730	2058	2857	4205	901	-17.0	200	0	0	652.1711	1	3	
70	0	656.9467	0	460	1105	2857	4205	701	-15.0	200	1	1	657.5043	1	3	
71	0	672.8888	0	460	1105	2857	4205	851	-15.0	200	1	1	673.3143	1	2	
72	0	678.1688	1	460	1105	2857	4205	601	-15.0	200	1	1	678.5647	1	4	
73	0	682.0258	0	730	2058	2857	4205	1001	-17.0	200	0	1	683.0137	0	4	
