Trial	CorrectionTrial?	StartTime	CenterReward?	F1	F2	F3	F4	HoldTime	Atten	Pitch	Side	Response	RespTime	Correct	SpatialMask	
1	0	19.9232	1	460	1105	2857	4205	551	-15.0	200	1	1	20.5556	1	0	
2	0	31.7421	0	460	1105	2857	4205	751	-15.0	200	1	1	37.0505	1	4	
3	0	56.0277	0	730	2058	2857	4205	601	-17.0	200	0	0	57.3222	1	4	
4	0	66.7442	0	460	1105	2857	4205	701	-15.0	200	1	1	67.5143	1	4	
5	0	78.6165	0	460	1105	2857	4205	1001	-15.0	200	1	1	78.9137	1	5	
6	0	89.5518	0	730	2058	2857	4205	651	-17.0	200	0	1	90.0259	0	1	
7	1	98.4782	0	730	2058	2857	4205	651	-17.0	200	0	0	99.8239	1	1	
8	0	107.2517	1	730	2058	2857	4205	801	-17.0	200	0	0	107.9399	1	0	
9	0	113.5591	0	730	2058	2857	4205	951	-17.0	200	0	0	115.7298	1	5	
10	0	121.5417	0	460	1105	2857	4205	901	-15.0	200	1	0	122.8272	0	0	
11	1	129.6356	0	460	1105	2857	4205	901	-15.0	200	1	1	129.8462	1	0	
12	0	141.4322	0	460	1105	2857	4205	501	-15.0	200	1	0	143.4721	0	2	
13	1	148.1834	0	460	1105	2857	4205	501	-15.0	200	1	0	149.0650	0	2	
14	1	156.5546	0	460	1105	2857	4205	501	-15.0	200	1	1	156.9914	1	2	
15	0	168.2232	1	730	2058	2857	4205	501	-17.0	200	0	0	173.6832	1	1	
16	0	182.6181	0	730	2058	2857	4205	701	-17.0	200	0	0	183.3638	1	2	
17	0	196.3863	0	730	2058	2857	4205	901	-17.0	200	0	1	197.3361	0	0	
18	1	203.8680	0	730	2058	2857	4205	901	-17.0	200	0	0	207.9641	1	0	
19	0	213.8766	0	460	1105	2857	4205	801	-15.0	200	1	0	214.5023	0	0	
20	1	223.6506	0	460	1105	2857	4205	801	-15.0	200	1	1	223.9468	1	0	
21	0	235.5591	0	730	2058	2857	4205	601	-17.0	200	0	0	236.4883	1	4	
22	0	245.3130	1	730	2058	2857	4205	1001	-17.0	200	0	0	246.4926	1	5	
23	0	252.7312	1	460	1105	2857	4205	651	-15.0	200	1	0	257.4765	0	5	
24	1	261.6664	0	460	1105	2857	4205	651	-15.0	200	1	1	261.9553	1	5	
25	0	269.3687	0	460	1105	2857	4205	851	-15.0	200	1	0	270.3759	0	2	
26	1	276.3822	0	460	1105	2857	4205	851	-15.0	200	1	1	276.7746	1	2	
27	0	282.1839	0	730	2058	2857	4205	551	-17.0	200	0	0	283.2524	1	1	
28	0	287.9953	0	730	2058	2857	4205	751	-17.0	200	0	0	288.3544	1	4	
29	0	293.2802	0	460	1105	2857	4205	551	-15.0	200	1	1	293.7267	1	3	
30	0	302.5019	0	460	1105	2857	4205	851	-15.0	200	1	1	302.8118	1	2	
31	0	314.8943	0	460	1105	2857	4205	801	-15.0	200	1	1	316.0171	1	3	
32	0	348.6027	0	730	2058	2857	4205	1001	-17.0	200	0	0	349.3492	1	0	
33	0	354.0727	0	460	1105	2857	4205	751	-15.0	200	1	1	354.3867	1	4	
34	0	364.6909	1	460	1105	2857	4205	901	-15.0	200	1	1	365.0047	1	3	
35	0	369.7326	0	730	2058	2857	4205	501	-17.0	200	0	1	371.6361	0	2	
36	1	376.3018	0	730	2058	2857	4205	501	-17.0	200	0	0	377.0200	1	2	
37	0	390.1685	1	460	1105	2857	4205	701	-15.0	200	1	1	392.3724	1	5	
38	0	396.4362	0	730	2058	2857	4205	951	-17.0	200	0	0	397.8534	1	5	
39	0	405.3959	0	730	2058	2857	4205	601	-17.0	200	0	0	405.8397	1	2	
40	0	416.7143	0	460	1105	2857	4205	751	-15.0	200	1	1	417.0461	1	1	
41	0	424.7498	0	730	2058	2857	4205	501	-17.0	200	0	0	425.7133	1	3	
42	0	433.0676	0	460	1105	2857	4205	801	-15.0	200	1	1	433.3699	1	1	
43	0	438.4125	0	460	1105	2857	4205	551	-15.0	200	1	0	438.9967	0	1	
44	1	444.1175	0	460	1105	2857	4205	551	-15.0	200	1	1	444.6223	1	1	
45	0	470.7264	0	730	2058	2857	4205	951	-17.0	200	0	0	471.1234	1	3	
46	0	480.3804	0	730	2058	2857	4205	851	-17.0	200	0	0	481.1042	1	3	
47	0	494.9461	0	460	1105	2857	4205	901	-15.0	200	1	1	495.2928	1	5	
48	0	504.6202	0	460	1105	2857	4205	1001	-15.0	200	1	1	504.9764	1	5	
49	0	519.4381	0	460	1105	2857	4205	651	-15.0	200	1	1	520.0275	1	1	
50	0	532.8459	1	730	2058	2857	4205	701	-17.0	200	0	0	536.4244	1	2	
51	0	540.7172	0	460	1105	2857	4205	551	-15.0	200	1	0	541.1720	0	3	
52	1	557.7508	0	460	1105	2857	4205	551	-15.0	200	1	1	558.2085	1	3	
53	0	569.7688	0	730	2058	2857	4205	701	-17.0	200	0	0	570.5070	1	4	
54	0	583.9512	0	730	2058	2857	4205	901	-17.0	200	0	0	584.5021	1	4	
55	0	589.0955	0	730	2058	2857	4205	501	-17.0	200	0	0	589.4292	1	0	
56	0	611.2279	0	730	2058	2857	4205	751	-17.0	200	0	1	611.7552	0	1	
57	1	615.8590	0	730	2058	2857	4205	751	-17.0	200	0	1	616.2757	0	1	
58	1	621.7255	0	730	2058	2857	4205	751	-17.0	200	0	0	622.2316	1	1	
59	0	630.7579	1	730	2058	2857	4205	801	-17.0	200	0	1	631.2240	0	1	
60	1	642.8208	0	730	2058	2857	4205	801	-17.0	200	0	1	643.3181	0	1	
61	1	647.9559	0	730	2058	2857	4205	801	-17.0	200	0	0	648.4953	1	1	
62	0	655.7873	0	460	1105	2857	4205	601	-15.0	200	1	1	656.1711	1	0	
63	0	663.1809	0	460	1105	2857	4205	851	-15.0	200	1	0	663.6234	0	2	
64	1	669.1089	0	460	1105	2857	4205	851	-15.0	200	1	1	669.5495	1	2	
65	0	686.5746	0	460	1105	2857	4205	1001	-15.0	200	1	0	687.0681	0	0	
66	1	697.6070	0	460	1105	2857	4205	1001	-15.0	200	1	1	698.1460	1	0	
67	0	711.5930	0	730	2058	2857	4205	951	-17.0	200	0	0	712.0592	1	4	
68	0	717.0276	0	460	1105	2857	4205	851	-15.0	200	1	0	717.6841	0	1	
69	1	729.7922	0	460	1105	2857	4205	851	-15.0	200	1	1	730.0875	1	1	
70	0	733.8548	0	730	2058	2857	4205	651	-17.0	200	0	0	734.5104	1	5	
71	0	738.4633	0	730	2058	2857	4205	551	-17.0	200	0	0	739.0332	1	0	
72	0	743.4846	0	730	2058	2857	4205	701	-17.0	200	0	1	744.0060	0	5	
73	1	749.4822	0	730	2058	2857	4205	701	-17.0	200	0	0	749.8795	1	5	
74	0	766.9164	0	730	2058	2857	4205	1001	-17.0	200	0	1	767.3973	0	2	
75	1	773.8042	0	730	2058	2857	4205	1001	-17.0	200	0	0	774.2662	1	2	
76	0	782.8930	0	730	2058	2857	4205	951	-17.0	200	0	0	783.5081	1	3	
77	0	791.7887	0	730	2058	2857	4205	901	-17.0	200	0	0	792.1240	1	3	
78	0	802.9132	0	730	2058	2857	4205	801	-17.0	200	0	0	803.6243	1	5	
79	0	811.9582	0	730	2058	2857	4205	601	-17.0	200	0	0	812.9695	1	1	
80	0	817.6996	0	460	1105	2857	4205	751	-15.0	200	1	1	818.4780	1	4	
81	0	825.2628	0	730	2058	2857	4205	1001	-17.0	200	0	0	825.7847	1	3	
82	0	839.6644	0	460	1105	2857	4205	751	-15.0	200	1	1	840.5974	1	3	
83	0	844.2888	1	460	1105	2857	4205	501	-15.0	200	1	1	844.8087	1	3	
84	0	849.2756	0	460	1105	2857	4205	951	-15.0	200	1	1	850.4319	1	4	
85	0	890.5389	1	460	1105	2857	4205	901	-15.0	200	1	1	890.9489	1	2	
86	0	895.9647	0	460	1105	2857	4205	701	-15.0	200	1	1	897.7138	1	1	
87	0	901.4691	0	460	1105	2857	4205	801	-15.0	200	1	1	901.9451	1	4	
88	0	910.6595	0	730	2058	2857	4205	601	-17.0	200	0	0	911.0987	1	0	
89	0	915.5574	0	460	1105	2857	4205	651	-15.0	200	1	0	916.1844	0	0	
90	1	921.6471	0	460	1105	2857	4205	651	-15.0	200	1	1	922.0434	1	0	
91	0	926.0057	0	460	1105	2857	4205	851	-15.0	200	1	0	926.4690	0	2	
92	1	939.1333	0	460	1105	2857	4205	851	-15.0	200	1	1	939.8709	1	2	
93	0	943.5938	0	460	1105	2857	4205	751	-15.0	200	1	1	944.2188	1	5	
94	0	954.8376	0	730	2058	2857	4205	601	-17.0	200	0	0	955.4421	1	2	
95	0	961.8939	0	460	1105	2857	4205	501	-15.0	200	1	1	962.4053	1	5	
96	0	976.6089	1	460	1105	2857	4205	1001	-15.0	200	1	1	977.0717	1	4	
97	0	980.2383	1	730	2058	2857	4205	701	-17.0	200	0	1	983.1083	0	5	
98	1	987.8675	1	730	2058	2857	4205	701	-17.0	200	0	0	990.8181	1	5	
99	0	995.4869	0	460	1105	2857	4205	551	-15.0	200	1	0	996.1592	0	2	
100	1	1004.0869	0	460	1105	2857	4205	551	-15.0	200	1	1	1004.4727	1	2	
101	0	1016.6591	0	730	2058	2857	4205	851	-17.0	200	0	0	1017.1254	1	4	
102	0	1023.9739	0	730	2058	2857	4205	801	-17.0	200	0	1	1024.4237	0	3	
103	1	1037.5873	0	730	2058	2857	4205	801	-17.0	200	0	0	1037.9851	1	3	
104	0	1043.7564	0	460	1105	2857	4205	651	-15.0	200	1	1	1044.6728	1	4	
105	0	1059.2582	0	730	2058	2857	4205	951	-17.0	200	0	1	1060.4095	0	1	
106	1	1067.5431	0	730	2058	2857	4205	951	-17.0	200	0	0	1068.1163	1	1	
107	0	1073.3688	0	460	1105	2857	4205	701	-15.0	200	1	1	1073.7021	1	5	
108	0	1077.2684	0	460	1105	2857	4205	501	-15.0	200	1	1	1077.6430	1	4	
109	0	1082.9830	0	460	1105	2857	4205	601	-15.0	200	1	1	1083.3891	1	1	
110	0	1090.7303	0	730	2058	2857	4205	751	-17.0	200	0	0	1091.3604	1	0	
111	0	1106.8967	0	460	1105	2857	4205	901	-15.0	200	1	1	1107.1875	1	0	
112	0	1110.6797	0	730	2058	2857	4205	951	-17.0	200	0	1	1111.0462	0	0	
113	1	1121.3600	0	730	2058	2857	4205	951	-17.0	200	0	0	1122.0867	1	0	
114	0	1127.4373	0	460	1105	2857	4205	851	-15.0	200	1	1	1127.8708	1	1	
115	0	1137.1330	0	730	2058	2857	4205	801	-17.0	200	0	0	1137.8600	1	4	
116	0	1142.2527	0	460	1105	2857	4205	1001	-15.0	200	1	1	1142.7123	1	5	
117	0	1154.0046	0	460	1105	2857	4205	651	-15.0	200	1	1	1154.4416	1	2	
118	0	1165.2830	0	460	1105	2857	4205	651	-15.0	200	1	1	1165.7182	1	0	
119	0	1169.8550	1	460	1105	2857	4205	701	-15.0	200	1	1	1170.2663	1	3	
120	0	1174.4874	0	730	2058	2857	4205	801	-17.0	200	0	1	1175.9543	0	2	
121	1	1186.5687	0	730	2058	2857	4205	801	-17.0	200	0	0	1187.1860	1	2	
122	0	1191.7685	0	460	1105	2857	4205	601	-15.0	200	1	1	1192.1807	1	1	
123	0	1199.7924	1	730	2058	2857	4205	951	-17.0	200	0	0	1200.2207	1	3	
124	0	1205.4082	0	460	1105	2857	4205	901	-15.0	200	1	1	1207.9340	1	0	
125	0	1218.5345	1	730	2058	2857	4205	751	-17.0	200	0	1	1218.8661	0	1	
126	1	1229.8501	0	730	2058	2857	4205	751	-17.0	200	0	0	1230.4089	1	1	
127	0	1235.1884	0	730	2058	2857	4205	501	-17.0	200	0	0	1235.6133	1	5	
128	0	1242.2548	0	730	2058	2857	4205	551	-17.0	200	0	0	1242.7553	1	2	
129	0	1256.2879	0	730	2058	2857	4205	1001	-17.0	200	0	0	1256.9728	1	0	
130	0	1262.5637	0	460	1105	2857	4205	951	-15.0	200	1	1	1262.8664	1	3	
131	0	1285.7042	0	460	1105	2857	4205	551	-15.0	200	1	1	1286.0439	1	3	
132	0	1293.3484	0	730	2058	2857	4205	701	-17.0	200	0	0	1294.0752	1	2	
133	0	1303.0923	1	730	2058	2857	4205	801	-17.0	200	0	1	1303.3419	0	1	
134	1	1309.2836	0	730	2058	2857	4205	801	-17.0	200	0	1	1309.5802	0	1	
135	1	1320.4087	0	730	2058	2857	4205	801	-17.0	200	0	1	1320.8130	0	1	
136	1	1325.4442	0	730	2058	2857	4205	801	-17.0	200	0	0	1325.9560	1	1	
137	0	1330.3349	0	730	2058	2857	4205	601	-17.0	200	0	1	1331.1911	0	5	
138	1	1335.0705	0	730	2058	2857	4205	601	-17.0	200	0	0	1336.4136	1	5	
139	0	1343.9573	0	460	1105	2857	4205	501	-15.0	200	1	1	1344.4607	1	2	
140	0	1353.4888	0	730	2058	2857	4205	901	-17.0	200	0	0	1354.0724	1	3	
141	0	1365.2473	0	730	2058	2857	4205	851	-17.0	200	0	0	1365.9525	1	4	
142	0	1370.8450	0	730	2058	2857	4205	751	-17.0	200	0	0	1371.3046	1	5	
143	0	1376.1531	0	730	2058	2857	4205	651	-17.0	200	0	0	1376.7370	1	1	
144	0	1381.0215	0	460	1105	2857	4205	751	-15.0	200	1	1	1381.4350	1	4	
145	0	1438.4017	0	460	1105	2857	4205	901	-15.0	200	1	0	1444.0589	0	4	
