Trial,CorrectionTrial,StartTime,CenterReward,SpkrIdx,SpkrPos,duration,HoldTime,Atten,Response,RespTime,Correct,ComputerTime,Modality,Condition,SessionDate,originalFile,LeftTemperature,RightTemperature,fNum,ResponseAngle,Spkr_Rad,spkr_hemifield,resp_hemifield,LatCorrect,Error
1,0,1067.214,0,7,-60,250,901,0.0,7,1068.154,1,736148.67652,Aud,Left,2015-07-03 15:56:00,3_7_2015 level5_250_cooling 15_56 log,12.0,36.0,1311,-60,-1.0471975511965976,L,L,1,0
2,0,1084.179,0,4,30,250,601,4.5,4,1085.177,1,736148.676717,Aud,Left,2015-07-03 15:56:00,3_7_2015 level5_250_cooling 15_56 log,12.0,35.0,1311,30,0.5235987755982988,R,R,1,0
4,0,1100.888,0,6,-30,250,1001,0.0,6,1101.935,1,736148.676911,Aud,Left,2015-07-03 15:56:00,3_7_2015 level5_250_cooling 15_56 log,12.0,35.0,1311,-30,-0.5235987755982988,L,L,1,0
6,0,1121.612,0,7,-60,250,651,9.0,7,1122.504,1,736148.677149,Aud,Left,2015-07-03 15:56:00,3_7_2015 level5_250_cooling 15_56 log,12.0,35.0,1311,-60,-1.0471975511965976,L,L,1,0
14,0,1222.896,0,2,90,250,1001,9.0,3,1223.321,0,736148.678321,Aud,Left,2015-07-03 15:56:00,3_7_2015 level5_250_cooling 15_56 log,11.0,35.0,1311,60,1.5707963267948966,R,R,1,30
16,0,1247.109,0,3,60,250,801,9.0,3,1247.787,1,736148.678601,Aud,Left,2015-07-03 15:56:00,3_7_2015 level5_250_cooling 15_56 log,11.0,35.0,1311,60,1.0471975511965976,R,R,1,0
17,0,1254.473,1,4,30,250,851,0.0,4,1255.31,1,736148.678687,Aud,Left,2015-07-03 15:56:00,3_7_2015 level5_250_cooling 15_56 log,11.0,35.0,1311,30,0.5235987755982988,R,R,1,0
19,0,1272.35,0,8,-90,250,601,4.5,7,1273.315,0,736148.678894,Aud,Left,2015-07-03 15:56:00,3_7_2015 level5_250_cooling 15_56 log,11.0,35.0,1311,-60,-1.5707963267948966,L,L,1,30
23,0,1311.415,0,5,0,250,901,9.0,7,1312.462,0,736148.679348,Aud,Left,2015-07-03 15:56:00,3_7_2015 level5_250_cooling 15_56 log,11.0,35.0,1311,-60,0.0,,L,0,60
24,0,1320.749,0,3,60,250,601,4.5,4,1323.072,0,736148.679471,Aud,Left,2015-07-03 15:56:00,3_7_2015 level5_250_cooling 15_56 log,11.0,35.0,1311,30,1.0471975511965976,R,R,1,30
25,0,1334.503,0,6,-30,250,651,0.0,6,1335.346,1,736148.679613,Aud,Left,2015-07-03 15:56:00,3_7_2015 level5_250_cooling 15_56 log,11.0,35.0,1311,-30,-0.5235987755982988,L,L,1,0
26,0,1353.128,0,5,0,250,701,9.0,7,1354.726,0,736148.679837,Aud,Left,2015-07-03 15:56:00,3_7_2015 level5_250_cooling 15_56 log,11.0,35.0,1311,-60,0.0,,L,0,60
27,0,1365.084,0,8,-90,250,501,9.0,8,1365.825,1,736148.679967,Aud,Left,2015-07-03 15:56:00,3_7_2015 level5_250_cooling 15_56 log,11.0,35.0,1311,-90,-1.5707963267948966,L,L,1,0
29,0,1387.697,0,7,-60,250,1001,4.5,7,1392.001,1,736148.680268,Aud,Left,2015-07-03 15:56:00,3_7_2015 level5_250_cooling 15_56 log,11.0,35.0,1311,-60,-1.0471975511965976,L,L,1,0
32,0,1425.911,0,3,60,250,651,4.5,4,1426.746,0,736148.68067,Aud,Left,2015-07-03 15:56:00,3_7_2015 level5_250_cooling 15_56 log,11.0,35.0,1311,30,1.0471975511965976,R,R,1,30
33,0,1434.722,0,2,90,250,801,9.0,6,1436.258,0,736148.68078,Aud,Left,2015-07-03 15:56:00,3_7_2015 level5_250_cooling 15_56 log,11.0,35.0,1311,-30,1.5707963267948966,R,L,0,120
35,0,1456.081,0,8,-90,250,901,9.0,8,1456.794,1,736148.68102,Aud,Left,2015-07-03 15:56:00,3_7_2015 level5_250_cooling 15_56 log,11.0,35.0,1311,-90,-1.5707963267948966,L,L,1,0
40,0,1510.567,0,4,30,250,701,9.0,4,1511.613,1,736148.681653,Aud,Left,2015-07-03 15:56:00,3_7_2015 level5_250_cooling 15_56 log,11.0,35.0,1311,30,0.5235987755982988,R,R,1,0
41,0,1521.473,1,6,-30,250,701,0.0,6,1522.561,1,736148.681781,Aud,Left,2015-07-03 15:56:00,3_7_2015 level5_250_cooling 15_56 log,11.0,35.0,1311,-30,-0.5235987755982988,L,L,1,0
44,0,1564.387,0,5,0,250,601,9.0,5,1565.436,1,736148.682275,Aud,Left,2015-07-03 15:56:00,3_7_2015 level5_250_cooling 15_56 log,11.0,35.0,1311,0,0.0,,,0,0
48,0,1603.431,0,7,-60,250,901,0.0,7,1604.273,1,736148.682725,Aud,Left,2015-07-03 15:56:00,3_7_2015 level5_250_cooling 15_56 log,11.0,35.0,1311,-60,-1.0471975511965976,L,L,1,0
49,0,1615.694,0,6,-30,250,951,4.5,7,1616.781,0,736148.682871,Aud,Left,2015-07-03 15:56:00,3_7_2015 level5_250_cooling 15_56 log,11.0,35.0,1311,-60,-0.5235987755982988,L,L,1,30
54,0,1666.258,0,3,60,250,851,4.5,4,1667.098,0,736148.683453,Aud,Left,2015-07-03 15:56:00,3_7_2015 level5_250_cooling 15_56 log,10.0,35.0,1311,30,1.0471975511965976,R,R,1,30
57,0,1694.415,0,2,90,250,701,9.0,4,1695.062,0,736148.683778,Aud,Left,2015-07-03 15:56:00,3_7_2015 level5_250_cooling 15_56 log,10.0,35.0,1311,30,1.5707963267948966,R,R,1,60
59,0,1712.298,0,5,0,250,551,9.0,8,1714.198,0,736148.683998,Aud,Left,2015-07-03 15:56:00,3_7_2015 level5_250_cooling 15_56 log,11.0,35.0,1311,-90,0.0,,L,0,90
61,0,1741.571,1,4,30,250,601,0.0,5,1742.639,0,736148.684327,Aud,Left,2015-07-03 15:56:00,3_7_2015 level5_250_cooling 15_56 log,11.0,35.0,1311,0,0.5235987755982988,R,,0,30
62,0,1749.274,0,7,-60,250,651,4.5,7,1751.335,1,736148.684427,Aud,Left,2015-07-03 15:56:00,3_7_2015 level5_250_cooling 15_56 log,11.0,35.0,1311,-60,-1.0471975511965976,L,L,1,0
71,0,1854.338,0,3,60,250,501,9.0,4,1855.089,0,736148.685629,Aud,Left,2015-07-03 15:56:00,3_7_2015 level5_250_cooling 15_56 log,11.0,35.0,1311,30,1.0471975511965976,R,R,1,30
73,0,1873.031,0,6,-30,250,551,9.0,7,1874.079,0,736148.685848,Aud,Left,2015-07-03 15:56:00,3_7_2015 level5_250_cooling 15_56 log,11.0,34.0,1311,-60,-0.5235987755982988,L,L,1,30
74,0,1885.01,0,2,90,250,951,4.5,8,1886.104,0,736148.685987,Aud,Left,2015-07-03 15:56:00,3_7_2015 level5_250_cooling 15_56 log,11.0,34.0,1311,-90,1.5707963267948966,R,L,0,180
77,0,1964.638,0,5,0,250,601,9.0,6,1966.141,0,736148.686913,Aud,Left,2015-07-03 15:56:00,3_7_2015 level5_250_cooling 15_56 log,11.0,34.0,1311,-30,0.0,,L,0,30
78,0,1972.707,0,6,-30,250,701,0.0,6,1973.829,1,736148.687002,Aud,Left,2015-07-03 15:56:00,3_7_2015 level5_250_cooling 15_56 log,11.0,35.0,1311,-30,-0.5235987755982988,L,L,1,0
79,0,1984.578,0,8,-90,250,1001,0.0,8,1985.465,1,736148.687137,Aud,Left,2015-07-03 15:56:00,3_7_2015 level5_250_cooling 15_56 log,11.0,35.0,1311,-90,-1.5707963267948966,L,L,1,0
83,0,2022.577,0,7,-60,250,1001,4.5,8,2023.482,0,736148.687577,Aud,Left,2015-07-03 15:56:00,3_7_2015 level5_250_cooling 15_56 log,11.0,35.0,1311,-90,-1.0471975511965976,L,L,1,30
91,0,2113.717,0,4,30,250,1001,4.5,3,2114.418,0,736148.688631,Aud,Left,2015-07-03 15:56:00,3_7_2015 level5_250_cooling 15_56 log,11.0,34.0,1311,60,0.5235987755982988,R,R,1,30
92,0,2127.717,0,4,30,250,951,0.0,4,2128.386,1,736148.688793,Aud,Left,2015-07-03 15:56:00,3_7_2015 level5_250_cooling 15_56 log,11.0,34.0,1311,30,0.5235987755982988,R,R,1,0
93,0,2136.611,0,8,-90,250,851,4.5,8,2138.075,1,736148.688903,Aud,Left,2015-07-03 15:56:00,3_7_2015 level5_250_cooling 15_56 log,11.0,34.0,1311,-90,-1.5707963267948966,L,L,1,0
94,0,2144.544,0,7,-60,250,751,0.0,7,2145.411,1,736148.688988,Aud,Left,2015-07-03 15:56:00,3_7_2015 level5_250_cooling 15_56 log,11.0,34.0,1311,-60,-1.0471975511965976,L,L,1,0
96,0,2172.512,0,8,-90,250,801,9.0,8,2173.349,1,736148.689312,Aud,Left,2015-07-03 15:56:00,3_7_2015 level5_250_cooling 15_56 log,11.0,34.0,1311,-90,-1.5707963267948966,L,L,1,0
97,0,2181.384,0,2,90,250,901,0.0,4,2182.249,0,736148.689415,Aud,Left,2015-07-03 15:56:00,3_7_2015 level5_250_cooling 15_56 log,10.0,35.0,1311,30,1.5707963267948966,R,R,1,60
99,0,2198.632,0,7,-60,250,501,4.5,6,2199.739,0,736148.689617,Aud,Left,2015-07-03 15:56:00,3_7_2015 level5_250_cooling 15_56 log,10.0,35.0,1311,-30,-1.0471975511965976,L,L,1,30
101,0,2215.323,0,5,0,250,951,4.5,5,2216.288,1,736148.689808,Aud,Left,2015-07-03 15:56:00,3_7_2015 level5_250_cooling 15_56 log,10.0,35.0,1311,0,0.0,,,0,0
104,0,2245.767,0,2,90,250,851,4.5,2,2246.52,1,736148.690159,Aud,Left,2015-07-03 15:56:00,3_7_2015 level5_250_cooling 15_56 log,10.0,35.0,1311,90,1.5707963267948966,R,R,1,0
105,0,2256.623,0,6,-30,250,901,9.0,3,2257.75,0,736148.690288,Aud,Left,2015-07-03 15:56:00,3_7_2015 level5_250_cooling 15_56 log,10.0,35.0,1311,60,-0.5235987755982988,L,R,0,90
112,0,2331.49,0,3,60,250,901,4.5,4,2332.61,0,736148.691155,Aud,Left,2015-07-03 15:56:00,3_7_2015 level5_250_cooling 15_56 log,9.0,35.0,1311,30,1.0471975511965976,R,R,1,30
115,0,2357.436,0,5,0,250,651,9.0,6,2358.322,0,736148.691453,Aud,Left,2015-07-03 15:56:00,3_7_2015 level5_250_cooling 15_56 log,10.0,35.0,1311,-30,0.0,,L,0,30
116,0,2369.727,0,4,30,250,751,0.0,3,2374.042,0,736148.691635,Aud,Left,2015-07-03 15:56:00,3_7_2015 level5_250_cooling 15_56 log,10.0,35.0,1311,60,0.5235987755982988,R,R,1,30
117,0,2387.678,0,8,-90,250,601,9.0,8,2388.677,1,736148.691804,Aud,Left,2015-07-03 15:56:00,3_7_2015 level5_250_cooling 15_56 log,10.0,35.0,1311,-90,-1.5707963267948966,L,L,1,0
118,0,2396.211,0,2,90,250,951,4.5,8,2397.399,0,736148.691905,Aud,Left,2015-07-03 15:56:00,3_7_2015 level5_250_cooling 15_56 log,10.0,35.0,1311,-90,1.5707963267948966,R,L,0,180
119,0,2412.425,0,6,-30,250,501,4.5,2,2419.961,0,736148.692165,Aud,Left,2015-07-03 15:56:00,3_7_2015 level5_250_cooling 15_56 log,10.0,35.0,1311,90,-0.5235987755982988,L,R,0,120
1,0,1589.059,0,4,30,100,951,4.5,4,1598.152,1,736183.587562,Aud,Left,2015-08-07 13:39:00,7_8_2015 level5_100_cooling 13_39 log,11.0,35.0,1311,30,0.5235987755982988,R,R,1,0
2,0,1606.821,0,2,90,100,551,0.0,2,1616.307,1,736183.587773,Aud,Left,2015-08-07 13:39:00,7_8_2015 level5_100_cooling 13_39 log,10.0,36.0,1311,90,1.5707963267948966,R,R,1,0
3,0,1620.593,0,5,0,100,501,4.5,8,1623.108,0,736183.587852,Aud,Left,2015-08-07 13:39:00,7_8_2015 level5_100_cooling 13_39 log,10.0,36.0,1311,-90,0.0,,L,0,90
4,0,1679.251,0,2,90,100,901,9.0,3,1680.521,0,736183.588516,Aud,Left,2015-08-07 13:39:00,7_8_2015 level5_100_cooling 13_39 log,9.0,35.0,1311,60,1.5707963267948966,R,R,1,30
5,0,1689.08,0,3,60,100,651,0.0,2,1690.034,0,736183.588626,Aud,Left,2015-08-07 13:39:00,7_8_2015 level5_100_cooling 13_39 log,9.0,35.0,1311,90,1.0471975511965976,R,R,1,30
6,0,1709.564,0,8,-90,100,701,9.0,8,1710.706,1,736183.588865,Aud,Left,2015-08-07 13:39:00,7_8_2015 level5_100_cooling 13_39 log,9.0,35.0,1311,-90,-1.5707963267948966,L,L,1,0
7,0,1717.231,0,7,-60,100,751,9.0,8,1717.915,0,736183.58895,Aud,Left,2015-08-07 13:39:00,7_8_2015 level5_100_cooling 13_39 log,9.0,35.0,1311,-90,-1.0471975511965976,L,L,1,30
8,0,1727.175,0,8,-90,100,801,0.0,8,1727.83,1,736183.589066,Aud,Left,2015-08-07 13:39:00,7_8_2015 level5_100_cooling 13_39 log,9.0,35.0,1311,-90,-1.5707963267948966,L,L,1,0
9,0,1735.017,0,6,-30,100,1001,9.0,7,1736.018,0,736183.589158,Aud,Left,2015-08-07 13:39:00,7_8_2015 level5_100_cooling 13_39 log,9.0,35.0,1311,-60,-0.5235987755982988,L,L,1,30
10,0,1744.837,0,3,60,100,601,0.0,2,1745.814,0,736183.589272,Aud,Left,2015-08-07 13:39:00,7_8_2015 level5_100_cooling 13_39 log,8.0,35.0,1311,90,1.0471975511965976,R,R,1,30
11,0,1756.174,0,6,-30,100,801,4.5,7,1758.462,0,736183.589419,Aud,Left,2015-08-07 13:39:00,7_8_2015 level5_100_cooling 13_39 log,8.0,35.0,1311,-60,-0.5235987755982988,L,L,1,30
12,0,1768.863,0,4,30,100,951,9.0,8,1774.453,0,736183.589603,Aud,Left,2015-08-07 13:39:00,7_8_2015 level5_100_cooling 13_39 log,8.0,35.0,1311,-90,0.5235987755982988,R,L,0,120
13,0,1786.504,0,5,0,100,701,9.0,4,1787.86,0,736183.589759,Aud,Left,2015-08-07 13:39:00,7_8_2015 level5_100_cooling 13_39 log,8.0,35.0,1311,30,0.0,,R,0,30
14,0,1799.929,0,7,-60,100,501,4.5,7,1801.323,1,736183.589914,Aud,Left,2015-08-07 13:39:00,7_8_2015 level5_100_cooling 13_39 log,8.0,35.0,1311,-60,-1.0471975511965976,L,L,1,0
15,0,1807.922,0,6,-30,100,751,4.5,8,1809.408,0,736183.590008,Aud,Left,2015-08-07 13:39:00,7_8_2015 level5_100_cooling 13_39 log,8.0,35.0,1311,-90,-0.5235987755982988,L,L,1,60
16,0,1817.079,0,3,60,100,651,0.0,3,1818.46,1,736183.590113,Aud,Left,2015-08-07 13:39:00,7_8_2015 level5_100_cooling 13_39 log,8.0,35.0,1311,60,1.0471975511965976,R,R,1,0
17,0,1824.086,0,5,0,100,901,9.0,4,1824.957,0,736183.590187,Aud,Left,2015-08-07 13:39:00,7_8_2015 level5_100_cooling 13_39 log,8.0,35.0,1311,30,0.0,,R,0,30
18,0,1837.727,0,5,0,100,1001,0.0,6,1838.608,0,736183.590346,Aud,Left,2015-08-07 13:39:00,7_8_2015 level5_100_cooling 13_39 log,8.0,35.0,1311,-30,0.0,,L,0,30
19,0,1864.68,0,8,-90,100,601,0.0,8,1865.454,1,736183.590657,Aud,Left,2015-08-07 13:39:00,7_8_2015 level5_100_cooling 13_39 log,8.0,35.0,1311,-90,-1.5707963267948966,L,L,1,0
20,0,1871.896,0,7,-60,100,551,9.0,8,1872.571,0,736183.590741,Aud,Left,2015-08-07 13:39:00,7_8_2015 level5_100_cooling 13_39 log,8.0,35.0,1311,-90,-1.0471975511965976,L,L,1,30
21,0,1881.645,0,6,-30,100,751,4.5,6,1882.518,1,736183.590854,Aud,Left,2015-08-07 13:39:00,7_8_2015 level5_100_cooling 13_39 log,8.0,35.0,1311,-30,-0.5235987755982988,L,L,1,0
22,0,1894.185,0,2,90,100,951,0.0,2,1894.902,1,736183.590999,Aud,Left,2015-08-07 13:39:00,7_8_2015 level5_100_cooling 13_39 log,8.0,35.0,1311,90,1.5707963267948966,R,R,1,0
23,0,1907.754,0,7,-60,100,901,0.0,7,1908.572,1,736183.591156,Aud,Left,2015-08-07 13:39:00,7_8_2015 level5_100_cooling 13_39 log,8.0,35.0,1311,-60,-1.0471975511965976,L,L,1,0
24,0,1916.432,0,8,-90,100,801,4.5,8,1917.025,1,736183.591256,Aud,Left,2015-08-07 13:39:00,7_8_2015 level5_100_cooling 13_39 log,8.0,35.0,1311,-90,-1.5707963267948966,L,L,1,0
25,0,1924.974,0,4,30,100,651,9.0,6,1926.703,0,736183.591365,Aud,Left,2015-08-07 13:39:00,7_8_2015 level5_100_cooling 13_39 log,8.0,35.0,1311,-30,0.5235987755982988,R,L,0,60
26,0,1935.455,0,2,90,100,601,4.5,3,1936.571,0,736183.59148,Aud,Left,2015-08-07 13:39:00,7_8_2015 level5_100_cooling 13_39 log,8.0,35.0,1311,60,1.5707963267948966,R,R,1,30
27,0,1956.228,0,4,30,100,701,0.0,2,1956.987,0,736183.591716,Aud,Left,2015-08-07 13:39:00,7_8_2015 level5_100_cooling 13_39 log,8.0,35.0,1311,90,0.5235987755982988,R,R,1,60
28,0,1968.849,0,3,60,100,551,9.0,3,1970.576,1,736183.591873,Aud,Left,2015-08-07 13:39:00,7_8_2015 level5_100_cooling 13_39 log,8.0,35.0,1311,60,1.0471975511965976,R,R,1,0
29,0,1978.279,0,4,30,100,501,4.5,4,1979.193,1,736183.591973,Aud,Left,2015-08-07 13:39:00,7_8_2015 level5_100_cooling 13_39 log,8.0,35.0,1311,30,0.5235987755982988,R,R,1,0
30,0,1983.286,0,6,-30,100,1001,9.0,7,1984.207,0,736183.59203,Aud,Left,2015-08-07 13:39:00,7_8_2015 level5_100_cooling 13_39 log,8.0,35.0,1311,-60,-0.5235987755982988,L,L,1,30
31,0,1993.93,1,3,60,100,551,9.0,4,1995.02,0,736183.592156,Aud,Left,2015-08-07 13:39:00,7_8_2015 level5_100_cooling 13_39 log,8.0,35.0,1311,30,1.0471975511965976,R,R,1,30
32,0,2002.638,0,5,0,100,651,0.0,6,2004.005,0,736183.59226,Aud,Left,2015-08-07 13:39:00,7_8_2015 level5_100_cooling 13_39 log,8.0,35.0,1311,-30,0.0,,L,0,30
33,0,2011.893,0,8,-90,100,851,4.5,8,2012.745,1,736183.592361,Aud,Left,2015-08-07 13:39:00,7_8_2015 level5_100_cooling 13_39 log,8.0,35.0,1311,-90,-1.5707963267948966,L,L,1,0
34,0,2021.78,0,4,30,100,801,9.0,5,2023.018,0,736183.59248,Aud,Left,2015-08-07 13:39:00,7_8_2015 level5_100_cooling 13_39 log,8.0,35.0,1311,0,0.5235987755982988,R,,0,30
35,0,2034.418,0,7,-60,100,601,0.0,7,2035.2,1,736183.592623,Aud,Left,2015-08-07 13:39:00,7_8_2015 level5_100_cooling 13_39 log,8.0,35.0,1311,-60,-1.0471975511965976,L,L,1,0
36,0,2041.433,0,7,-60,100,701,9.0,7,2042.27,1,736183.592703,Aud,Left,2015-08-07 13:39:00,7_8_2015 level5_100_cooling 13_39 log,8.0,35.0,1311,-60,-1.0471975511965976,L,L,1,0
37,0,2049.699,0,6,-30,100,901,9.0,6,2050.359,1,736183.592799,Aud,Left,2015-08-07 13:39:00,7_8_2015 level5_100_cooling 13_39 log,8.0,35.0,1311,-30,-0.5235987755982988,L,L,1,0
38,0,2060.177,0,2,90,100,501,4.5,2,2061.254,1,736183.592923,Aud,Left,2015-08-07 13:39:00,7_8_2015 level5_100_cooling 13_39 log,8.0,34.0,1311,90,1.5707963267948966,R,R,1,0
39,0,2069.405,0,8,-90,100,1001,4.5,8,2070.275,1,736183.593027,Aud,Left,2015-08-07 13:39:00,7_8_2015 level5_100_cooling 13_39 log,8.0,34.0,1311,-90,-1.5707963267948966,L,L,1,0
40,0,2078.076,0,3,60,100,751,0.0,3,2078.889,1,736183.593127,Aud,Left,2015-08-07 13:39:00,7_8_2015 level5_100_cooling 13_39 log,8.0,34.0,1311,60,1.0471975511965976,R,R,1,0
41,0,2085.582,1,2,90,100,651,0.0,3,2086.404,0,736183.593214,Aud,Left,2015-08-07 13:39:00,7_8_2015 level5_100_cooling 13_39 log,8.0,34.0,1311,60,1.5707963267948966,R,R,1,30
42,0,2093.856,0,5,0,100,501,4.5,6,2094.998,0,736183.593313,Aud,Left,2015-08-07 13:39:00,7_8_2015 level5_100_cooling 13_39 log,8.0,34.0,1311,-30,0.0,,L,0,30
43,0,2103.879,0,6,-30,100,601,9.0,7,2104.707,0,736183.593426,Aud,Left,2015-08-07 13:39:00,7_8_2015 level5_100_cooling 13_39 log,8.0,34.0,1311,-60,-0.5235987755982988,L,L,1,30
44,0,2114.79,0,8,-90,100,751,0.0,8,2115.438,1,736183.593552,Aud,Left,2015-08-07 13:39:00,7_8_2015 level5_100_cooling 13_39 log,8.0,34.0,1311,-90,-1.5707963267948966,L,L,1,0
45,0,2122.797,0,6,-30,100,851,9.0,8,2123.646,0,736183.593644,Aud,Left,2015-08-07 13:39:00,7_8_2015 level5_100_cooling 13_39 log,8.0,34.0,1311,-90,-0.5235987755982988,L,L,1,60
46,0,2133.735,0,3,60,100,551,4.5,3,2134.902,1,736183.593775,Aud,Left,2015-08-07 13:39:00,7_8_2015 level5_100_cooling 13_39 log,8.0,34.0,1311,60,1.0471975511965976,R,R,1,0
47,0,2142.353,0,8,-90,100,1001,4.5,8,2143.155,1,736183.593871,Aud,Left,2015-08-07 13:39:00,7_8_2015 level5_100_cooling 13_39 log,8.0,34.0,1311,-90,-1.5707963267948966,L,L,1,0
48,0,2150.594,0,5,0,100,951,9.0,5,2151.69,1,736183.59397,Aud,Left,2015-08-07 13:39:00,7_8_2015 level5_100_cooling 13_39 log,8.0,34.0,1311,0,0.0,,,0,0
49,0,2161.149,0,7,-60,100,901,9.0,6,2162.101,0,736183.59409,Aud,Left,2015-08-07 13:39:00,7_8_2015 level5_100_cooling 13_39 log,8.0,34.0,1311,-30,-1.0471975511965976,L,L,1,30
50,0,2173.628,0,2,90,100,801,4.5,3,2174.68,0,736183.594235,Aud,Left,2015-08-07 13:39:00,7_8_2015 level5_100_cooling 13_39 log,8.0,35.0,1311,60,1.5707963267948966,R,R,1,30
51,0,2181.964,0,4,30,100,751,4.5,3,2182.849,0,736183.59433,Aud,Left,2015-08-07 13:39:00,7_8_2015 level5_100_cooling 13_39 log,8.0,35.0,1311,60,0.5235987755982988,R,R,1,30
52,0,2191.523,0,2,90,100,701,9.0,2,2192.434,1,736183.594441,Aud,Left,2015-08-07 13:39:00,7_8_2015 level5_100_cooling 13_39 log,8.0,35.0,1311,90,1.5707963267948966,R,R,1,0
53,0,2201.128,0,3,60,100,951,9.0,3,2202.137,1,736183.594553,Aud,Left,2015-08-07 13:39:00,7_8_2015 level5_100_cooling 13_39 log,8.0,35.0,1311,60,1.0471975511965976,R,R,1,0
54,0,2209.362,0,7,-60,100,601,4.5,6,2210.419,0,736183.594649,Aud,Left,2015-08-07 13:39:00,7_8_2015 level5_100_cooling 13_39 log,8.0,35.0,1311,-30,-1.0471975511965976,L,L,1,30
55,0,2220.952,0,5,0,100,551,4.5,4,2222.069,0,736183.594784,Aud,Left,2015-08-07 13:39:00,7_8_2015 level5_100_cooling 13_39 log,8.0,35.0,1311,30,0.0,,R,0,30
56,0,2240.054,0,4,30,100,801,9.0,2,2240.901,0,736183.595002,Aud,Left,2015-08-07 13:39:00,7_8_2015 level5_100_cooling 13_39 log,8.0,35.0,1311,90,0.5235987755982988,R,R,1,60
57,0,2256.921,0,2,90,100,501,4.5,4,2258.171,0,736183.595202,Aud,Left,2015-08-07 13:39:00,7_8_2015 level5_100_cooling 13_39 log,8.0,35.0,1311,30,1.5707963267948966,R,R,1,60
58,0,2286.677,0,5,0,100,1001,9.0,5,2287.551,1,736183.595542,Aud,Left,2015-08-07 13:39:00,7_8_2015 level5_100_cooling 13_39 log,8.0,35.0,1311,0,0.0,,,0,0
59,0,2295.208,0,7,-60,100,851,4.5,7,2296.106,1,736183.595641,Aud,Left,2015-08-07 13:39:00,7_8_2015 level5_100_cooling 13_39 log,8.0,35.0,1311,-60,-1.0471975511965976,L,L,1,0
60,0,2300.955,0,8,-90,100,651,0.0,8,2301.581,1,736183.595707,Aud,Left,2015-08-07 13:39:00,7_8_2015 level5_100_cooling 13_39 log,8.0,35.0,1311,-90,-1.5707963267948966,L,L,1,0
61,0,2307.779,0,7,-60,100,851,9.0,6,2308.678,0,736183.595786,Aud,Left,2015-08-07 13:39:00,7_8_2015 level5_100_cooling 13_39 log,8.0,35.0,1311,-30,-1.0471975511965976,L,L,1,30
62,0,2317.448,0,8,-90,100,601,4.5,8,2318.161,1,736183.595897,Aud,Left,2015-08-07 13:39:00,7_8_2015 level5_100_cooling 13_39 log,8.0,35.0,1311,-90,-1.5707963267948966,L,L,1,0
63,0,2325.568,0,6,-30,100,1001,0.0,8,2326.213,0,736183.595992,Aud,Left,2015-08-07 13:39:00,7_8_2015 level5_100_cooling 13_39 log,8.0,35.0,1311,-90,-0.5235987755982988,L,L,1,60
64,0,2338.446,0,4,30,100,651,4.5,2,2339.367,0,736183.596141,Aud,Left,2015-08-07 13:39:00,7_8_2015 level5_100_cooling 13_39 log,8.0,35.0,1311,90,0.5235987755982988,R,R,1,60
65,0,2348.759,0,3,60,100,751,4.5,3,2349.501,1,736183.59626,Aud,Left,2015-08-07 13:39:00,7_8_2015 level5_100_cooling 13_39 log,7.0,35.0,1311,60,1.0471975511965976,R,R,1,0
66,0,2358.057,1,3,60,100,501,9.0,4,2359.211,0,736183.596371,Aud,Left,2015-08-07 13:39:00,7_8_2015 level5_100_cooling 13_39 log,7.0,35.0,1311,30,1.0471975511965976,R,R,1,30
67,0,2367.875,0,6,-30,100,901,4.5,5,2369.183,0,736183.596487,Aud,Left,2015-08-07 13:39:00,7_8_2015 level5_100_cooling 13_39 log,7.0,35.0,1311,0,-0.5235987755982988,L,,0,30
68,0,2378.589,0,4,30,100,701,9.0,3,2380.131,0,736183.596613,Aud,Left,2015-08-07 13:39:00,7_8_2015 level5_100_cooling 13_39 log,8.0,34.0,1311,60,0.5235987755982988,R,R,1,30
69,0,2392.047,0,2,90,100,801,0.0,2,2392.819,1,736183.596761,Aud,Left,2015-08-07 13:39:00,7_8_2015 level5_100_cooling 13_39 log,8.0,35.0,1311,90,1.5707963267948966,R,R,1,0
70,0,2424.711,0,5,0,100,951,9.0,5,2425.537,1,736183.597139,Aud,Left,2015-08-07 13:39:00,7_8_2015 level5_100_cooling 13_39 log,8.0,35.0,1311,0,0.0,,,0,0
71,0,2433.976,0,3,60,100,951,4.5,3,2434.901,1,736183.597247,Aud,Left,2015-08-07 13:39:00,7_8_2015 level5_100_cooling 13_39 log,8.0,35.0,1311,60,1.0471975511965976,R,R,1,0
72,0,2443.318,0,3,60,100,851,0.0,4,2444.113,0,736183.597354,Aud,Left,2015-08-07 13:39:00,7_8_2015 level5_100_cooling 13_39 log,8.0,35.0,1311,30,1.0471975511965976,R,R,1,30
73,0,2452.308,0,5,0,100,551,4.5,5,2453.078,1,736183.597458,Aud,Left,2015-08-07 13:39:00,7_8_2015 level5_100_cooling 13_39 log,8.0,35.0,1311,0,0.0,,,0,0
74,0,2462.226,0,6,-30,100,651,9.0,5,2463.135,0,736183.597574,Aud,Left,2015-08-07 13:39:00,7_8_2015 level5_100_cooling 13_39 log,8.0,35.0,1311,0,-0.5235987755982988,L,,0,30
75,0,2469.761,0,5,0,100,601,4.5,4,2470.674,0,736183.597662,Aud,Left,2015-08-07 13:39:00,7_8_2015 level5_100_cooling 13_39 log,8.0,35.0,1311,30,0.0,,R,0,30
76,0,2479.169,0,4,30,100,501,0.0,3,2480.076,0,736183.59777,Aud,Left,2015-08-07 13:39:00,7_8_2015 level5_100_cooling 13_39 log,8.0,35.0,1311,60,0.5235987755982988,R,R,1,30
77,0,2487.467,0,8,-90,100,901,4.5,8,2488.091,1,736183.597867,Aud,Left,2015-08-07 13:39:00,7_8_2015 level5_100_cooling 13_39 log,8.0,35.0,1311,-90,-1.5707963267948966,L,L,1,0
78,0,2496.307,0,7,-60,100,751,0.0,8,2497.016,0,736183.597968,Aud,Left,2015-08-07 13:39:00,7_8_2015 level5_100_cooling 13_39 log,8.0,35.0,1311,-90,-1.0471975511965976,L,L,1,30
79,0,2505.081,0,4,30,100,801,0.0,3,2506.056,0,736183.59807,Aud,Left,2015-08-07 13:39:00,7_8_2015 level5_100_cooling 13_39 log,8.0,35.0,1311,60,0.5235987755982988,R,R,1,30
80,0,2516.231,0,2,90,100,701,4.5,2,2517.266,1,736183.598201,Aud,Left,2015-08-07 13:39:00,7_8_2015 level5_100_cooling 13_39 log,8.0,35.0,1311,90,1.5707963267948966,R,R,1,0
81,0,2528.145,0,2,90,100,501,4.5,3,2528.977,0,736183.598336,Aud,Left,2015-08-07 13:39:00,7_8_2015 level5_100_cooling 13_39 log,8.0,35.0,1311,60,1.5707963267948966,R,R,1,30
82,0,2536.997,0,6,-30,100,751,0.0,6,2537.771,1,736183.598439,Aud,Left,2015-08-07 13:39:00,7_8_2015 level5_100_cooling 13_39 log,8.0,35.0,1311,-30,-0.5235987755982988,L,L,1,0
83,0,2545.409,0,8,-90,100,801,4.5,7,2546.323,0,736183.598537,Aud,Left,2015-08-07 13:39:00,7_8_2015 level5_100_cooling 13_39 log,8.0,35.0,1311,-60,-1.5707963267948966,L,L,1,30
84,0,2555.859,0,7,-60,100,701,0.0,6,2556.616,0,736183.598658,Aud,Left,2015-08-07 13:39:00,7_8_2015 level5_100_cooling 13_39 log,8.0,35.0,1311,-30,-1.0471975511965976,L,L,1,30
85,0,2566.089,0,7,-60,100,551,0.0,7,2567.153,1,736183.598778,Aud,Left,2015-08-07 13:39:00,7_8_2015 level5_100_cooling 13_39 log,8.0,35.0,1311,-60,-1.0471975511965976,L,L,1,0
86,0,2572.773,0,7,-60,100,1001,9.0,7,2573.548,1,736183.598853,Aud,Left,2015-08-07 13:39:00,7_8_2015 level5_100_cooling 13_39 log,8.0,35.0,1311,-60,-1.0471975511965976,L,L,1,0
87,0,2581.516,0,2,90,100,601,4.5,3,2582.629,0,736183.598957,Aud,Left,2015-08-07 13:39:00,7_8_2015 level5_100_cooling 13_39 log,8.0,35.0,1311,60,1.5707963267948966,R,R,1,30
88,0,2595.816,0,4,30,100,951,0.0,3,2596.693,0,736183.59912,Aud,Left,2015-08-07 13:39:00,7_8_2015 level5_100_cooling 13_39 log,8.0,35.0,1311,60,0.5235987755982988,R,R,1,30
89,0,2605.043,0,5,0,100,901,0.0,8,2606.663,0,736183.599235,Aud,Left,2015-08-07 13:39:00,7_8_2015 level5_100_cooling 13_39 log,8.0,35.0,1311,-90,0.0,,L,0,90
90,0,2632.688,0,8,-90,100,851,9.0,8,2633.565,1,736183.599546,Aud,Left,2015-08-07 13:39:00,7_8_2015 level5_100_cooling 13_39 log,8.0,34.0,1311,-90,-1.5707963267948966,L,L,1,0
91,0,2642.71,0,3,60,100,501,4.5,3,2644.739,1,736183.599675,Aud,Left,2015-08-07 13:39:00,7_8_2015 level5_100_cooling 13_39 log,8.0,34.0,1311,60,1.0471975511965976,R,R,1,0
92,0,2656.9,0,3,60,100,951,0.0,3,2658.028,1,736183.599829,Aud,Left,2015-08-07 13:39:00,7_8_2015 level5_100_cooling 13_39 log,8.0,34.0,1311,60,1.0471975511965976,R,R,1,0
93,0,2665.531,0,4,30,100,601,0.0,4,2666.481,1,736183.599928,Aud,Left,2015-08-07 13:39:00,7_8_2015 level5_100_cooling 13_39 log,8.0,34.0,1311,30,0.5235987755982988,R,R,1,0
94,0,2675.143,0,6,-30,100,1001,4.5,6,2676.042,1,736183.600038,Aud,Left,2015-08-07 13:39:00,7_8_2015 level5_100_cooling 13_39 log,8.0,34.0,1311,-30,-0.5235987755982988,L,L,1,0
95,0,2686.739,0,6,-30,100,901,4.5,7,2687.557,0,736183.600171,Aud,Left,2015-08-07 13:39:00,7_8_2015 level5_100_cooling 13_39 log,8.0,34.0,1311,-60,-0.5235987755982988,L,L,1,30
96,0,2697.549,0,8,-90,100,701,0.0,8,2698.266,1,736183.600296,Aud,Left,2015-08-07 13:39:00,7_8_2015 level5_100_cooling 13_39 log,8.0,34.0,1311,-90,-1.5707963267948966,L,L,1,0
97,0,2706.204,0,2,90,100,551,4.5,3,2706.978,0,736183.600397,Aud,Left,2015-08-07 13:39:00,7_8_2015 level5_100_cooling 13_39 log,8.0,34.0,1311,60,1.5707963267948966,R,R,1,30
98,0,2714.497,0,5,0,100,651,0.0,5,2715.361,1,736183.600493,Aud,Left,2015-08-07 13:39:00,7_8_2015 level5_100_cooling 13_39 log,8.0,34.0,1311,0,0.0,,,0,0
99,0,2723.867,0,4,30,100,851,0.0,3,2724.697,0,736183.600601,Aud,Left,2015-08-07 13:39:00,7_8_2015 level5_100_cooling 13_39 log,8.0,34.0,1311,60,0.5235987755982988,R,R,1,30
100,0,2733.036,0,7,-60,100,751,4.5,7,2733.998,1,736183.600709,Aud,Left,2015-08-07 13:39:00,7_8_2015 level5_100_cooling 13_39 log,8.0,34.0,1311,-60,-1.0471975511965976,L,L,1,0
101,0,2740.25,0,8,-90,100,851,4.5,8,2740.917,1,736183.60079,Aud,Left,2015-08-07 13:39:00,7_8_2015 level5_100_cooling 13_39 log,8.0,34.0,1311,-90,-1.5707963267948966,L,L,1,0
102,0,2747.825,0,8,-90,100,651,0.0,8,2748.43,1,736183.600878,Aud,Left,2015-08-07 13:39:00,7_8_2015 level5_100_cooling 13_39 log,8.0,34.0,1311,-90,-1.5707963267948966,L,L,1,0
103,0,2754.634,0,7,-60,100,801,9.0,6,2755.549,0,736183.600958,Aud,Left,2015-08-07 13:39:00,7_8_2015 level5_100_cooling 13_39 log,8.0,34.0,1311,-30,-1.0471975511965976,L,L,1,30
104,0,2764.002,0,3,60,100,501,4.5,2,2764.905,0,736183.601067,Aud,Left,2015-08-07 13:39:00,7_8_2015 level5_100_cooling 13_39 log,8.0,34.0,1311,90,1.0471975511965976,R,R,1,30
105,0,2773.679,0,2,90,100,751,9.0,3,2774.537,0,736183.601178,Aud,Left,2015-08-07 13:39:00,7_8_2015 level5_100_cooling 13_39 log,8.0,34.0,1311,60,1.5707963267948966,R,R,1,30
106,0,2782.123,0,3,60,100,1001,4.5,3,2783.124,1,736183.601278,Aud,Left,2015-08-07 13:39:00,7_8_2015 level5_100_cooling 13_39 log,8.0,34.0,1311,60,1.0471975511965976,R,R,1,0
107,0,2790.424,0,4,30,100,701,4.5,3,2791.403,0,736183.601374,Aud,Left,2015-08-07 13:39:00,7_8_2015 level5_100_cooling 13_39 log,8.0,34.0,1311,60,0.5235987755982988,R,R,1,30
108,0,2801.192,0,2,90,100,551,0.0,3,2802.281,0,736183.6015,Aud,Left,2015-08-07 13:39:00,7_8_2015 level5_100_cooling 13_39 log,8.0,34.0,1311,60,1.5707963267948966,R,R,1,30
109,0,2812.596,0,6,-30,100,601,0.0,6,2813.406,1,736183.601628,Aud,Left,2015-08-07 13:39:00,7_8_2015 level5_100_cooling 13_39 log,8.0,34.0,1311,-30,-0.5235987755982988,L,L,1,0
110,0,2822.306,0,5,0,100,901,4.5,4,2823.298,0,736183.601743,Aud,Left,2015-08-07 13:39:00,7_8_2015 level5_100_cooling 13_39 log,8.0,34.0,1311,30,0.0,,R,0,30
111,0,2831.333,0,6,-30,100,601,9.0,6,2832.215,1,736183.601846,Aud,Left,2015-08-07 13:39:00,7_8_2015 level5_100_cooling 13_39 log,8.0,34.0,1311,-30,-0.5235987755982988,L,L,1,0
112,0,2840.975,0,5,0,100,851,0.0,5,2841.957,1,736183.601958,Aud,Left,2015-08-07 13:39:00,7_8_2015 level5_100_cooling 13_39 log,8.0,34.0,1311,0,0.0,,,0,0
113,0,2846.719,0,7,-60,100,551,4.5,6,2847.493,0,736183.602023,Aud,Left,2015-08-07 13:39:00,7_8_2015 level5_100_cooling 13_39 log,8.0,34.0,1311,-30,-1.0471975511965976,L,L,1,30
114,0,2856.21,0,3,60,100,701,9.0,3,2857.125,1,736183.602134,Aud,Left,2015-08-07 13:39:00,7_8_2015 level5_100_cooling 13_39 log,8.0,34.0,1311,60,1.0471975511965976,R,R,1,0
115,0,2863.473,1,6,-30,100,501,9.0,6,2864.405,1,736183.602218,Aud,Left,2015-08-07 13:39:00,7_8_2015 level5_100_cooling 13_39 log,8.0,34.0,1311,-30,-0.5235987755982988,L,L,1,0
116,0,2872.184,0,6,-30,100,901,0.0,6,2876.369,1,736183.602357,Aud,Left,2015-08-07 13:39:00,7_8_2015 level5_100_cooling 13_39 log,9.0,34.0,1311,-30,-0.5235987755982988,L,L,1,0
117,0,2884.163,0,3,60,100,1001,0.0,3,2885.367,1,736183.602461,Aud,Left,2015-08-07 13:39:00,7_8_2015 level5_100_cooling 13_39 log,9.0,34.0,1311,60,1.0471975511965976,R,R,1,0
118,0,2892.758,0,5,0,100,651,9.0,4,2893.585,0,736183.602557,Aud,Left,2015-08-07 13:39:00,7_8_2015 level5_100_cooling 13_39 log,9.0,34.0,1311,30,0.0,,R,0,30
119,0,2901.494,0,8,-90,100,951,4.5,8,2902.185,1,736183.602657,Aud,Left,2015-08-07 13:39:00,7_8_2015 level5_100_cooling 13_39 log,9.0,34.0,1311,-90,-1.5707963267948966,L,L,1,0
120,0,2912.67,0,2,90,100,751,0.0,3,2913.685,0,736183.602789,Aud,Left,2015-08-07 13:39:00,7_8_2015 level5_100_cooling 13_39 log,9.0,34.0,1311,60,1.5707963267948966,R,R,1,30
121,0,2922.669,0,2,90,100,601,9.0,4,2923.754,0,736183.602905,Aud,Left,2015-08-07 13:39:00,7_8_2015 level5_100_cooling 13_39 log,8.0,34.0,1311,30,1.5707963267948966,R,R,1,60
122,0,2937.839,0,7,-60,100,501,0.0,7,2938.6,1,736183.603078,Aud,Left,2015-08-07 13:39:00,7_8_2015 level5_100_cooling 13_39 log,9.0,34.0,1311,-60,-1.0471975511965976,L,L,1,0
123,0,2943.679,0,4,30,100,801,9.0,5,2944.596,0,736183.603147,Aud,Left,2015-08-07 13:39:00,7_8_2015 level5_100_cooling 13_39 log,9.0,34.0,1311,0,0.5235987755982988,R,,0,30
124,0,2954.346,0,5,0,100,951,4.5,4,2955.807,0,736183.603276,Aud,Left,2015-08-07 13:39:00,7_8_2015 level5_100_cooling 13_39 log,9.0,34.0,1311,30,0.0,,R,0,30
125,0,2965.934,0,8,-90,100,851,9.0,8,2966.574,1,736183.603404,Aud,Left,2015-08-07 13:39:00,7_8_2015 level5_100_cooling 13_39 log,9.0,34.0,1311,-90,-1.5707963267948966,L,L,1,0
126,0,2972.539,0,4,30,100,1001,0.0,3,2973.542,0,736183.603481,Aud,Left,2015-08-07 13:39:00,7_8_2015 level5_100_cooling 13_39 log,9.0,34.0,1311,60,0.5235987755982988,R,R,1,30
127,0,2983.081,0,2,90,100,751,0.0,3,2983.984,0,736183.603602,Aud,Left,2015-08-07 13:39:00,7_8_2015 level5_100_cooling 13_39 log,9.0,34.0,1311,60,1.5707963267948966,R,R,1,30
6,0,656.057,0,4,30,250,751,4.5,4,656.891,1,736131.690231,Aud,Left,2015-06-16 16:23:00,16_6_2015 level5_250_cooling 16_23 log,9.0,35.0,1311,30,0.5235987755982988,R,R,1,0
7,0,664.18,0,7,-60,250,651,0.0,8,665.117,0,736131.690325,Aud,Left,2015-06-16 16:23:00,16_6_2015 level5_250_cooling 16_23 log,9.0,35.0,1311,-90,-1.0471975511965976,L,L,1,30
8,0,679.187,0,8,-90,250,701,4.5,8,680.313,1,736131.6905,Aud,Left,2015-06-16 16:23:00,16_6_2015 level5_250_cooling 16_23 log,9.0,34.0,1311,-90,-1.5707963267948966,L,L,1,0
9,0,695.49,0,4,30,250,551,0.0,4,696.196,1,736131.690686,Aud,Left,2015-06-16 16:23:00,16_6_2015 level5_250_cooling 16_23 log,9.0,34.0,1311,30,0.5235987755982988,R,R,1,0
10,0,703.381,0,8,-90,250,801,9.0,8,704.75,1,736131.690784,Aud,Left,2015-06-16 16:23:00,16_6_2015 level5_250_cooling 16_23 log,9.0,34.0,1311,-90,-1.5707963267948966,L,L,1,0
11,0,717.058,0,5,0,250,951,9.0,4,717.78,0,736131.690936,Aud,Left,2015-06-16 16:23:00,16_6_2015 level5_250_cooling 16_23 log,9.0,35.0,1311,30,0.0,,R,0,30
12,0,725.591,0,2,90,250,851,4.5,3,726.309,0,736131.691035,Aud,Left,2015-06-16 16:23:00,16_6_2015 level5_250_cooling 16_23 log,9.0,35.0,1311,60,1.5707963267948966,R,R,1,30
15,0,769.051,0,6,-30,250,501,4.5,8,772.429,0,736131.691567,Aud,Left,2015-06-16 16:23:00,16_6_2015 level5_250_cooling 16_23 log,9.0,34.0,1311,-90,-0.5235987755982988,L,L,1,60
16,0,800.968,0,3,60,250,801,9.0,3,802.364,1,736131.691914,Aud,Left,2015-06-16 16:23:00,16_6_2015 level5_250_cooling 16_23 log,8.0,34.0,1311,60,1.0471975511965976,R,R,1,0
19,0,830.793,0,7,-60,250,651,4.5,6,832.073,0,736131.692258,Aud,Left,2015-06-16 16:23:00,16_6_2015 level5_250_cooling 16_23 log,8.0,34.0,1311,-30,-1.0471975511965976,L,L,1,30
20,0,847.117,0,6,-30,250,551,9.0,7,848.052,0,736131.692443,Aud,Left,2015-06-16 16:23:00,16_6_2015 level5_250_cooling 16_23 log,9.0,34.0,1311,-60,-0.5235987755982988,L,L,1,30
31,0,946.567,0,2,90,250,601,0.0,3,947.284,0,736131.693592,Aud,Left,2015-06-16 16:23:00,16_6_2015 level5_250_cooling 16_23 log,9.0,34.0,1311,60,1.5707963267948966,R,R,1,30
33,0,965.467,0,7,-60,250,551,0.0,8,966.235,0,736131.693811,Aud,Left,2015-06-16 16:23:00,16_6_2015 level5_250_cooling 16_23 log,9.0,34.0,1311,-90,-1.0471975511965976,L,L,1,30
37,0,1031.321,0,3,60,250,751,4.5,3,1032.088,1,736131.694573,Aud,Left,2015-06-16 16:23:00,16_6_2015 level5_250_cooling 16_23 log,9.0,34.0,1311,60,1.0471975511965976,R,R,1,0
41,0,1074.131,0,8,-90,250,501,9.0,8,1075.002,1,736131.695069,Aud,Left,2015-06-16 16:23:00,16_6_2015 level5_250_cooling 16_23 log,9.0,34.0,1311,-90,-1.5707963267948966,L,L,1,0
45,0,1124.143,0,4,30,250,751,9.0,4,1126.048,1,736131.695661,Aud,Left,2015-06-16 16:23:00,16_6_2015 level5_250_cooling 16_23 log,9.0,34.0,1311,30,0.5235987755982988,R,R,1,0
46,0,1134.753,0,8,-90,250,851,0.0,8,1135.585,1,736131.695771,Aud,Left,2015-06-16 16:23:00,16_6_2015 level5_250_cooling 16_23 log,9.0,34.0,1311,-90,-1.5707963267948966,L,L,1,0
51,0,1200.536,0,3,60,250,651,9.0,3,1201.266,1,736131.696532,Aud,Left,2015-06-16 16:23:00,16_6_2015 level5_250_cooling 16_23 log,9.0,34.0,1311,60,1.0471975511965976,R,R,1,0
55,0,1241.992,0,4,30,250,801,9.0,4,1242.794,1,736131.697011,Aud,Left,2015-06-16 16:23:00,16_6_2015 level5_250_cooling 16_23 log,9.0,34.0,1311,30,0.5235987755982988,R,R,1,0
56,0,1249.61,0,5,0,250,551,0.0,4,1250.438,0,736131.697099,Aud,Left,2015-06-16 16:23:00,16_6_2015 level5_250_cooling 16_23 log,9.0,34.0,1311,30,0.0,,R,0,30
62,0,1314.572,0,8,-90,250,951,4.5,8,1315.338,1,736131.697851,Aud,Left,2015-06-16 16:23:00,16_6_2015 level5_250_cooling 16_23 log,9.0,34.0,1311,-90,-1.5707963267948966,L,L,1,0
63,0,1324.097,0,4,30,250,601,9.0,4,1324.801,1,736131.697961,Aud,Left,2015-06-16 16:23:00,16_6_2015 level5_250_cooling 16_23 log,9.0,34.0,1311,30,0.5235987755982988,R,R,1,0
64,0,1334.005,0,2,90,250,651,0.0,3,1334.718,0,736131.698076,Aud,Left,2015-06-16 16:23:00,16_6_2015 level5_250_cooling 16_23 log,9.0,34.0,1311,60,1.5707963267948966,R,R,1,30
65,0,1346.14,0,8,-90,250,801,9.0,8,1346.918,1,736131.698216,Aud,Left,2015-06-16 16:23:00,16_6_2015 level5_250_cooling 16_23 log,9.0,34.0,1311,-90,-1.5707963267948966,L,L,1,0
66,0,1356.647,0,5,0,250,701,0.0,4,1358.206,0,736131.698347,Aud,Left,2015-06-16 16:23:00,16_6_2015 level5_250_cooling 16_23 log,9.0,34.0,1311,30,0.0,,R,0,30
68,0,1384.55,0,6,-30,250,901,4.5,8,1385.461,0,736131.698662,Aud,Left,2015-06-16 16:23:00,16_6_2015 level5_250_cooling 16_23 log,9.0,34.0,1311,-90,-0.5235987755982988,L,L,1,60
70,0,1409.388,0,7,-60,250,751,0.0,7,1410.253,1,736131.69895,Aud,Left,2015-06-16 16:23:00,16_6_2015 level5_250_cooling 16_23 log,10.0,34.0,1311,-60,-1.0471975511965976,L,L,1,0
74,0,1452.079,0,7,-60,250,501,4.5,6,1453.07,0,736131.699445,Aud,Left,2015-06-16 16:23:00,16_6_2015 level5_250_cooling 16_23 log,9.0,34.0,1311,-30,-1.0471975511965976,L,L,1,30
78,0,1492.61,0,5,0,250,801,4.5,4,1493.408,0,736131.699912,Aud,Left,2015-06-16 16:23:00,16_6_2015 level5_250_cooling 16_23 log,9.0,34.0,1311,30,0.0,,R,0,30
79,0,1503.121,0,4,30,250,651,0.0,4,1503.862,1,736131.700034,Aud,Left,2015-06-16 16:23:00,16_6_2015 level5_250_cooling 16_23 log,9.0,34.0,1311,30,0.5235987755982988,R,R,1,0
80,0,1511.495,0,2,90,250,1001,4.5,3,1512.099,0,736131.70013,Aud,Left,2015-06-16 16:23:00,16_6_2015 level5_250_cooling 16_23 log,9.0,34.0,1311,60,1.5707963267948966,R,R,1,30
81,0,1536.33,0,6,-30,250,551,4.5,8,1537.375,0,736131.700421,Aud,Left,2015-06-16 16:23:00,16_6_2015 level5_250_cooling 16_23 log,10.0,34.0,1311,-90,-0.5235987755982988,L,L,1,60
83,0,1718.345,0,3,60,250,501,0.0,4,1721.135,0,736131.702548,Aud,Left,2015-06-16 16:23:00,16_6_2015 level5_250_cooling 16_23 log,11.0,34.0,1311,30,1.0471975511965976,R,R,1,30
1,0,951.191,0,3,60,250,501,4.5,2,953.219,0,736126.591271,Aud,Left,2015-06-11 13:55:00,11_6_2015 level5_250_cooling 13_55 log,11.0,35.0,1311,90,1.0471975511965976,R,R,1,30
3,0,1015.673,0,7,-60,250,1001,0.0,7,1018.542,1,736126.592027,Aud,Left,2015-06-11 13:55:00,11_6_2015 level5_250_cooling 13_55 log,9.0,35.0,1311,-60,-1.0471975511965976,L,L,1,0
4,0,1035.785,0,4,30,250,651,4.5,4,1037.217,1,736126.592243,Aud,Left,2015-06-11 13:55:00,11_6_2015 level5_250_cooling 13_55 log,9.0,35.0,1311,30,0.5235987755982988,R,R,1,0
10,0,1133.589,0,8,-90,250,901,9.0,8,1134.373,1,736126.593369,Aud,Left,2015-06-11 13:55:00,11_6_2015 level5_250_cooling 13_55 log,8.0,35.0,1311,-90,-1.5707963267948966,L,L,1,0
11,0,1148.142,0,4,30,250,701,9.0,4,1149.06,1,736126.593537,Aud,Left,2015-06-11 13:55:00,11_6_2015 level5_250_cooling 13_55 log,9.0,35.0,1311,30,0.5235987755982988,R,R,1,0
12,0,1160.302,0,5,0,250,551,4.5,2,1161.631,0,736126.593683,Aud,Left,2015-06-11 13:55:00,11_6_2015 level5_250_cooling 13_55 log,9.0,34.0,1311,90,0.0,,R,0,90
14,0,1184.407,0,6,-30,250,801,9.0,6,1185.304,1,736126.593957,Aud,Left,2015-06-11 13:55:00,11_6_2015 level5_250_cooling 13_55 log,9.0,35.0,1311,-30,-0.5235987755982988,L,L,1,0
19,0,1240.018,0,8,-90,250,1001,0.0,8,1241.286,1,736126.594605,Aud,Left,2015-06-11 13:55:00,11_6_2015 level5_250_cooling 13_55 log,9.0,34.0,1311,-90,-1.5707963267948966,L,L,1,0
22,0,1267.472,0,3,60,250,501,0.0,4,1268.439,0,736126.594919,Aud,Left,2015-06-11 13:55:00,11_6_2015 level5_250_cooling 13_55 log,9.0,34.0,1311,30,1.0471975511965976,R,R,1,30
25,0,1292.503,0,2,90,250,901,4.5,4,1293.548,0,736126.59521,Aud,Left,2015-06-11 13:55:00,11_6_2015 level5_250_cooling 13_55 log,9.0,34.0,1311,30,1.5707963267948966,R,R,1,60
28,0,1330.326,0,5,0,250,801,9.0,5,1331.582,1,736126.595651,Aud,Left,2015-06-11 13:55:00,11_6_2015 level5_250_cooling 13_55 log,9.0,34.0,1311,0,0.0,,,0,0
33,0,1363.882,0,5,0,250,601,0.0,5,1364.837,1,736126.596035,Aud,Left,2015-06-11 13:55:00,11_6_2015 level5_250_cooling 13_55 log,9.0,34.0,1311,0,0.0,,,0,0
34,0,1388.253,0,2,90,250,801,9.0,3,1388.982,0,736126.596315,Aud,Left,2015-06-11 13:55:00,11_6_2015 level5_250_cooling 13_55 log,9.0,34.0,1311,60,1.5707963267948966,R,R,1,30
37,0,1456.352,0,4,30,250,551,0.0,4,1457.139,1,736126.597104,Aud,Left,2015-06-11 13:55:00,11_6_2015 level5_250_cooling 13_55 log,8.0,34.0,1311,30,0.5235987755982988,R,R,1,0
40,0,1484.81,0,8,-90,250,501,4.5,8,1485.579,1,736126.597433,Aud,Left,2015-06-11 13:55:00,11_6_2015 level5_250_cooling 13_55 log,8.0,34.0,1311,-90,-1.5707963267948966,L,L,1,0
41,0,1495.529,0,4,30,250,651,9.0,4,1496.427,1,736126.597558,Aud,Left,2015-06-11 13:55:00,11_6_2015 level5_250_cooling 13_55 log,8.0,34.0,1311,30,0.5235987755982988,R,R,1,0
43,0,1513.928,0,6,-30,250,1001,9.0,5,1514.586,0,736126.59777,Aud,Left,2015-06-11 13:55:00,11_6_2015 level5_250_cooling 13_55 log,9.0,34.0,1311,0,-0.5235987755982988,L,,0,30
45,0,1535.563,0,5,0,250,551,9.0,4,1536.509,0,736126.598022,Aud,Left,2015-06-11 13:55:00,11_6_2015 level5_250_cooling 13_55 log,9.0,34.0,1311,30,0.0,,R,0,30
47,0,1553.152,0,3,60,250,501,0.0,4,1554.448,0,736126.598229,Aud,Left,2015-06-11 13:55:00,11_6_2015 level5_250_cooling 13_55 log,9.0,34.0,1311,30,1.0471975511965976,R,R,1,30
52,0,1618.019,0,2,90,250,501,9.0,3,1618.749,0,736126.598975,Aud,Left,2015-06-11 13:55:00,11_6_2015 level5_250_cooling 13_55 log,9.0,34.0,1311,60,1.5707963267948966,R,R,1,30
55,0,1648.302,0,3,60,250,601,4.5,4,1650.094,0,736126.599336,Aud,Left,2015-06-11 13:55:00,11_6_2015 level5_250_cooling 13_55 log,9.0,34.0,1311,30,1.0471975511965976,R,R,1,30
56,0,1658.512,0,6,-30,250,851,0.0,5,1659.33,0,736126.599444,Aud,Left,2015-06-11 13:55:00,11_6_2015 level5_250_cooling 13_55 log,9.0,34.0,1311,0,-0.5235987755982988,L,,0,30
57,0,1667.478,0,3,60,250,801,0.0,4,1668.559,0,736126.59955,Aud,Left,2015-06-11 13:55:00,11_6_2015 level5_250_cooling 13_55 log,9.0,34.0,1311,30,1.0471975511965976,R,R,1,30
60,0,1699.102,0,5,0,250,551,0.0,8,1702.98,0,736126.599949,Aud,Left,2015-06-11 13:55:00,11_6_2015 level5_250_cooling 13_55 log,10.0,34.0,1311,-90,0.0,,L,0,90
61,0,1715.481,1,2,90,250,1001,9.0,2,1721.248,1,736126.60016,Aud,Left,2015-06-11 13:55:00,11_6_2015 level5_250_cooling 13_55 log,10.0,34.0,1311,90,1.5707963267948966,R,R,1,0
66,0,1784.812,0,7,-60,250,551,9.0,6,1786.828,0,736126.600919,Aud,Left,2015-06-11 13:55:00,11_6_2015 level5_250_cooling 13_55 log,9.0,34.0,1311,-30,-1.0471975511965976,L,L,1,30
68,0,1812.311,0,6,-30,250,851,9.0,8,1813.342,0,736126.601226,Aud,Left,2015-06-11 13:55:00,11_6_2015 level5_250_cooling 13_55 log,9.0,34.0,1311,-90,-0.5235987755982988,L,L,1,60
69,0,1822.693,0,8,-90,250,751,9.0,8,1823.567,1,736126.601344,Aud,Left,2015-06-11 13:55:00,11_6_2015 level5_250_cooling 13_55 log,9.0,34.0,1311,-90,-1.5707963267948966,L,L,1,0
74,0,1872.212,0,6,-30,250,701,0.0,3,1876.888,0,736126.601962,Aud,Left,2015-06-11 13:55:00,11_6_2015 level5_250_cooling 13_55 log,9.0,34.0,1311,60,-0.5235987755982988,L,R,0,90
75,0,1888.014,0,7,-60,250,1001,4.5,8,1888.904,0,736126.602101,Aud,Left,2015-06-11 13:55:00,11_6_2015 level5_250_cooling 13_55 log,9.0,34.0,1311,-90,-1.0471975511965976,L,L,1,30
79,0,1931.614,0,4,30,250,801,9.0,4,1932.641,1,736126.602606,Aud,Left,2015-06-11 13:55:00,11_6_2015 level5_250_cooling 13_55 log,9.0,34.0,1311,30,0.5235987755982988,R,R,1,0
83,0,1969.056,0,5,0,250,851,4.5,4,1969.981,0,736126.60304,Aud,Left,2015-06-11 13:55:00,11_6_2015 level5_250_cooling 13_55 log,9.0,34.0,1311,30,0.0,,R,0,30
84,0,1977.178,0,3,60,250,751,0.0,4,1978.212,0,736126.603134,Aud,Left,2015-06-11 13:55:00,11_6_2015 level5_250_cooling 13_55 log,9.0,34.0,1311,30,1.0471975511965976,R,R,1,30
87,0,2009.783,0,8,-90,250,501,4.5,8,2010.684,1,736126.60351,Aud,Left,2015-06-11 13:55:00,11_6_2015 level5_250_cooling 13_55 log,9.0,34.0,1311,-90,-1.5707963267948966,L,L,1,0
89,0,2025.21,0,6,-30,250,1001,9.0,6,2026.422,1,736126.603692,Aud,Left,2015-06-11 13:55:00,11_6_2015 level5_250_cooling 13_55 log,9.0,34.0,1311,-30,-0.5235987755982988,L,L,1,0
90,0,2029.326,0,2,90,250,651,0.0,3,2030.057,0,736126.603735,Aud,Left,2015-06-11 13:55:00,11_6_2015 level5_250_cooling 13_55 log,9.0,34.0,1311,60,1.5707963267948966,R,R,1,30
91,0,2048.394,1,7,-60,250,1001,9.0,7,2049.366,1,736126.603958,Aud,Left,2015-06-11 13:55:00,11_6_2015 level5_250_cooling 13_55 log,9.0,34.0,1311,-60,-1.0471975511965976,L,L,1,0
93,0,2073.552,0,4,30,250,851,0.0,4,2074.317,1,736126.604248,Aud,Left,2015-06-11 13:55:00,11_6_2015 level5_250_cooling 13_55 log,9.0,34.0,1311,30,0.5235987755982988,R,R,1,0
96,0,2099.858,0,2,90,250,951,0.0,3,2100.591,0,736126.604552,Aud,Left,2015-06-11 13:55:00,11_6_2015 level5_250_cooling 13_55 log,9.0,34.0,1311,60,1.5707963267948966,R,R,1,30
98,0,2116.847,0,6,-30,250,501,0.0,7,2117.885,0,736126.604751,Aud,Left,2015-06-11 13:55:00,11_6_2015 level5_250_cooling 13_55 log,9.0,34.0,1311,-60,-0.5235987755982988,L,L,1,30
100,0,2143.833,0,4,30,250,901,9.0,4,2144.965,1,736126.605064,Aud,Left,2015-06-11 13:55:00,11_6_2015 level5_250_cooling 13_55 log,9.0,34.0,1311,30,0.5235987755982988,R,R,1,0
101,0,2152.079,0,7,-60,250,901,9.0,7,2153.001,1,736126.605158,Aud,Left,2015-06-11 13:55:00,11_6_2015 level5_250_cooling 13_55 log,9.0,34.0,1311,-60,-1.0471975511965976,L,L,1,0
102,0,2161.705,0,5,0,250,701,0.0,4,2162.858,0,736126.605271,Aud,Left,2015-06-11 13:55:00,11_6_2015 level5_250_cooling 13_55 log,9.0,34.0,1311,30,0.0,,R,0,30
103,0,2172.32,0,8,-90,250,851,9.0,8,2172.963,1,736126.605391,Aud,Left,2015-06-11 13:55:00,11_6_2015 level5_250_cooling 13_55 log,9.0,34.0,1311,-90,-1.5707963267948966,L,L,1,0
104,0,2180.049,0,5,0,250,951,4.5,7,2181.334,0,736126.605485,Aud,Left,2015-06-11 13:55:00,11_6_2015 level5_250_cooling 13_55 log,9.0,34.0,1311,-60,0.0,,L,0,60
106,0,2202.651,0,3,60,250,801,0.0,4,2203.763,0,736126.605744,Aud,Left,2015-06-11 13:55:00,11_6_2015 level5_250_cooling 13_55 log,9.0,34.0,1311,30,1.0471975511965976,R,R,1,30
1,0,2029.155,0,2,90,100,851,0.0,8,2031.168,0,736181.589407,Aud,Left,2015-08-05 13:34:00,5_8_2015 level5_100_cooling 13_34 log,13.0,35.0,1311,-90,1.5707963267948966,R,L,0,180
2,0,2045.489,0,4,30,100,801,4.5,3,2048.298,0,736181.589605,Aud,Left,2015-08-05 13:34:00,5_8_2015 level5_100_cooling 13_34 log,12.0,34.0,1311,60,0.5235987755982988,R,R,1,30
3,0,2057.347,0,8,-90,100,1001,0.0,8,2058.862,1,736181.589727,Aud,Left,2015-08-05 13:34:00,5_8_2015 level5_100_cooling 13_34 log,11.0,35.0,1311,-90,-1.5707963267948966,L,L,1,0
4,0,2062.128,0,5,0,100,901,9.0,6,2063.584,0,736181.589781,Aud,Left,2015-08-05 13:34:00,5_8_2015 level5_100_cooling 13_34 log,11.0,35.0,1311,-30,0.0,,L,0,30
5,0,2080.587,0,7,-60,100,751,0.0,8,2083.026,0,736181.590006,Aud,Left,2015-08-05 13:34:00,5_8_2015 level5_100_cooling 13_34 log,11.0,35.0,1311,-90,-1.0471975511965976,L,L,1,30
6,0,2099.381,0,3,60,100,951,9.0,3,2100.375,1,736181.590208,Aud,Left,2015-08-05 13:34:00,5_8_2015 level5_100_cooling 13_34 log,10.0,35.0,1311,60,1.0471975511965976,R,R,1,0
7,0,2103.521,0,4,30,100,701,4.5,4,2105.255,1,736181.590264,Aud,Left,2015-08-05 13:34:00,5_8_2015 level5_100_cooling 13_34 log,10.0,35.0,1311,30,0.5235987755982988,R,R,1,0
8,0,2108.799,0,6,-30,100,501,9.0,8,2110.241,0,736181.590322,Aud,Left,2015-08-05 13:34:00,5_8_2015 level5_100_cooling 13_34 log,9.0,35.0,1311,-90,-0.5235987755982988,L,L,1,60
9,0,2123.025,0,2,90,100,601,4.5,3,2124.212,0,736181.590483,Aud,Left,2015-08-05 13:34:00,5_8_2015 level5_100_cooling 13_34 log,9.0,35.0,1311,60,1.5707963267948966,R,R,1,30
10,0,2137.153,0,8,-90,100,551,0.0,8,2137.873,1,736181.590643,Aud,Left,2015-08-05 13:34:00,5_8_2015 level5_100_cooling 13_34 log,8.0,35.0,1311,-90,-1.5707963267948966,L,L,1,0
11,0,2146.052,0,3,60,100,751,4.5,3,2146.931,1,736181.590746,Aud,Left,2015-08-05 13:34:00,5_8_2015 level5_100_cooling 13_34 log,8.0,35.0,1311,60,1.0471975511965976,R,R,1,0
12,0,2153.665,0,6,-30,100,901,9.0,6,2154.439,1,736181.590834,Aud,Left,2015-08-05 13:34:00,5_8_2015 level5_100_cooling 13_34 log,8.0,35.0,1311,-30,-0.5235987755982988,L,L,1,0
13,0,2162.473,0,7,-60,100,501,0.0,8,2163.265,0,736181.590936,Aud,Left,2015-08-05 13:34:00,5_8_2015 level5_100_cooling 13_34 log,8.0,34.0,1311,-90,-1.0471975511965976,L,L,1,30
14,0,2173.481,1,5,0,100,1001,9.0,5,2173.967,1,736181.591063,Aud,Left,2015-08-05 13:34:00,5_8_2015 level5_100_cooling 13_34 log,8.0,34.0,1311,0,0.0,,,0,0
15,0,2185.058,0,2,90,100,601,9.0,4,2186.699,0,736181.591206,Aud,Left,2015-08-05 13:34:00,5_8_2015 level5_100_cooling 13_34 log,8.0,34.0,1311,30,1.5707963267948966,R,R,1,60
16,0,2202.786,0,7,-60,100,951,4.5,7,2204.136,1,736181.591408,Aud,Left,2015-08-05 13:34:00,5_8_2015 level5_100_cooling 13_34 log,8.0,34.0,1311,-60,-1.0471975511965976,L,L,1,0
17,0,2207.203,0,6,-30,100,801,4.5,6,2207.973,1,736181.591453,Aud,Left,2015-08-05 13:34:00,5_8_2015 level5_100_cooling 13_34 log,7.0,34.0,1311,-30,-0.5235987755982988,L,L,1,0
18,0,2217.934,0,8,-90,100,651,9.0,8,2218.493,1,736181.591577,Aud,Left,2015-08-05 13:34:00,5_8_2015 level5_100_cooling 13_34 log,7.0,34.0,1311,-90,-1.5707963267948966,L,L,1,0
19,0,2226.082,0,3,60,100,701,4.5,3,2226.927,1,736181.591672,Aud,Left,2015-08-05 13:34:00,5_8_2015 level5_100_cooling 13_34 log,7.0,34.0,1311,60,1.0471975511965976,R,R,1,0
20,0,2234.168,0,2,90,100,551,0.0,4,2235.047,0,736181.591766,Aud,Left,2015-08-05 13:34:00,5_8_2015 level5_100_cooling 13_34 log,7.0,34.0,1311,30,1.5707963267948966,R,R,1,60
21,0,2250.728,0,5,0,100,651,4.5,6,2251.422,0,736181.591957,Aud,Left,2015-08-05 13:34:00,5_8_2015 level5_100_cooling 13_34 log,7.0,34.0,1311,-30,0.0,,L,0,30
22,0,2259.609,0,7,-60,100,1001,0.0,8,2260.393,0,736181.592059,Aud,Left,2015-08-05 13:34:00,5_8_2015 level5_100_cooling 13_34 log,7.0,34.0,1311,-90,-1.0471975511965976,L,L,1,30
23,0,2270.254,0,6,-30,100,801,9.0,6,2270.891,1,736181.592184,Aud,Left,2015-08-05 13:34:00,5_8_2015 level5_100_cooling 13_34 log,7.0,34.0,1311,-30,-0.5235987755982988,L,L,1,0
24,0,2278.419,0,5,0,100,501,0.0,6,2279.163,0,736181.592277,Aud,Left,2015-08-05 13:34:00,5_8_2015 level5_100_cooling 13_34 log,8.0,34.0,1311,-30,0.0,,L,0,30
25,0,2287.846,0,4,30,100,751,4.5,5,2288.588,0,736181.592387,Aud,Left,2015-08-05 13:34:00,5_8_2015 level5_100_cooling 13_34 log,8.0,34.0,1311,0,0.5235987755982988,R,,0,30
26,0,2295.427,0,4,30,100,951,9.0,2,2296.364,0,736181.592476,Aud,Left,2015-08-05 13:34:00,5_8_2015 level5_100_cooling 13_34 log,8.0,34.0,1311,90,0.5235987755982988,R,R,1,60
27,0,2304.739,1,3,60,100,901,4.5,3,2305.417,1,736181.592582,Aud,Left,2015-08-05 13:34:00,5_8_2015 level5_100_cooling 13_34 log,8.0,34.0,1311,60,1.0471975511965976,R,R,1,0
28,0,2319.121,0,8,-90,100,601,0.0,8,2319.904,1,736181.592749,Aud,Left,2015-08-05 13:34:00,5_8_2015 level5_100_cooling 13_34 log,8.0,34.0,1311,-90,-1.5707963267948966,L,L,1,0
29,0,2331.813,1,7,-60,100,551,9.0,7,2332.516,1,736181.592895,Aud,Left,2015-08-05 13:34:00,5_8_2015 level5_100_cooling 13_34 log,8.0,34.0,1311,-60,-1.0471975511965976,L,L,1,0
30,0,2338.373,0,6,-30,100,701,4.5,6,2341.444,1,736181.592998,Aud,Left,2015-08-05 13:34:00,5_8_2015 level5_100_cooling 13_34 log,8.0,34.0,1311,-30,-0.5235987755982988,L,L,1,0
31,0,2350.886,0,8,-90,100,501,0.0,8,2351.867,1,736181.593118,Aud,Left,2015-08-05 13:34:00,5_8_2015 level5_100_cooling 13_34 log,8.0,34.0,1311,-90,-1.5707963267948966,L,L,1,0
32,0,2357.435,0,3,60,100,601,9.0,3,2358.356,1,736181.593193,Aud,Left,2015-08-05 13:34:00,5_8_2015 level5_100_cooling 13_34 log,8.0,34.0,1311,60,1.0471975511965976,R,R,1,0
33,0,2366.372,0,5,0,100,701,0.0,5,2367.503,1,736181.593299,Aud,Left,2015-08-05 13:34:00,5_8_2015 level5_100_cooling 13_34 log,8.0,34.0,1311,0,0.0,,,0,0
34,0,2375.304,0,7,-60,100,1001,4.5,5,2376.051,0,736181.593399,Aud,Left,2015-08-05 13:34:00,5_8_2015 level5_100_cooling 13_34 log,8.0,34.0,1311,0,-1.0471975511965976,L,,0,60
35,0,2382.175,0,4,30,100,751,4.5,3,2382.869,0,736181.593478,Aud,Left,2015-08-05 13:34:00,5_8_2015 level5_100_cooling 13_34 log,7.0,34.0,1311,60,0.5235987755982988,R,R,1,30
36,0,2392.493,0,6,-30,100,851,9.0,6,2393.301,1,736181.593598,Aud,Left,2015-08-05 13:34:00,5_8_2015 level5_100_cooling 13_34 log,7.0,34.0,1311,-30,-0.5235987755982988,L,L,1,0
37,0,2401.69,0,2,90,100,951,9.0,6,2402.293,0,736181.593704,Aud,Left,2015-08-05 13:34:00,5_8_2015 level5_100_cooling 13_34 log,7.0,34.0,1311,-30,1.5707963267948966,R,L,0,120
38,0,2412.79,0,3,60,100,901,0.0,2,2413.432,0,736181.593833,Aud,Left,2015-08-05 13:34:00,5_8_2015 level5_100_cooling 13_34 log,7.0,34.0,1311,90,1.0471975511965976,R,R,1,30
39,0,2421.872,0,8,-90,100,651,0.0,8,2422.646,1,736181.593938,Aud,Left,2015-08-05 13:34:00,5_8_2015 level5_100_cooling 13_34 log,7.0,34.0,1311,-90,-1.5707963267948966,L,L,1,0
40,0,2428.531,0,5,0,100,551,9.0,5,2429.445,1,736181.594016,Aud,Left,2015-08-05 13:34:00,5_8_2015 level5_100_cooling 13_34 log,7.0,34.0,1311,0,0.0,,,0,0
41,0,2441.2,0,2,90,100,701,0.0,4,2442.168,0,736181.594163,Aud,Left,2015-08-05 13:34:00,5_8_2015 level5_100_cooling 13_34 log,7.0,34.0,1311,30,1.5707963267948966,R,R,1,60
42,0,2456.308,0,4,30,100,851,4.5,3,2457.089,0,736181.594336,Aud,Left,2015-08-05 13:34:00,5_8_2015 level5_100_cooling 13_34 log,7.0,34.0,1311,60,0.5235987755982988,R,R,1,30
43,0,2465.478,0,5,0,100,1001,4.5,4,2467.821,0,736181.59446,Aud,Left,2015-08-05 13:34:00,5_8_2015 level5_100_cooling 13_34 log,7.0,34.0,1311,30,0.0,,R,0,30
44,0,2476.578,0,7,-60,100,651,9.0,8,2477.417,0,736181.594571,Aud,Left,2015-08-05 13:34:00,5_8_2015 level5_100_cooling 13_34 log,7.0,34.0,1311,-90,-1.0471975511965976,L,L,1,30
45,0,2490.362,0,2,90,100,801,9.0,3,2491.268,0,736181.594731,Aud,Left,2015-08-05 13:34:00,5_8_2015 level5_100_cooling 13_34 log,7.0,34.0,1311,60,1.5707963267948966,R,R,1,30
46,0,2509.832,0,3,60,100,951,4.5,2,2510.493,0,736181.594956,Aud,Left,2015-08-05 13:34:00,5_8_2015 level5_100_cooling 13_34 log,7.0,34.0,1311,90,1.0471975511965976,R,R,1,30
47,0,2522.161,0,5,0,100,751,9.0,6,2522.873,0,736181.595098,Aud,Left,2015-08-05 13:34:00,5_8_2015 level5_100_cooling 13_34 log,7.0,34.0,1311,-30,0.0,,L,0,30
48,0,2533.91,0,7,-60,100,601,0.0,7,2534.992,1,736181.595238,Aud,Left,2015-08-05 13:34:00,5_8_2015 level5_100_cooling 13_34 log,7.0,34.0,1311,-60,-1.0471975511965976,L,L,1,0
49,0,2539.951,0,6,-30,100,551,4.5,6,2540.767,1,736181.595305,Aud,Left,2015-08-05 13:34:00,5_8_2015 level5_100_cooling 13_34 log,7.0,34.0,1311,-30,-0.5235987755982988,L,L,1,0
50,0,2548.156,0,4,30,100,501,9.0,6,2548.999,0,736181.5954,Aud,Left,2015-08-05 13:34:00,5_8_2015 level5_100_cooling 13_34 log,7.0,34.0,1311,-30,0.5235987755982988,R,L,0,60
51,0,2560.691,0,6,-30,100,951,4.5,6,2561.638,1,736181.595547,Aud,Left,2015-08-05 13:34:00,5_8_2015 level5_100_cooling 13_34 log,8.0,34.0,1311,-30,-0.5235987755982988,L,L,1,0
52,0,2569.631,0,4,30,100,651,9.0,4,2570.391,1,736181.595649,Aud,Left,2015-08-05 13:34:00,5_8_2015 level5_100_cooling 13_34 log,8.0,34.0,1311,30,0.5235987755982988,R,R,1,0
53,0,2577.699,0,2,90,100,551,0.0,3,2578.605,0,736181.595742,Aud,Left,2015-08-05 13:34:00,5_8_2015 level5_100_cooling 13_34 log,8.0,34.0,1311,60,1.5707963267948966,R,R,1,30
54,0,2589.023,0,3,60,100,751,4.5,6,2589.876,0,736181.595872,Aud,Left,2015-08-05 13:34:00,5_8_2015 level5_100_cooling 13_34 log,8.0,34.0,1311,-30,1.0471975511965976,R,L,0,90
55,0,2601.47,0,8,-90,100,701,9.0,8,2602.346,1,736181.596017,Aud,Left,2015-08-05 13:34:00,5_8_2015 level5_100_cooling 13_34 log,8.0,34.0,1311,-90,-1.5707963267948966,L,L,1,0
56,0,2608.889,0,8,-90,100,901,0.0,8,2609.496,1,736181.596102,Aud,Left,2015-08-05 13:34:00,5_8_2015 level5_100_cooling 13_34 log,8.0,34.0,1311,-90,-1.5707963267948966,L,L,1,0
57,0,2616.295,0,2,90,100,501,4.5,2,2618.011,1,736181.596198,Aud,Left,2015-08-05 13:34:00,5_8_2015 level5_100_cooling 13_34 log,8.0,34.0,1311,90,1.5707963267948966,R,R,1,0
58,0,2628.117,0,7,-60,100,601,0.0,8,2628.83,0,736181.596325,Aud,Left,2015-08-05 13:34:00,5_8_2015 level5_100_cooling 13_34 log,8.0,34.0,1311,-90,-1.0471975511965976,L,L,1,30
59,0,2642.645,0,4,30,100,851,0.0,3,2648.429,0,736181.596551,Aud,Left,2015-08-05 13:34:00,5_8_2015 level5_100_cooling 13_34 log,8.0,34.0,1311,60,0.5235987755982988,R,R,1,30
60,0,2657.289,0,3,60,100,801,4.5,4,2658.187,0,736181.596664,Aud,Left,2015-08-05 13:34:00,5_8_2015 level5_100_cooling 13_34 log,7.0,34.0,1311,30,1.0471975511965976,R,R,1,30
61,0,2676.115,0,8,-90,100,851,9.0,8,2676.9,1,736181.59688,Aud,Left,2015-08-05 13:34:00,5_8_2015 level5_100_cooling 13_34 log,8.0,34.0,1311,-90,-1.5707963267948966,L,L,1,0
62,0,2689.165,0,7,-60,100,601,4.5,7,2690.261,1,736181.597035,Aud,Left,2015-08-05 13:34:00,5_8_2015 level5_100_cooling 13_34 log,7.0,34.0,1311,-60,-1.0471975511965976,L,L,1,0
63,0,2696.15,0,8,-90,100,651,0.0,8,2696.82,1,736181.597113,Aud,Left,2015-08-05 13:34:00,5_8_2015 level5_100_cooling 13_34 log,7.0,34.0,1311,-90,-1.5707963267948966,L,L,1,0
64,0,2703.792,0,6,-30,100,951,9.0,7,2704.47,0,736181.597201,Aud,Left,2015-08-05 13:34:00,5_8_2015 level5_100_cooling 13_34 log,7.0,34.0,1311,-60,-0.5235987755982988,L,L,1,30
65,0,2712.507,0,3,60,100,501,4.5,3,2714.228,1,736181.597312,Aud,Left,2015-08-05 13:34:00,5_8_2015 level5_100_cooling 13_34 log,7.0,34.0,1311,60,1.0471975511965976,R,R,1,0
66,0,2722.428,0,6,-30,100,751,9.0,6,2723.375,1,736181.597418,Aud,Left,2015-08-05 13:34:00,5_8_2015 level5_100_cooling 13_34 log,7.0,34.0,1311,-30,-0.5235987755982988,L,L,1,0
67,0,2731.846,0,5,0,100,701,9.0,5,2732.765,1,736181.597526,Aud,Left,2015-08-05 13:34:00,5_8_2015 level5_100_cooling 13_34 log,7.0,34.0,1311,0,0.0,,,0,0
68,0,2740.613,0,4,30,100,801,4.5,3,2742.232,0,736181.597636,Aud,Left,2015-08-05 13:34:00,5_8_2015 level5_100_cooling 13_34 log,7.0,34.0,1311,60,0.5235987755982988,R,R,1,30
69,0,2751.972,0,2,90,100,1001,0.0,2,2752.796,1,736181.597758,Aud,Left,2015-08-05 13:34:00,5_8_2015 level5_100_cooling 13_34 log,7.0,34.0,1311,90,1.5707963267948966,R,R,1,0
70,0,2772.663,0,5,0,100,901,9.0,4,2773.44,0,736181.597998,Aud,Left,2015-08-05 13:34:00,5_8_2015 level5_100_cooling 13_34 log,7.0,34.0,1311,30,0.0,,R,0,30
71,0,2782.624,0,6,-30,100,951,0.0,6,2783.604,1,736181.598115,Aud,Left,2015-08-05 13:34:00,5_8_2015 level5_100_cooling 13_34 log,7.0,34.0,1311,-30,-0.5235987755982988,L,L,1,0
72,0,2791.558,0,4,30,100,901,4.5,5,2792.446,0,736181.598217,Aud,Left,2015-08-05 13:34:00,5_8_2015 level5_100_cooling 13_34 log,7.0,34.0,1311,0,0.5235987755982988,R,,0,30
73,0,2800.605,0,5,0,100,801,9.0,6,2801.459,0,736181.598321,Aud,Left,2015-08-05 13:34:00,5_8_2015 level5_100_cooling 13_34 log,7.0,34.0,1311,-30,0.0,,L,0,30
74,0,2814.386,0,7,-60,100,1001,4.5,7,2815.125,1,736181.598481,Aud,Left,2015-08-05 13:34:00,5_8_2015 level5_100_cooling 13_34 log,7.0,34.0,1311,-60,-1.0471975511965976,L,L,1,0
75,0,2820.827,0,4,30,100,701,4.5,5,2821.794,0,736181.598557,Aud,Left,2015-08-05 13:34:00,5_8_2015 level5_100_cooling 13_34 log,7.0,34.0,1311,0,0.5235987755982988,R,,0,30
76,0,2829.12,0,3,60,100,751,0.0,3,2829.827,1,736181.598651,Aud,Left,2015-08-05 13:34:00,5_8_2015 level5_100_cooling 13_34 log,7.0,34.0,1311,60,1.0471975511965976,R,R,1,0
77,0,2838.768,0,2,90,100,851,9.0,3,2839.346,0,736181.598763,Aud,Left,2015-08-05 13:34:00,5_8_2015 level5_100_cooling 13_34 log,7.0,34.0,1311,60,1.5707963267948966,R,R,1,30
78,0,2849.581,0,8,-90,100,551,4.5,8,2850.328,1,736181.598889,Aud,Left,2015-08-05 13:34:00,5_8_2015 level5_100_cooling 13_34 log,7.0,34.0,1311,-90,-1.5707963267948966,L,L,1,0
79,0,2855.833,0,3,60,100,651,4.5,2,2856.784,0,736181.598962,Aud,Left,2015-08-05 13:34:00,5_8_2015 level5_100_cooling 13_34 log,7.0,34.0,1311,90,1.0471975511965976,R,R,1,30
80,0,2864.75,0,7,-60,100,501,9.0,6,2865.583,0,736181.599064,Aud,Left,2015-08-05 13:34:00,5_8_2015 level5_100_cooling 13_34 log,8.0,34.0,1311,-30,-1.0471975511965976,L,L,1,30
81,0,2875.764,0,5,0,100,751,4.5,5,2876.56,1,736181.599191,Aud,Left,2015-08-05 13:34:00,5_8_2015 level5_100_cooling 13_34 log,8.0,34.0,1311,0,0.0,,,0,0
82,0,2884.879,0,8,-90,100,851,9.0,8,2885.642,1,736181.599297,Aud,Left,2015-08-05 13:34:00,5_8_2015 level5_100_cooling 13_34 log,8.0,34.0,1311,-90,-1.5707963267948966,L,L,1,0
83,0,2890.792,0,2,90,100,551,4.5,6,2892.253,0,736181.599372,Aud,Left,2015-08-05 13:34:00,5_8_2015 level5_100_cooling 13_34 log,8.0,34.0,1311,-30,1.5707963267948966,R,L,0,120
84,0,2901.734,0,6,-30,100,601,9.0,5,2902.671,0,736181.599493,Aud,Left,2015-08-05 13:34:00,5_8_2015 level5_100_cooling 13_34 log,8.0,34.0,1311,0,-0.5235987755982988,L,,0,30
85,0,2908.614,0,6,-30,100,701,4.5,6,2909.483,1,736181.599572,Aud,Left,2015-08-05 13:34:00,5_8_2015 level5_100_cooling 13_34 log,8.0,34.0,1311,-30,-0.5235987755982988,L,L,1,0
86,0,2916.356,0,2,90,100,651,0.0,2,2917.07,1,736181.599662,Aud,Left,2015-08-05 13:34:00,5_8_2015 level5_100_cooling 13_34 log,8.0,34.0,1311,90,1.5707963267948966,R,R,1,0
87,0,2926.997,0,8,-90,100,901,4.5,8,2927.643,1,736181.599784,Aud,Left,2015-08-05 13:34:00,5_8_2015 level5_100_cooling 13_34 log,8.0,34.0,1311,-90,-1.5707963267948966,L,L,1,0
88,0,2933.688,0,3,60,100,1001,0.0,2,2934.592,0,736181.599862,Aud,Left,2015-08-05 13:34:00,5_8_2015 level5_100_cooling 13_34 log,8.0,34.0,1311,90,1.0471975511965976,R,R,1,30
89,0,2943.706,0,5,0,100,951,4.5,4,2944.453,0,736181.599977,Aud,Left,2015-08-05 13:34:00,5_8_2015 level5_100_cooling 13_34 log,8.0,34.0,1311,30,0.0,,R,0,30
90,0,2953.924,0,6,-30,100,501,0.0,7,2954.663,0,736181.600096,Aud,Left,2015-08-05 13:34:00,5_8_2015 level5_100_cooling 13_34 log,8.0,34.0,1311,-60,-0.5235987755982988,L,L,1,30
91,0,2963.762,0,5,0,100,901,9.0,5,2964.661,1,736181.60021,Aud,Left,2015-08-05 13:34:00,5_8_2015 level5_100_cooling 13_34 log,8.0,34.0,1311,0,0.0,,,0,0
92,0,2971.847,0,4,30,100,551,0.0,4,2972.971,1,736181.600307,Aud,Left,2015-08-05 13:34:00,5_8_2015 level5_100_cooling 13_34 log,8.0,34.0,1311,30,0.5235987755982988,R,R,1,0
93,0,2980.406,0,7,-60,100,851,9.0,7,2981.237,1,736181.600402,Aud,Left,2015-08-05 13:34:00,5_8_2015 level5_100_cooling 13_34 log,8.0,34.0,1311,-60,-1.0471975511965976,L,L,1,0
94,0,2985.184,0,8,-90,100,651,4.5,8,2985.773,1,736181.600458,Aud,Left,2015-08-05 13:34:00,5_8_2015 level5_100_cooling 13_34 log,8.0,34.0,1311,-90,-1.5707963267948966,L,L,1,0
95,0,2991.575,0,3,60,100,1001,0.0,3,2992.598,1,736181.600534,Aud,Left,2015-08-05 13:34:00,5_8_2015 level5_100_cooling 13_34 log,8.0,34.0,1311,60,1.0471975511965976,R,R,1,0
96,0,2998.964,0,4,30,100,951,4.5,4,2999.794,1,736181.600617,Aud,Left,2015-08-05 13:34:00,5_8_2015 level5_100_cooling 13_34 log,8.0,34.0,1311,30,0.5235987755982988,R,R,1,0
97,0,3006.836,0,2,90,100,751,4.5,3,3007.512,0,736181.600708,Aud,Left,2015-08-05 13:34:00,5_8_2015 level5_100_cooling 13_34 log,8.0,34.0,1311,60,1.5707963267948966,R,R,1,30
98,0,3016.702,0,7,-60,100,801,0.0,6,3017.451,0,736181.600822,Aud,Left,2015-08-05 13:34:00,5_8_2015 level5_100_cooling 13_34 log,8.0,34.0,1311,-30,-1.0471975511965976,L,L,1,30
99,0,3026.779,0,3,60,100,601,4.5,3,3027.633,1,736181.600939,Aud,Left,2015-08-05 13:34:00,5_8_2015 level5_100_cooling 13_34 log,8.0,34.0,1311,60,1.0471975511965976,R,R,1,0
100,0,3039.628,0,4,30,100,501,9.0,4,3040.399,1,736181.601088,Aud,Left,2015-08-05 13:34:00,5_8_2015 level5_100_cooling 13_34 log,8.0,34.0,1311,30,0.5235987755982988,R,R,1,0
101,0,3050.708,0,4,30,100,951,4.5,4,3051.703,1,736181.601218,Aud,Left,2015-08-05 13:34:00,5_8_2015 level5_100_cooling 13_34 log,8.0,34.0,1311,30,0.5235987755982988,R,R,1,0
102,0,3061.428,0,8,-90,100,901,0.0,8,3062.154,1,736181.60134,Aud,Left,2015-08-05 13:34:00,5_8_2015 level5_100_cooling 13_34 log,8.0,34.0,1311,-90,-1.5707963267948966,L,L,1,0
103,0,3068.729,0,7,-60,100,801,4.5,8,3069.545,0,736181.601425,Aud,Left,2015-08-05 13:34:00,5_8_2015 level5_100_cooling 13_34 log,8.0,34.0,1311,-90,-1.0471975511965976,L,L,1,30
104,0,3082.655,0,5,0,100,651,0.0,5,3083.605,1,736181.601587,Aud,Left,2015-08-05 13:34:00,5_8_2015 level5_100_cooling 13_34 log,8.0,34.0,1311,0,0.0,,,0,0
105,0,3090.766,0,2,90,100,601,0.0,2,3091.537,1,736181.60168,Aud,Left,2015-08-05 13:34:00,5_8_2015 level5_100_cooling 13_34 log,8.0,34.0,1311,90,1.5707963267948966,R,R,1,0
106,0,3100.997,0,5,0,100,1001,9.0,4,3101.669,0,736181.601798,Aud,Left,2015-08-05 13:34:00,5_8_2015 level5_100_cooling 13_34 log,8.0,34.0,1311,30,0.0,,R,0,30
107,0,3110.916,0,6,-30,100,701,0.0,6,3111.566,1,736181.601912,Aud,Left,2015-08-05 13:34:00,5_8_2015 level5_100_cooling 13_34 log,8.0,34.0,1311,-30,-0.5235987755982988,L,L,1,0
108,0,3118.719,0,8,-90,100,751,9.0,8,3119.358,1,736181.602003,Aud,Left,2015-08-05 13:34:00,5_8_2015 level5_100_cooling 13_34 log,8.0,34.0,1311,-90,-1.5707963267948966,L,L,1,0
109,0,3124.409,0,2,90,100,851,9.0,3,3125.235,0,736181.602069,Aud,Left,2015-08-05 13:34:00,5_8_2015 level5_100_cooling 13_34 log,8.0,34.0,1311,60,1.5707963267948966,R,R,1,30
110,0,3134.518,0,6,-30,100,551,0.0,6,3135.381,1,736181.602186,Aud,Left,2015-08-05 13:34:00,5_8_2015 level5_100_cooling 13_34 log,8.0,34.0,1311,-30,-0.5235987755982988,L,L,1,0
111,0,3151.851,0,7,-60,100,601,9.0,8,3155.109,0,736181.602415,Aud,Left,2015-08-05 13:34:00,5_8_2015 level5_100_cooling 13_34 log,8.0,34.0,1311,-90,-1.0471975511965976,L,L,1,30
1,0,560.339,0,3,60,250,1001,9.0,4,562.913,0,736167.691292,Aud,Left,2015-07-22 16:37:00,22_7_2015 level5_250_cooling 16_37 log,10.0,34.0,1311,30,1.0471975511965976,R,R,1,30
8,0,638.965,0,7,-60,250,801,4.5,7,639.728,1,736167.692182,Aud,Left,2015-07-22 16:37:00,22_7_2015 level5_250_cooling 16_37 log,10.0,34.0,1311,-60,-1.0471975511965976,L,L,1,0
2,0,14.516,0,6,-30,250,501,4.5,7,15.498,0,736167.692559,Aud,Left,2015-07-22 16:37:00,22_7_2015 level5_250_cooling 16_37 log,9.0,35.0,1311,-60,-0.5235987755982988,L,L,1,30
4,0,35.795,0,4,30,250,851,9.0,4,36.529,1,736167.692803,Aud,Left,2015-07-22 16:37:00,22_7_2015 level5_250_cooling 16_37 log,9.0,35.0,1311,30,0.5235987755982988,R,R,1,0
7,0,72.583,0,3,60,250,551,9.0,7,73.591,0,736167.69323,Aud,Left,2015-07-22 16:37:00,22_7_2015 level5_250_cooling 16_37 log,9.0,35.0,1311,-60,1.0471975511965976,R,L,0,120
10,0,106.653,0,4,30,250,601,9.0,4,107.391,1,736167.693623,Aud,Left,2015-07-22 16:37:00,22_7_2015 level5_250_cooling 16_37 log,9.0,35.0,1311,30,0.5235987755982988,R,R,1,0
14,0,154.962,0,6,-30,250,551,0.0,6,155.985,1,736167.694185,Aud,Left,2015-07-22 16:37:00,22_7_2015 level5_250_cooling 16_37 log,9.0,35.0,1311,-30,-0.5235987755982988,L,L,1,0
15,0,170.235,0,7,-60,250,651,0.0,8,171.317,0,736167.694361,Aud,Left,2015-07-22 16:37:00,22_7_2015 level5_250_cooling 16_37 log,9.0,35.0,1311,-90,-1.0471975511965976,L,L,1,30
17,0,187.246,1,3,60,250,751,4.5,3,189.048,1,736167.694567,Aud,Left,2015-07-22 16:37:00,22_7_2015 level5_250_cooling 16_37 log,10.0,35.0,1311,60,1.0471975511965976,R,R,1,0
26,0,295.193,0,5,0,250,701,0.0,4,296.256,0,736167.695808,Aud,Left,2015-07-22 16:37:00,22_7_2015 level5_250_cooling 16_37 log,11.0,35.0,1311,30,0.0,,R,0,30
27,0,306.327,0,8,-90,250,651,9.0,8,307.061,1,736167.695934,Aud,Left,2015-07-22 16:37:00,22_7_2015 level5_250_cooling 16_37 log,11.0,35.0,1311,-90,-1.5707963267948966,L,L,1,0
28,0,315.082,0,8,-90,250,751,4.5,8,315.845,1,736167.696036,Aud,Left,2015-07-22 16:37:00,22_7_2015 level5_250_cooling 16_37 log,11.0,35.0,1311,-90,-1.5707963267948966,L,L,1,0
32,0,361.662,0,3,60,250,751,9.0,4,362.473,0,736167.696574,Aud,Left,2015-07-22 16:37:00,22_7_2015 level5_250_cooling 16_37 log,10.0,35.0,1311,30,1.0471975511965976,R,R,1,30
33,0,374.924,0,7,-60,250,651,4.5,7,375.798,1,736167.696728,Aud,Left,2015-07-22 16:37:00,22_7_2015 level5_250_cooling 16_37 log,10.0,35.0,1311,-60,-1.0471975511965976,L,L,1,0
34,0,387.34,0,8,-90,250,901,0.0,8,388.166,1,736167.696872,Aud,Left,2015-07-22 16:37:00,22_7_2015 level5_250_cooling 16_37 log,10.0,35.0,1311,-90,-1.5707963267948966,L,L,1,0
35,0,395.79,0,6,-30,250,551,4.5,7,396.77,0,736167.696971,Aud,Left,2015-07-22 16:37:00,22_7_2015 level5_250_cooling 16_37 log,10.0,35.0,1311,-60,-0.5235987755982988,L,L,1,30
37,0,415.167,0,2,90,250,1001,0.0,2,416.0,1,736167.697194,Aud,Left,2015-07-22 16:37:00,22_7_2015 level5_250_cooling 16_37 log,10.0,35.0,1311,90,1.5707963267948966,R,R,1,0
38,0,426.489,0,7,-60,250,851,4.5,7,427.255,1,736167.697325,Aud,Left,2015-07-22 16:37:00,22_7_2015 level5_250_cooling 16_37 log,10.0,34.0,1311,-60,-1.0471975511965976,L,L,1,0
39,0,434.31,0,5,0,250,701,0.0,4,435.427,0,736167.697419,Aud,Left,2015-07-22 16:37:00,22_7_2015 level5_250_cooling 16_37 log,10.0,34.0,1311,30,0.0,,R,0,30
42,0,473.667,0,3,60,250,1001,0.0,4,474.98,0,736167.697876,Aud,Left,2015-07-22 16:37:00,22_7_2015 level5_250_cooling 16_37 log,10.0,34.0,1311,30,1.0471975511965976,R,R,1,30
46,0,509.972,0,5,0,250,951,9.0,2,514.989,0,736167.69834,Aud,Left,2015-07-22 16:37:00,22_7_2015 level5_250_cooling 16_37 log,10.0,34.0,1311,90,0.0,,R,0,90
47,0,529.649,0,2,90,250,551,0.0,5,530.857,0,736167.698523,Aud,Left,2015-07-22 16:37:00,22_7_2015 level5_250_cooling 16_37 log,10.0,34.0,1311,0,1.5707963267948966,R,,0,90
48,0,540.274,0,6,-30,250,851,9.0,7,541.167,0,736167.698642,Aud,Left,2015-07-22 16:37:00,22_7_2015 level5_250_cooling 16_37 log,10.0,35.0,1311,-60,-0.5235987755982988,L,L,1,30
51,0,570.234,0,4,30,250,901,9.0,4,571.377,1,736167.698993,Aud,Left,2015-07-22 16:37:00,22_7_2015 level5_250_cooling 16_37 log,10.0,34.0,1311,30,0.5235987755982988,R,R,1,0
57,0,630.328,0,7,-60,250,801,0.0,7,631.583,1,736167.699689,Aud,Left,2015-07-22 16:37:00,22_7_2015 level5_250_cooling 16_37 log,10.0,34.0,1311,-60,-1.0471975511965976,L,L,1,0
58,0,641.149,0,5,0,250,951,9.0,7,641.99,0,736167.699809,Aud,Left,2015-07-22 16:37:00,22_7_2015 level5_250_cooling 16_37 log,10.0,34.0,1311,-60,0.0,,L,0,60
61,0,670.908,0,2,90,250,801,4.5,4,671.681,0,736167.700154,Aud,Left,2015-07-22 16:37:00,22_7_2015 level5_250_cooling 16_37 log,10.0,34.0,1311,30,1.5707963267948966,R,R,1,60
64,0,702.54,0,2,90,250,601,9.0,6,704.107,0,736167.700528,Aud,Left,2015-07-22 16:37:00,22_7_2015 level5_250_cooling 16_37 log,10.0,34.0,1311,-30,1.5707963267948966,R,L,0,120
68,0,742.295,0,3,60,250,1001,9.0,4,743.065,0,736167.700981,Aud,Left,2015-07-22 16:37:00,22_7_2015 level5_250_cooling 16_37 log,10.0,34.0,1311,30,1.0471975511965976,R,R,1,30
73,0,792.328,0,3,60,250,901,0.0,4,793.052,0,736167.70156,Aud,Left,2015-07-22 16:37:00,22_7_2015 level5_250_cooling 16_37 log,10.0,34.0,1311,30,1.0471975511965976,R,R,1,30
75,0,811.919,0,5,0,250,651,0.0,6,812.778,0,736167.701786,Aud,Left,2015-07-22 16:37:00,22_7_2015 level5_250_cooling 16_37 log,10.0,34.0,1311,-30,0.0,,L,0,30
77,0,828.452,0,8,-90,250,501,9.0,8,829.627,1,736167.701981,Aud,Left,2015-07-22 16:37:00,22_7_2015 level5_250_cooling 16_37 log,10.0,34.0,1311,-90,-1.5707963267948966,L,L,1,0
78,0,836.803,0,7,-60,250,801,0.0,7,838.25,1,736167.702081,Aud,Left,2015-07-22 16:37:00,22_7_2015 level5_250_cooling 16_37 log,10.0,34.0,1311,-60,-1.0471975511965976,L,L,1,0
82,0,875.044,0,4,30,250,651,9.0,4,876.311,1,736167.702522,Aud,Left,2015-07-22 16:37:00,22_7_2015 level5_250_cooling 16_37 log,10.0,34.0,1311,30,0.5235987755982988,R,R,1,0
84,0,892.509,0,6,-30,250,1001,4.5,6,894.062,1,736167.702727,Aud,Left,2015-07-22 16:37:00,22_7_2015 level5_250_cooling 16_37 log,10.0,34.0,1311,-30,-0.5235987755982988,L,L,1,0
89,0,937.363,0,5,0,250,751,0.0,5,938.399,1,736167.703241,Aud,Left,2015-07-22 16:37:00,22_7_2015 level5_250_cooling 16_37 log,10.0,34.0,1311,0,0.0,,,0,0
90,0,945.936,0,4,30,250,601,4.5,5,947.032,0,736167.70334,Aud,Left,2015-07-22 16:37:00,22_7_2015 level5_250_cooling 16_37 log,10.0,34.0,1311,0,0.5235987755982988,R,,0,30
95,0,993.848,0,7,-60,250,901,4.5,7,994.67,1,736167.703891,Aud,Left,2015-07-22 16:37:00,22_7_2015 level5_250_cooling 16_37 log,10.0,34.0,1311,-60,-1.0471975511965976,L,L,1,0
96,0,998.902,0,4,30,250,651,0.0,5,1000.204,0,736167.703956,Aud,Left,2015-07-22 16:37:00,22_7_2015 level5_250_cooling 16_37 log,10.0,34.0,1311,0,0.5235987755982988,R,,0,30
98,0,1014.684,0,5,0,250,701,0.0,6,1015.704,0,736167.704135,Aud,Left,2015-07-22 16:37:00,22_7_2015 level5_250_cooling 16_37 log,10.0,34.0,1311,-30,0.0,,L,0,30
100,0,1031.955,1,8,-90,250,951,0.0,8,1032.678,1,736167.704332,Aud,Left,2015-07-22 16:37:00,22_7_2015 level5_250_cooling 16_37 log,10.0,34.0,1311,-90,-1.5707963267948966,L,L,1,0
102,0,1049.867,0,3,60,250,851,9.0,4,1050.725,0,736167.70454,Aud,Left,2015-07-22 16:37:00,22_7_2015 level5_250_cooling 16_37 log,11.0,34.0,1311,30,1.0471975511965976,R,R,1,30
107,0,1180.74,0,2,90,250,601,0.0,4,1181.793,0,736167.706058,Aud,Left,2015-07-22 16:37:00,22_7_2015 level5_250_cooling 16_37 log,11.0,34.0,1311,30,1.5707963267948966,R,R,1,60
108,0,1187.991,0,6,-30,250,901,9.0,7,1190.219,0,736167.706155,Aud,Left,2015-07-22 16:37:00,22_7_2015 level5_250_cooling 16_37 log,11.0,34.0,1311,-60,-0.5235987755982988,L,L,1,30
109,0,1201.954,0,2,90,250,951,0.0,4,1203.426,0,736167.706308,Aud,Left,2015-07-22 16:37:00,22_7_2015 level5_250_cooling 16_37 log,11.0,34.0,1311,30,1.5707963267948966,R,R,1,60
110,0,1222.673,0,6,-30,250,751,9.0,8,1224.762,0,736167.706554,Aud,Left,2015-07-22 16:37:00,22_7_2015 level5_250_cooling 16_37 log,11.0,34.0,1311,-90,-0.5235987755982988,L,L,1,60
111,0,1241.502,0,7,-60,250,601,9.0,6,1242.741,0,736167.706763,Aud,Left,2015-07-22 16:37:00,22_7_2015 level5_250_cooling 16_37 log,11.0,34.0,1311,-30,-1.0471975511965976,L,L,1,30
112,0,1251.588,0,3,60,250,551,4.5,4,1253.842,0,736167.706891,Aud,Left,2015-07-22 16:37:00,22_7_2015 level5_250_cooling 16_37 log,12.0,34.0,1311,30,1.0471975511965976,R,R,1,30
114,0,1277.744,0,5,0,250,1001,9.0,6,1279.012,0,736167.707183,Aud,Left,2015-07-22 16:37:00,22_7_2015 level5_250_cooling 16_37 log,12.0,34.0,1311,-30,0.0,,L,0,30
115,0,1288.975,0,2,90,250,701,0.0,4,1290.206,0,736167.707311,Aud,Left,2015-07-22 16:37:00,22_7_2015 level5_250_cooling 16_37 log,12.0,34.0,1311,30,1.5707963267948966,R,R,1,60
116,0,1304.937,0,3,60,250,801,4.5,5,1305.922,0,736167.707494,Aud,Left,2015-07-22 16:37:00,22_7_2015 level5_250_cooling 16_37 log,12.0,34.0,1311,0,1.0471975511965976,R,,0,60
119,0,1334.361,0,7,-60,250,651,9.0,6,1335.48,0,736167.707836,Aud,Left,2015-07-22 16:37:00,22_7_2015 level5_250_cooling 16_37 log,11.0,34.0,1311,-30,-1.0471975511965976,L,L,1,30
121,0,1349.957,0,6,-30,250,651,0.0,5,1351.379,0,736167.708019,Aud,Left,2015-07-22 16:37:00,22_7_2015 level5_250_cooling 16_37 log,11.0,34.0,1311,0,-0.5235987755982988,L,,0,30
126,0,1412.209,0,8,-90,250,551,4.5,8,1413.753,1,736167.708742,Aud,Left,2015-07-22 16:37:00,22_7_2015 level5_250_cooling 16_37 log,11.0,34.0,1311,-90,-1.5707963267948966,L,L,1,0
129,0,1438.049,0,4,30,250,751,4.5,6,1438.983,0,736167.709033,Aud,Left,2015-07-22 16:37:00,22_7_2015 level5_250_cooling 16_37 log,11.0,34.0,1311,-30,0.5235987755982988,R,L,0,60
132,0,1472.925,0,7,-60,250,901,4.5,6,1473.773,0,736167.709437,Aud,Left,2015-07-22 16:37:00,22_7_2015 level5_250_cooling 16_37 log,11.0,34.0,1311,-30,-1.0471975511965976,L,L,1,30
134,0,1490.924,0,2,90,250,551,9.0,3,1492.414,0,736167.709652,Aud,Left,2015-07-22 16:37:00,22_7_2015 level5_250_cooling 16_37 log,10.0,34.0,1311,60,1.5707963267948966,R,R,1,30
137,0,1519.481,0,6,-30,250,601,4.5,7,1520.511,0,736167.709977,Aud,Left,2015-07-22 16:37:00,22_7_2015 level5_250_cooling 16_37 log,10.0,34.0,1311,-60,-0.5235987755982988,L,L,1,30
139,0,1536.153,0,5,0,250,951,4.5,6,1537.913,0,736167.710179,Aud,Left,2015-07-22 16:37:00,22_7_2015 level5_250_cooling 16_37 log,10.0,34.0,1311,-30,0.0,,L,0,30
7,0,803.082,0,4,30,250,651,4.5,3,804.124,0,736159.6887,Aud,Left,2015-07-14 16:18:00,14_7_2015 level5_250_cooling 16_18 log,9.0,35.0,1311,60,0.5235987755982988,R,R,1,30
12,0,872.33,0,3,60,250,851,9.0,6,873.511,0,736159.689503,Aud,Left,2015-07-14 16:18:00,14_7_2015 level5_250_cooling 16_18 log,9.0,36.0,1311,-30,1.0471975511965976,R,L,0,90
14,0,891.677,0,8,-90,250,551,9.0,8,892.481,1,736159.689723,Aud,Left,2015-07-14 16:18:00,14_7_2015 level5_250_cooling 16_18 log,9.0,35.0,1311,-90,-1.5707963267948966,L,L,1,0
16,0,911.81,0,3,60,250,751,4.5,3,912.553,1,736159.689955,Aud,Left,2015-07-14 16:18:00,14_7_2015 level5_250_cooling 16_18 log,9.0,35.0,1311,60,1.0471975511965976,R,R,1,0
18,0,934.14,0,5,0,250,801,9.0,5,935.033,1,736159.690215,Aud,Left,2015-07-14 16:18:00,14_7_2015 level5_250_cooling 16_18 log,9.0,35.0,1311,0,0.0,,,0,0
21,0,962.144,0,6,-30,250,1001,0.0,7,962.76,0,736159.690538,Aud,Left,2015-07-14 16:18:00,14_7_2015 level5_250_cooling 16_18 log,9.0,35.0,1311,-60,-0.5235987755982988,L,L,1,30
22,0,977.765,0,5,0,250,751,9.0,6,978.67,0,736159.690719,Aud,Left,2015-07-14 16:18:00,14_7_2015 level5_250_cooling 16_18 log,9.0,34.0,1311,-30,0.0,,L,0,30
23,0,987.815,0,8,-90,250,801,0.0,8,988.848,1,736159.690838,Aud,Left,2015-07-14 16:18:00,14_7_2015 level5_250_cooling 16_18 log,9.0,34.0,1311,-90,-1.5707963267948966,L,L,1,0
24,0,996.156,0,6,-30,250,501,4.5,8,996.921,0,736159.690932,Aud,Left,2015-07-14 16:18:00,14_7_2015 level5_250_cooling 16_18 log,9.0,34.0,1311,-90,-0.5235987755982988,L,L,1,60
26,0,1016.229,0,2,90,250,901,0.0,3,1017.112,0,736159.691165,Aud,Left,2015-07-14 16:18:00,14_7_2015 level5_250_cooling 16_18 log,9.0,34.0,1311,60,1.5707963267948966,R,R,1,30
28,0,1038.337,0,7,-60,250,701,4.5,6,1039.367,0,736159.691423,Aud,Left,2015-07-14 16:18:00,14_7_2015 level5_250_cooling 16_18 log,9.0,34.0,1311,-30,-1.0471975511965976,L,L,1,30
33,0,1082.835,0,3,60,250,501,4.5,4,1083.695,0,736159.691936,Aud,Left,2015-07-14 16:18:00,14_7_2015 level5_250_cooling 16_18 log,9.0,35.0,1311,30,1.0471975511965976,R,R,1,30
34,0,1093.804,0,8,-90,250,551,0.0,8,1094.568,1,736159.692062,Aud,Left,2015-07-14 16:18:00,14_7_2015 level5_250_cooling 16_18 log,9.0,35.0,1311,-90,-1.5707963267948966,L,L,1,0
36,0,1111.864,0,4,30,250,901,0.0,4,1112.724,1,736159.692271,Aud,Left,2015-07-14 16:18:00,14_7_2015 level5_250_cooling 16_18 log,9.0,35.0,1311,30,0.5235987755982988,R,R,1,0
40,0,1219.943,0,4,30,250,801,0.0,4,1220.74,1,736159.693521,Aud,Left,2015-07-14 16:18:00,14_7_2015 level5_250_cooling 16_18 log,9.0,34.0,1311,30,0.5235987755982988,R,R,1,0
42,0,1237.85,0,8,-90,250,601,4.5,8,1239.714,1,736159.693741,Aud,Left,2015-07-14 16:18:00,14_7_2015 level5_250_cooling 16_18 log,9.0,34.0,1311,-90,-1.5707963267948966,L,L,1,0
43,0,1248.849,0,7,-60,250,751,4.5,7,1249.698,1,736159.693857,Aud,Left,2015-07-14 16:18:00,14_7_2015 level5_250_cooling 16_18 log,9.0,34.0,1311,-60,-1.0471975511965976,L,L,1,0
44,0,1258.012,0,2,90,250,551,0.0,3,1258.762,0,736159.693962,Aud,Left,2015-07-14 16:18:00,14_7_2015 level5_250_cooling 16_18 log,9.0,34.0,1311,60,1.5707963267948966,R,R,1,30
45,0,1269.981,0,5,0,250,501,0.0,5,1270.942,1,736159.694102,Aud,Left,2015-07-14 16:18:00,14_7_2015 level5_250_cooling 16_18 log,9.0,34.0,1311,0,0.0,,,0,0
48,0,1297.211,0,7,-60,250,851,0.0,7,1298.054,1,736159.694416,Aud,Left,2015-07-14 16:18:00,14_7_2015 level5_250_cooling 16_18 log,10.0,35.0,1311,-60,-1.0471975511965976,L,L,1,0
49,0,1312.613,0,3,60,250,1001,0.0,4,1313.423,0,736159.694594,Aud,Left,2015-07-14 16:18:00,14_7_2015 level5_250_cooling 16_18 log,9.0,35.0,1311,30,1.0471975511965976,R,R,1,30
51,0,1335.941,1,6,-30,250,501,9.0,6,1336.959,1,736159.694867,Aud,Left,2015-07-14 16:18:00,14_7_2015 level5_250_cooling 16_18 log,9.0,35.0,1311,-30,-0.5235987755982988,L,L,1,0
53,0,1359.19,0,6,-30,250,601,0.0,7,1360.07,0,736159.695134,Aud,Left,2015-07-14 16:18:00,14_7_2015 level5_250_cooling 16_18 log,9.0,34.0,1311,-60,-0.5235987755982988,L,L,1,30
54,0,1372.646,0,2,90,250,701,9.0,2,1373.505,1,736159.695289,Aud,Left,2015-07-14 16:18:00,14_7_2015 level5_250_cooling 16_18 log,9.0,34.0,1311,90,1.5707963267948966,R,R,1,0
57,0,1404.704,0,6,-30,250,951,4.5,7,1405.502,0,736159.69566,Aud,Left,2015-07-14 16:18:00,14_7_2015 level5_250_cooling 16_18 log,9.0,35.0,1311,-60,-0.5235987755982988,L,L,1,30
61,0,1442.855,0,3,60,250,751,9.0,4,1443.979,0,736159.696105,Aud,Left,2015-07-14 16:18:00,14_7_2015 level5_250_cooling 16_18 log,9.0,34.0,1311,30,1.0471975511965976,R,R,1,30
62,0,1455.242,0,7,-60,250,851,0.0,7,1456.281,1,736159.696248,Aud,Left,2015-07-14 16:18:00,14_7_2015 level5_250_cooling 16_18 log,9.0,34.0,1311,-60,-1.0471975511965976,L,L,1,0
65,0,1484.02,0,6,-30,250,601,0.0,6,1485.075,1,736159.696581,Aud,Left,2015-07-14 16:18:00,14_7_2015 level5_250_cooling 16_18 log,10.0,34.0,1311,-30,-0.5235987755982988,L,L,1,0
66,0,1492.07,1,2,90,250,801,4.5,3,1492.754,0,736159.696672,Aud,Left,2015-07-14 16:18:00,14_7_2015 level5_250_cooling 16_18 log,10.0,34.0,1311,60,1.5707963267948966,R,R,1,30
69,0,1530.737,0,4,30,250,701,0.0,4,1531.504,1,736159.697118,Aud,Left,2015-07-14 16:18:00,14_7_2015 level5_250_cooling 16_18 log,9.0,34.0,1311,30,0.5235987755982988,R,R,1,0
72,0,1559.547,0,3,60,250,501,9.0,5,1560.709,0,736159.697456,Aud,Left,2015-07-14 16:18:00,14_7_2015 level5_250_cooling 16_18 log,10.0,34.0,1311,0,1.0471975511965976,R,,0,60
74,0,1576.79,1,4,30,250,701,0.0,4,1577.549,1,736159.697652,Aud,Left,2015-07-14 16:18:00,14_7_2015 level5_250_cooling 16_18 log,10.0,34.0,1311,30,0.5235987755982988,R,R,1,0
77,0,1612.761,0,5,0,250,901,4.5,6,1613.583,0,736159.698069,Aud,Left,2015-07-14 16:18:00,14_7_2015 level5_250_cooling 16_18 log,10.0,34.0,1311,-30,0.0,,L,0,30
78,0,1625.123,0,5,0,250,1001,0.0,4,1625.817,0,736159.698211,Aud,Left,2015-07-14 16:18:00,14_7_2015 level5_250_cooling 16_18 log,10.0,34.0,1311,30,0.0,,R,0,30
79,0,1631.905,0,7,-60,250,651,0.0,7,1632.815,1,736159.698291,Aud,Left,2015-07-14 16:18:00,14_7_2015 level5_250_cooling 16_18 log,10.0,34.0,1311,-60,-1.0471975511965976,L,L,1,0
81,0,1649.276,0,8,-90,250,951,9.0,8,1650.2,1,736159.698492,Aud,Left,2015-07-14 16:18:00,14_7_2015 level5_250_cooling 16_18 log,10.0,34.0,1311,-90,-1.5707963267948966,L,L,1,0
88,0,1710.948,0,3,60,250,551,4.5,4,1711.858,0,736159.699206,Aud,Left,2015-07-14 16:18:00,14_7_2015 level5_250_cooling 16_18 log,10.0,34.0,1311,30,1.0471975511965976,R,R,1,30
92,0,1746.397,0,4,30,250,801,9.0,4,1747.153,1,736159.699615,Aud,Left,2015-07-14 16:18:00,14_7_2015 level5_250_cooling 16_18 log,10.0,34.0,1311,30,0.5235987755982988,R,R,1,0
93,0,1755.347,0,7,-60,250,551,4.5,7,1756.801,1,736159.699726,Aud,Left,2015-07-14 16:18:00,14_7_2015 level5_250_cooling 16_18 log,10.0,34.0,1311,-60,-1.0471975511965976,L,L,1,0
95,0,1768.959,0,5,0,250,601,9.0,2,1774.424,0,736159.69993,Aud,Left,2015-07-14 16:18:00,14_7_2015 level5_250_cooling 16_18 log,10.0,34.0,1311,90,0.0,,R,0,90
99,0,1815.832,0,5,0,250,701,0.0,5,1816.88,1,736159.700422,Aud,Left,2015-07-14 16:18:00,14_7_2015 level5_250_cooling 16_18 log,10.0,34.0,1311,0,0.0,,,0,0
101,0,1862.839,0,3,60,250,601,0.0,7,1865.472,0,736159.700984,Aud,Left,2015-07-14 16:18:00,14_7_2015 level5_250_cooling 16_18 log,11.0,34.0,1311,-60,1.0471975511965976,R,L,0,120
102,0,1873.735,0,2,90,250,951,4.5,4,1874.875,0,736159.701093,Aud,Left,2015-07-14 16:18:00,14_7_2015 level5_250_cooling 16_18 log,10.0,34.0,1311,30,1.5707963267948966,R,R,1,60
103,0,1881.89,0,8,-90,250,851,0.0,8,1882.796,1,736159.701184,Aud,Left,2015-07-14 16:18:00,14_7_2015 level5_250_cooling 16_18 log,10.0,34.0,1311,-90,-1.5707963267948966,L,L,1,0
106,0,1904.792,0,7,-60,250,751,9.0,7,1905.748,1,736159.701449,Aud,Left,2015-07-14 16:18:00,14_7_2015 level5_250_cooling 16_18 log,10.0,34.0,1311,-60,-1.0471975511965976,L,L,1,0
109,0,1928.998,0,6,-30,250,651,9.0,6,1929.963,1,736159.70173,Aud,Left,2015-07-14 16:18:00,14_7_2015 level5_250_cooling 16_18 log,10.0,34.0,1311,-30,-0.5235987755982988,L,L,1,0
113,0,1964.799,0,8,-90,250,651,9.0,8,1965.871,1,736159.702146,Aud,Left,2015-07-14 16:18:00,14_7_2015 level5_250_cooling 16_18 log,10.0,34.0,1311,-90,-1.5707963267948966,L,L,1,0
117,0,1997.728,0,3,60,250,851,4.5,4,1998.436,0,736159.702524,Aud,Left,2015-07-14 16:18:00,14_7_2015 level5_250_cooling 16_18 log,10.0,34.0,1311,30,1.0471975511965976,R,R,1,30
121,0,2028.741,0,4,30,250,701,0.0,5,2029.733,0,736159.702885,Aud,Left,2015-07-14 16:18:00,14_7_2015 level5_250_cooling 16_18 log,10.0,34.0,1311,0,0.5235987755982988,R,,0,30
123,0,2045.413,0,2,90,250,601,4.5,6,2046.548,0,736159.70308,Aud,Left,2015-07-14 16:18:00,14_7_2015 level5_250_cooling 16_18 log,10.0,34.0,1311,-30,1.5707963267948966,R,L,0,120
1,0,1787.58,0,7,-60,100,901,9.0,8,1788.313,0,736175.690713,Aud,Right,2015-07-30 16:04:00,30_7_2015 level5_100_cooling 16_4 log,37.0,12.0,1311,-90,-1.0471975511965976,L,L,1,30
2,0,1861.874,0,4,30,100,701,0.0,8,1863.313,0,736175.691579,Aud,Right,2015-07-30 16:04:00,30_7_2015 level5_100_cooling 16_4 log,37.0,11.0,1311,-90,0.5235987755982988,R,L,0,120
3,0,1876.065,0,2,90,100,951,0.0,3,1877.732,0,736175.691746,Aud,Right,2015-07-30 16:04:00,30_7_2015 level5_100_cooling 16_4 log,37.0,10.0,1311,60,1.5707963267948966,R,R,1,30
4,0,1889.98,0,5,0,100,651,4.5,6,1891.448,0,736175.691906,Aud,Right,2015-07-30 16:04:00,30_7_2015 level5_100_cooling 16_4 log,37.0,9.0,1311,-30,0.0,,L,0,30
5,0,1901.746,0,3,60,100,1001,0.0,2,1902.397,0,736175.692035,Aud,Right,2015-07-30 16:04:00,30_7_2015 level5_100_cooling 16_4 log,37.0,9.0,1311,90,1.0471975511965976,R,R,1,30
6,0,1911.808,0,6,-30,100,851,9.0,4,1914.032,0,736175.692166,Aud,Right,2015-07-30 16:04:00,30_7_2015 level5_100_cooling 16_4 log,37.0,9.0,1311,30,-0.5235987755982988,L,R,0,60
7,0,1920.101,0,8,-90,100,751,0.0,8,1921.318,1,736175.692251,Aud,Right,2015-07-30 16:04:00,30_7_2015 level5_100_cooling 16_4 log,37.0,9.0,1311,-90,-1.5707963267948966,L,L,1,0
8,0,1924.65,0,6,-30,100,801,9.0,8,1925.635,0,736175.6923,Aud,Right,2015-07-30 16:04:00,30_7_2015 level5_100_cooling 16_4 log,37.0,9.0,1311,-90,-0.5235987755982988,L,L,1,60
9,0,1936.779,0,7,-60,100,601,0.0,8,1938.057,0,736175.692444,Aud,Right,2015-07-30 16:04:00,30_7_2015 level5_100_cooling 16_4 log,37.0,9.0,1311,-90,-1.0471975511965976,L,L,1,30
10,0,1953.561,0,8,-90,100,551,9.0,8,1954.592,1,736175.692636,Aud,Right,2015-07-30 16:04:00,30_7_2015 level5_100_cooling 16_4 log,37.0,9.0,1311,-90,-1.5707963267948966,L,L,1,0
11,0,1967.406,0,4,30,100,601,0.0,2,1969.251,0,736175.692805,Aud,Right,2015-07-30 16:04:00,30_7_2015 level5_100_cooling 16_4 log,37.0,9.0,1311,90,0.5235987755982988,R,R,1,60
12,0,1980.948,0,2,90,100,1001,9.0,2,1982.674,1,736175.692961,Aud,Right,2015-07-30 16:04:00,30_7_2015 level5_100_cooling 16_4 log,37.0,9.0,1311,90,1.5707963267948966,R,R,1,0
13,0,2012.606,0,5,0,100,901,0.0,4,2013.629,0,736175.693319,Aud,Right,2015-07-30 16:04:00,30_7_2015 level5_100_cooling 16_4 log,37.0,8.0,1311,30,0.0,,R,0,30
14,0,2019.96,0,3,60,100,651,4.5,2,2021.304,0,736175.693408,Aud,Right,2015-07-30 16:04:00,30_7_2015 level5_100_cooling 16_4 log,37.0,8.0,1311,90,1.0471975511965976,R,R,1,30
15,0,2030.901,0,7,-60,100,701,9.0,8,2031.732,0,736175.693529,Aud,Right,2015-07-30 16:04:00,30_7_2015 level5_100_cooling 16_4 log,37.0,8.0,1311,-90,-1.0471975511965976,L,L,1,30
16,0,2042.776,0,3,60,100,501,0.0,3,2043.697,1,736175.693667,Aud,Right,2015-07-30 16:04:00,30_7_2015 level5_100_cooling 16_4 log,37.0,8.0,1311,60,1.0471975511965976,R,R,1,0
17,0,2073.791,0,2,90,100,751,0.0,2,2074.748,1,736175.694026,Aud,Right,2015-07-30 16:04:00,30_7_2015 level5_100_cooling 16_4 log,37.0,8.0,1311,90,1.5707963267948966,R,R,1,0
18,0,2086.801,0,6,-30,100,551,4.5,3,2087.952,0,736175.694179,Aud,Right,2015-07-30 16:04:00,30_7_2015 level5_100_cooling 16_4 log,37.0,8.0,1311,60,-0.5235987755982988,L,R,0,90
19,0,2098.859,0,8,-90,100,801,0.0,8,2100.165,1,736175.694321,Aud,Right,2015-07-30 16:04:00,30_7_2015 level5_100_cooling 16_4 log,37.0,8.0,1311,-90,-1.5707963267948966,L,L,1,0
20,0,2108.129,0,3,60,100,951,4.5,2,2109.32,0,736175.694427,Aud,Right,2015-07-30 16:04:00,30_7_2015 level5_100_cooling 16_4 log,37.0,8.0,1311,90,1.0471975511965976,R,R,1,30
21,0,2118.937,0,5,0,100,701,4.5,5,2120.426,1,736175.694555,Aud,Right,2015-07-30 16:04:00,30_7_2015 level5_100_cooling 16_4 log,37.0,8.0,1311,0,0.0,,,0,0
22,0,2132.068,0,4,30,100,801,9.0,2,2133.219,0,736175.694704,Aud,Right,2015-07-30 16:04:00,30_7_2015 level5_100_cooling 16_4 log,37.0,8.0,1311,90,0.5235987755982988,R,R,1,60
23,0,2143.474,0,2,90,100,751,0.0,2,2144.203,1,736175.694832,Aud,Right,2015-07-30 16:04:00,30_7_2015 level5_100_cooling 16_4 log,37.0,8.0,1311,90,1.5707963267948966,R,R,1,0
24,0,2153.878,0,5,0,100,901,4.5,4,2154.763,0,736175.694953,Aud,Right,2015-07-30 16:04:00,30_7_2015 level5_100_cooling 16_4 log,37.0,9.0,1311,30,0.0,,R,0,30
25,0,2163.451,1,8,-90,100,951,0.0,8,2164.837,1,736175.695069,Aud,Right,2015-07-30 16:04:00,30_7_2015 level5_100_cooling 16_4 log,37.0,9.0,1311,-90,-1.5707963267948966,L,L,1,0
26,0,2171.867,0,7,-60,100,501,9.0,8,2175.765,0,736175.695196,Aud,Right,2015-07-30 16:04:00,30_7_2015 level5_100_cooling 16_4 log,37.0,9.0,1311,-90,-1.0471975511965976,L,L,1,30
27,0,2196.531,0,6,-30,100,651,4.5,6,2197.765,1,736175.695451,Aud,Right,2015-07-30 16:04:00,30_7_2015 level5_100_cooling 16_4 log,37.0,9.0,1311,-30,-0.5235987755982988,L,L,1,0
28,0,2215.51,0,4,30,100,551,9.0,3,2217.092,0,736175.695675,Aud,Right,2015-07-30 16:04:00,30_7_2015 level5_100_cooling 16_4 log,37.0,9.0,1311,60,0.5235987755982988,R,R,1,30
29,0,2232.966,0,3,60,100,851,9.0,4,2234.602,0,736175.695877,Aud,Right,2015-07-30 16:04:00,30_7_2015 level5_100_cooling 16_4 log,37.0,9.0,1311,30,1.0471975511965976,R,R,1,30
30,0,2245.795,0,4,30,100,1001,0.0,2,2246.813,0,736175.696018,Aud,Right,2015-07-30 16:04:00,30_7_2015 level5_100_cooling 16_4 log,37.0,9.0,1311,90,0.5235987755982988,R,R,1,60
31,0,2259.427,0,7,-60,100,501,9.0,7,2260.495,1,736175.696177,Aud,Right,2015-07-30 16:04:00,30_7_2015 level5_100_cooling 16_4 log,37.0,9.0,1311,-60,-1.0471975511965976,L,L,1,0
32,0,2267.372,0,3,60,100,801,0.0,2,2268.986,0,736175.696275,Aud,Right,2015-07-30 16:04:00,30_7_2015 level5_100_cooling 16_4 log,37.0,8.0,1311,90,1.0471975511965976,R,R,1,30
33,0,2282.767,0,8,-90,100,751,4.5,8,2283.593,1,736175.696444,Aud,Right,2015-07-30 16:04:00,30_7_2015 level5_100_cooling 16_4 log,37.0,8.0,1311,-90,-1.5707963267948966,L,L,1,0
34,0,2292.921,0,2,90,100,701,9.0,2,2294.311,1,736175.696568,Aud,Right,2015-07-30 16:04:00,30_7_2015 level5_100_cooling 16_4 log,37.0,9.0,1311,90,1.5707963267948966,R,R,1,0
35,0,2304.211,1,7,-60,100,851,4.5,8,2305.131,0,736175.696693,Aud,Right,2015-07-30 16:04:00,30_7_2015 level5_100_cooling 16_4 log,37.0,9.0,1311,-90,-1.0471975511965976,L,L,1,30
36,0,2338.554,0,4,30,100,1001,0.0,3,2339.55,0,736175.697091,Aud,Right,2015-07-30 16:04:00,30_7_2015 level5_100_cooling 16_4 log,37.0,9.0,1311,60,0.5235987755982988,R,R,1,30
37,0,2350.136,0,2,90,100,901,4.5,2,2350.813,1,736175.697224,Aud,Right,2015-07-30 16:04:00,30_7_2015 level5_100_cooling 16_4 log,37.0,9.0,1311,90,1.5707963267948966,R,R,1,0
38,0,2359.46,0,6,-30,100,651,9.0,6,2360.654,1,736175.697335,Aud,Right,2015-07-30 16:04:00,30_7_2015 level5_100_cooling 16_4 log,37.0,9.0,1311,-30,-0.5235987755982988,L,L,1,0
39,0,2373.948,0,8,-90,100,601,9.0,8,2374.882,1,736175.697501,Aud,Right,2015-07-30 16:04:00,30_7_2015 level5_100_cooling 16_4 log,37.0,9.0,1311,-90,-1.5707963267948966,L,L,1,0
40,0,2382.71,0,5,0,100,951,4.5,5,2384.046,1,736175.697606,Aud,Right,2015-07-30 16:04:00,30_7_2015 level5_100_cooling 16_4 log,37.0,9.0,1311,0,0.0,,,0,0
41,0,2386.516,0,6,-30,100,551,9.0,6,2387.573,1,736175.697648,Aud,Right,2015-07-30 16:04:00,30_7_2015 level5_100_cooling 16_4 log,37.0,10.0,1311,-30,-0.5235987755982988,L,L,1,0
42,0,2398.031,0,5,0,100,701,0.0,4,2399.017,0,736175.69778,Aud,Right,2015-07-30 16:04:00,30_7_2015 level5_100_cooling 16_4 log,37.0,10.0,1311,30,0.0,,R,0,30
43,0,2410.243,0,7,-60,100,601,4.5,8,2410.933,0,736175.697919,Aud,Right,2015-07-30 16:04:00,30_7_2015 level5_100_cooling 16_4 log,37.0,10.0,1311,-90,-1.0471975511965976,L,L,1,30
44,0,2419.596,0,4,30,100,651,0.0,2,2420.857,0,736175.698033,Aud,Right,2015-07-30 16:04:00,30_7_2015 level5_100_cooling 16_4 log,37.0,9.0,1311,90,0.5235987755982988,R,R,1,60
45,0,2433.786,1,4,30,100,901,9.0,3,2434.724,0,736175.698193,Aud,Right,2015-07-30 16:04:00,30_7_2015 level5_100_cooling 16_4 log,37.0,9.0,1311,60,0.5235987755982988,R,R,1,30
46,0,2445.045,0,2,90,100,501,4.5,3,2446.513,0,736175.69833,Aud,Right,2015-07-30 16:04:00,30_7_2015 level5_100_cooling 16_4 log,37.0,9.0,1311,60,1.5707963267948966,R,R,1,30
47,0,2458.295,0,5,0,100,951,4.5,5,2459.27,1,736175.698477,Aud,Right,2015-07-30 16:04:00,30_7_2015 level5_100_cooling 16_4 log,37.0,9.0,1311,0,0.0,,,0,0
48,0,2469.994,0,8,-90,100,851,9.0,8,2470.829,1,736175.698611,Aud,Right,2015-07-30 16:04:00,30_7_2015 level5_100_cooling 16_4 log,37.0,9.0,1311,-90,-1.5707963267948966,L,L,1,0
49,0,2480.881,0,6,-30,100,1001,4.5,7,2481.971,0,736175.69874,Aud,Right,2015-07-30 16:04:00,30_7_2015 level5_100_cooling 16_4 log,37.0,9.0,1311,-60,-0.5235987755982988,L,L,1,30
50,0,2493.734,0,7,-60,100,751,9.0,7,2494.767,1,736175.698889,Aud,Right,2015-07-30 16:04:00,30_7_2015 level5_100_cooling 16_4 log,37.0,9.0,1311,-60,-1.0471975511965976,L,L,1,0
51,0,2501.711,0,5,0,100,551,4.5,5,2502.82,1,736175.698981,Aud,Right,2015-07-30 16:04:00,30_7_2015 level5_100_cooling 16_4 log,37.0,9.0,1311,0,0.0,,,0,0
52,0,2516.056,0,6,-30,100,501,0.0,6,2517.262,1,736175.699149,Aud,Right,2015-07-30 16:04:00,30_7_2015 level5_100_cooling 16_4 log,37.0,9.0,1311,-30,-0.5235987755982988,L,L,1,0
53,0,2527.077,0,3,60,100,851,4.5,3,2527.844,1,736175.699271,Aud,Right,2015-07-30 16:04:00,30_7_2015 level5_100_cooling 16_4 log,37.0,9.0,1311,60,1.0471975511965976,R,R,1,0
54,0,2535.998,0,2,90,100,601,0.0,3,2537.319,0,736175.69938,Aud,Right,2015-07-30 16:04:00,30_7_2015 level5_100_cooling 16_4 log,37.0,9.0,1311,60,1.5707963267948966,R,R,1,30
55,0,2546.796,0,3,60,100,701,9.0,2,2548.058,0,736175.699505,Aud,Right,2015-07-30 16:04:00,30_7_2015 level5_100_cooling 16_4 log,37.0,9.0,1311,90,1.0471975511965976,R,R,1,30
56,0,2567.982,0,8,-90,100,951,4.5,8,2568.703,1,736175.699745,Aud,Right,2015-07-30 16:04:00,30_7_2015 level5_100_cooling 16_4 log,37.0,9.0,1311,-90,-1.5707963267948966,L,L,1,0
57,0,2575.517,0,2,90,100,1001,9.0,2,2576.753,1,736175.699837,Aud,Right,2015-07-30 16:04:00,30_7_2015 level5_100_cooling 16_4 log,37.0,9.0,1311,90,1.5707963267948966,R,R,1,0
58,0,2585.551,0,6,-30,100,751,4.5,6,2586.634,1,736175.699951,Aud,Right,2015-07-30 16:04:00,30_7_2015 level5_100_cooling 16_4 log,37.0,9.0,1311,-30,-0.5235987755982988,L,L,1,0
59,0,2596.677,0,7,-60,100,651,0.0,7,2597.905,1,736175.700082,Aud,Right,2015-07-30 16:04:00,30_7_2015 level5_100_cooling 16_4 log,37.0,9.0,1311,-60,-1.0471975511965976,L,L,1,0
60,0,2604.794,0,5,0,100,901,4.5,5,2606.054,1,736175.700175,Aud,Right,2015-07-30 16:04:00,30_7_2015 level5_100_cooling 16_4 log,37.0,9.0,1311,0,0.0,,,0,0
61,0,2617.312,0,4,30,100,601,0.0,5,2618.583,0,736175.700321,Aud,Right,2015-07-30 16:04:00,30_7_2015 level5_100_cooling 16_4 log,37.0,9.0,1311,0,0.5235987755982988,R,,0,30
62,0,2626.344,0,2,90,100,801,9.0,3,2627.108,0,736175.70042,Aud,Right,2015-07-30 16:04:00,30_7_2015 level5_100_cooling 16_4 log,37.0,9.0,1311,60,1.5707963267948966,R,R,1,30
63,0,2637.605,0,8,-90,100,701,4.5,8,2638.68,1,736175.700553,Aud,Right,2015-07-30 16:04:00,30_7_2015 level5_100_cooling 16_4 log,37.0,9.0,1311,-90,-1.5707963267948966,L,L,1,0
64,0,2646.077,0,3,60,100,751,0.0,8,2647.156,0,736175.700651,Aud,Right,2015-07-30 16:04:00,30_7_2015 level5_100_cooling 16_4 log,37.0,8.0,1311,-90,1.0471975511965976,R,L,0,150
65,0,2655.394,0,7,-60,100,501,0.0,7,2656.347,1,736175.700758,Aud,Right,2015-07-30 16:04:00,30_7_2015 level5_100_cooling 16_4 log,37.0,8.0,1311,-60,-1.0471975511965976,L,L,1,0
66,0,2664.546,0,4,30,100,1001,9.0,6,2665.563,0,736175.700865,Aud,Right,2015-07-30 16:04:00,30_7_2015 level5_100_cooling 16_4 log,37.0,8.0,1311,-30,0.5235987755982988,R,L,0,60
67,0,2673.936,0,6,-30,100,851,4.5,6,2674.771,1,736175.700971,Aud,Right,2015-07-30 16:04:00,30_7_2015 level5_100_cooling 16_4 log,37.0,8.0,1311,-30,-0.5235987755982988,L,L,1,0
68,0,2684.861,0,5,0,100,901,0.0,6,2685.745,0,736175.701098,Aud,Right,2015-07-30 16:04:00,30_7_2015 level5_100_cooling 16_4 log,37.0,9.0,1311,-30,0.0,,L,0,30
69,0,2692.304,0,3,60,100,551,4.5,3,2693.149,1,736175.701184,Aud,Right,2015-07-30 16:04:00,30_7_2015 level5_100_cooling 16_4 log,37.0,9.0,1311,60,1.0471975511965976,R,R,1,0
70,0,2700.164,0,8,-90,100,651,9.0,8,2701.378,1,736175.70128,Aud,Right,2015-07-30 16:04:00,30_7_2015 level5_100_cooling 16_4 log,37.0,9.0,1311,-90,-1.5707963267948966,L,L,1,0
71,0,2707.572,0,8,-90,100,651,9.0,8,2708.561,1,736175.701362,Aud,Right,2015-07-30 16:04:00,30_7_2015 level5_100_cooling 16_4 log,37.0,9.0,1311,-90,-1.5707963267948966,L,L,1,0
72,0,2714.569,1,5,0,100,701,4.5,6,2715.58,0,736175.701444,Aud,Right,2015-07-30 16:04:00,30_7_2015 level5_100_cooling 16_4 log,37.0,9.0,1311,-30,0.0,,L,0,30
73,0,2722.738,0,8,-90,100,851,0.0,8,2723.634,1,736175.701537,Aud,Right,2015-07-30 16:04:00,30_7_2015 level5_100_cooling 16_4 log,37.0,9.0,1311,-90,-1.5707963267948966,L,L,1,0
74,0,2731.396,0,5,0,100,801,9.0,4,2733.547,0,736175.701651,Aud,Right,2015-07-30 16:04:00,30_7_2015 level5_100_cooling 16_4 log,37.0,9.0,1311,30,0.0,,R,0,30
75,0,2751.218,0,7,-60,100,1001,0.0,7,2752.809,1,736175.701875,Aud,Right,2015-07-30 16:04:00,30_7_2015 level5_100_cooling 16_4 log,37.0,9.0,1311,-60,-1.0471975511965976,L,L,1,0
76,0,2762.387,0,7,-60,100,551,9.0,8,2763.167,0,736175.701995,Aud,Right,2015-07-30 16:04:00,30_7_2015 level5_100_cooling 16_4 log,37.0,9.0,1311,-90,-1.0471975511965976,L,L,1,30
77,0,2771.4,0,3,60,100,901,4.5,2,2772.759,0,736175.702105,Aud,Right,2015-07-30 16:04:00,30_7_2015 level5_100_cooling 16_4 log,37.0,9.0,1311,90,1.0471975511965976,R,R,1,30
78,0,2785.761,0,2,90,100,951,0.0,2,2787.007,1,736175.702271,Aud,Right,2015-07-30 16:04:00,30_7_2015 level5_100_cooling 16_4 log,37.0,9.0,1311,90,1.5707963267948966,R,R,1,0
79,0,2796.424,1,4,30,100,601,0.0,3,2797.554,0,736175.702392,Aud,Right,2015-07-30 16:04:00,30_7_2015 level5_100_cooling 16_4 log,37.0,9.0,1311,60,0.5235987755982988,R,R,1,30
80,0,2808.072,0,3,60,100,501,4.5,5,2809.016,0,736175.702525,Aud,Right,2015-07-30 16:04:00,30_7_2015 level5_100_cooling 16_4 log,37.0,9.0,1311,0,1.0471975511965976,R,,0,60
81,0,2817.696,0,6,-30,100,501,9.0,7,2819.233,0,736175.702643,Aud,Right,2015-07-30 16:04:00,30_7_2015 level5_100_cooling 16_4 log,37.0,9.0,1311,-60,-0.5235987755982988,L,L,1,30
82,0,2832.479,0,2,90,100,801,0.0,2,2833.081,1,736175.702807,Aud,Right,2015-07-30 16:04:00,30_7_2015 level5_100_cooling 16_4 log,37.0,9.0,1311,90,1.5707963267948966,R,R,1,0
83,0,2842.076,0,4,30,100,701,4.5,3,2843.775,0,736175.702927,Aud,Right,2015-07-30 16:04:00,30_7_2015 level5_100_cooling 16_4 log,37.0,9.0,1311,60,0.5235987755982988,R,R,1,30
84,0,2862.198,0,6,-30,100,551,9.0,6,2863.183,1,736175.703152,Aud,Right,2015-07-30 16:04:00,30_7_2015 level5_100_cooling 16_4 log,37.0,9.0,1311,-30,-0.5235987755982988,L,L,1,0
85,0,2872.674,0,7,-60,100,851,9.0,8,2874.074,0,736175.703279,Aud,Right,2015-07-30 16:04:00,30_7_2015 level5_100_cooling 16_4 log,37.0,9.0,1311,-90,-1.0471975511965976,L,L,1,30
86,0,2884.53,0,2,90,100,651,4.5,2,2885.269,1,736175.703409,Aud,Right,2015-07-30 16:04:00,30_7_2015 level5_100_cooling 16_4 log,37.0,9.0,1311,90,1.5707963267948966,R,R,1,0
87,0,2894.519,0,4,30,100,1001,9.0,6,2895.293,0,736175.703524,Aud,Right,2015-07-30 16:04:00,30_7_2015 level5_100_cooling 16_4 log,37.0,9.0,1311,-30,0.5235987755982988,R,L,0,60
88,0,2902.823,0,7,-60,100,601,0.0,8,2903.697,0,736175.703621,Aud,Right,2015-07-30 16:04:00,30_7_2015 level5_100_cooling 16_4 log,37.0,9.0,1311,-90,-1.0471975511965976,L,L,1,30
89,0,2916.232,0,6,-30,100,951,9.0,6,2917.217,1,736175.703777,Aud,Right,2015-07-30 16:04:00,30_7_2015 level5_100_cooling 16_4 log,37.0,9.0,1311,-30,-0.5235987755982988,L,L,1,0
90,0,2926.192,0,3,60,100,901,4.5,4,2927.215,0,736175.703894,Aud,Right,2015-07-30 16:04:00,30_7_2015 level5_100_cooling 16_4 log,37.0,9.0,1311,30,1.0471975511965976,R,R,1,30
91,0,2934.373,0,3,60,100,951,9.0,3,2935.162,1,736175.703986,Aud,Right,2015-07-30 16:04:00,30_7_2015 level5_100_cooling 16_4 log,37.0,9.0,1311,60,1.0471975511965976,R,R,1,0
92,0,2942.326,1,5,0,100,851,4.5,5,2943.445,1,736175.704081,Aud,Right,2015-07-30 16:04:00,30_7_2015 level5_100_cooling 16_4 log,37.0,9.0,1311,0,0.0,,,0,0
93,0,2952.28,0,8,-90,100,901,4.5,8,2953.316,1,736175.704195,Aud,Right,2015-07-30 16:04:00,30_7_2015 level5_100_cooling 16_4 log,37.0,9.0,1311,-90,-1.5707963267948966,L,L,1,0
94,0,2959.742,0,4,30,100,801,0.0,2,2961.02,0,736175.704284,Aud,Right,2015-07-30 16:04:00,30_7_2015 level5_100_cooling 16_4 log,37.0,9.0,1311,90,0.5235987755982988,R,R,1,60
95,0,2969.512,0,8,-90,100,651,0.0,8,2970.29,1,736175.704392,Aud,Right,2015-07-30 16:04:00,30_7_2015 level5_100_cooling 16_4 log,37.0,9.0,1311,-90,-1.5707963267948966,L,L,1,0
96,0,2977.799,0,5,0,100,1001,9.0,5,2978.883,1,736175.704492,Aud,Right,2015-07-30 16:04:00,30_7_2015 level5_100_cooling 16_4 log,37.0,9.0,1311,0,0.0,,,0,0
97,0,2986.31,0,2,90,100,551,9.0,2,2987.728,1,736175.704594,Aud,Right,2015-07-30 16:04:00,30_7_2015 level5_100_cooling 16_4 log,37.0,9.0,1311,90,1.5707963267948966,R,R,1,0
98,0,2996.81,0,6,-30,100,601,0.0,6,2997.727,1,736175.704709,Aud,Right,2015-07-30 16:04:00,30_7_2015 level5_100_cooling 16_4 log,37.0,9.0,1311,-30,-0.5235987755982988,L,L,1,0
99,0,3006.011,0,2,90,100,701,0.0,3,3006.91,0,736175.704816,Aud,Right,2015-07-30 16:04:00,30_7_2015 level5_100_cooling 16_4 log,37.0,9.0,1311,60,1.5707963267948966,R,R,1,30
100,0,3022.11,0,2,90,100,751,9.0,2,3023.13,1,736175.705003,Aud,Right,2015-07-30 16:04:00,30_7_2015 level5_100_cooling 16_4 log,37.0,9.0,1311,90,1.5707963267948966,R,R,1,0
101,0,3031.651,0,4,30,100,801,0.0,2,3033.108,0,736175.705119,Aud,Right,2015-07-30 16:04:00,30_7_2015 level5_100_cooling 16_4 log,37.0,9.0,1311,90,0.5235987755982988,R,R,1,60
102,0,3043.992,0,6,-30,100,951,9.0,8,3044.825,0,736175.705254,Aud,Right,2015-07-30 16:04:00,30_7_2015 level5_100_cooling 16_4 log,37.0,9.0,1311,-90,-0.5235987755982988,L,L,1,60
103,0,3055.983,0,7,-60,100,551,4.5,6,3057.063,0,736175.705396,Aud,Right,2015-07-30 16:04:00,30_7_2015 level5_100_cooling 16_4 log,37.0,9.0,1311,-30,-1.0471975511965976,L,L,1,30
104,0,3067.297,0,4,30,100,501,9.0,2,3068.569,0,736175.70553,Aud,Right,2015-07-30 16:04:00,30_7_2015 level5_100_cooling 16_4 log,37.0,9.0,1311,90,0.5235987755982988,R,R,1,60
105,0,3083.55,0,3,60,100,1001,4.5,2,3084.28,0,736175.705712,Aud,Right,2015-07-30 16:04:00,30_7_2015 level5_100_cooling 16_4 log,37.0,9.0,1311,90,1.0471975511965976,R,R,1,30
106,0,3092.668,0,3,60,100,751,0.0,3,3093.499,1,736175.705818,Aud,Right,2015-07-30 16:04:00,30_7_2015 level5_100_cooling 16_4 log,37.0,9.0,1311,60,1.0471975511965976,R,R,1,0
107,0,3100.875,1,5,0,100,901,0.0,4,3101.861,0,736175.705914,Aud,Right,2015-07-30 16:04:00,30_7_2015 level5_100_cooling 16_4 log,37.0,9.0,1311,30,0.0,,R,0,30
108,0,3113.632,0,8,-90,100,851,9.0,8,3114.557,1,736175.706061,Aud,Right,2015-07-30 16:04:00,30_7_2015 level5_100_cooling 16_4 log,37.0,9.0,1311,-90,-1.5707963267948966,L,L,1,0
