Condition,originalFile,Trial,CorrectionTrial,StartTime,CenterReward,SpkrIdx,SpkrPos,duration,HoldTime,Atten,Response,RespTime,Correct,ComputerTime,Modality,SessionDate,LeftTemperature,RightTemperature,fNum,ResponseAngle,Spkr_Rad,spkr_hemifield,resp_hemifield,LatCorrect,Error
Left,25_10_2016 level15_700_Robin 8_27 Left_T9,9,0,766.011,0,2,90,700,1001,9.0,3,767.783,0,736628.361144,Aud,2016-10-25 08:27:00,11.0,36.0,1509,60,1.5707963267948966,R,R,1,30
Left,25_10_2016 level15_700_Robin 8_27 Left_T9,12,0,791.343,0,7,-60,700,1021,9.0,8,793.516,0,736628.361442,Aud,2016-10-25 08:27:00,11.0,36.0,1509,-90,-1.0471975511965976,L,L,1,30
Left,25_10_2016 level15_700_Robin 8_27 Left_T9,16,0,838.148,0,6,-30,700,1101,0.0,7,840.204,0,736628.361983,Aud,2016-10-25 08:27:00,11.0,36.0,1509,-60,-0.5235987755982988,L,L,1,30
Left,25_10_2016 level15_700_Robin 8_27 Left_T9,22,0,898.784,0,3,60,700,1041,0.0,2,906.248,0,736628.362747,Aud,2016-10-25 08:27:00,8.5,36.0,1509,90,1.0471975511965976,R,R,1,30
Left,25_10_2016 level15_700_Robin 8_27 Left_T9,28,0,968.885,0,4,30,700,1061,4.5,2,970.868,0,736628.363494,Aud,2016-10-25 08:27:00,8.1,36.0,1509,90,0.5235987755982988,R,R,1,60
Left,25_10_2016 level15_700_Robin 8_27 Left_T9,30,0,1014.382,0,7,-60,700,1121,9.0,4,1019.053,0,736628.364052,Aud,2016-10-25 08:27:00,8.1,36.0,1509,30,-1.0471975511965976,L,R,0,90
Left,25_10_2016 level15_700_Robin 8_27 Left_T9,34,0,1063.689,0,6,-30,700,1101,0.0,7,1065.209,0,736628.364587,Aud,2016-10-25 08:27:00,8.1,36.0,1509,-60,-0.5235987755982988,L,L,1,30
Left,25_10_2016 level15_700_Robin 8_27 Left_T9,40,0,1124.637,0,4,30,700,1201,9.0,4,1126.279,1,736628.365293,Aud,2016-10-25 08:27:00,10.4,36.0,1509,30,0.5235987755982988,R,R,1,0
Left,25_10_2016 level15_700_Robin 8_27 Left_T9,41,0,1142.552,0,8,-90,700,1161,0.0,8,1144.026,1,736628.365499,Aud,2016-10-25 08:27:00,9.6,36.0,1509,-90,-1.5707963267948966,L,L,1,0
Left,25_10_2016 level15_700_Robin 8_27 Left_T9,42,0,1154.547,0,4,30,700,1141,9.0,4,1155.995,1,736628.365638,Aud,2016-10-25 08:27:00,9.6,36.0,1509,30,0.5235987755982988,R,R,1,0
Left,25_10_2016 level15_700_Robin 8_27 Left_T9,43,0,1172.987,0,3,60,700,1081,4.5,4,1174.586,0,736628.365852,Aud,2016-10-25 08:27:00,9.6,36.0,1509,30,1.0471975511965976,R,R,1,30
Left,25_10_2016 level15_700_Robin 8_27 Left_T9,46,0,1218.549,0,2,90,700,1181,9.0,4,1221.777,0,736628.366398,Aud,2016-10-25 08:27:00,9.4,36.0,1509,30,1.5707963267948966,R,R,1,60
Left,25_10_2016 level15_700_Robin 8_27 Left_T9,48,0,1243.993,0,8,-90,700,1121,4.5,8,1246.001,1,736628.36668,Aud,2016-10-25 08:27:00,9.4,36.0,1509,-90,-1.5707963267948966,L,L,1,0
Left,25_10_2016 level15_700_Robin 8_27 Left_T9,49,0,1256.281,0,2,90,700,1061,9.0,4,1258.22,0,736628.366821,Aud,2016-10-25 08:27:00,9.4,36.0,1509,30,1.5707963267948966,R,R,1,60
Left,25_10_2016 level15_700_Robin 8_27 Left_T9,52,0,1285.509,0,3,60,700,1021,0.0,6,1287.359,0,736628.367158,Aud,2016-10-25 08:27:00,9.2,36.0,1509,-30,1.0471975511965976,R,L,0,90
Left,25_10_2016 level15_700_Robin 8_27 Left_T9,55,0,1324.836,0,7,-60,700,1081,4.5,8,1326.596,0,736628.367612,Aud,2016-10-25 08:27:00,9.2,36.0,1509,-90,-1.0471975511965976,L,L,1,30
Left,25_10_2016 level15_700_Robin 8_27 Left_T9,58,0,1354.999,0,7,-60,700,1141,0.0,7,1356.408,1,736628.367957,Aud,2016-10-25 08:27:00,9.2,36.0,1509,-60,-1.0471975511965976,L,L,1,0
Left,25_10_2016 level15_700_Robin 8_27 Left_T9,59,0,1365.843,0,7,-60,700,1181,9.0,7,1367.33,1,736628.368083,Aud,2016-10-25 08:27:00,9.2,36.0,1509,-60,-1.0471975511965976,L,L,1,0
Left,25_10_2016 level15_700_Robin 8_27 Left_T9,60,0,1382.239,0,4,30,700,1041,9.0,4,1383.996,1,736628.368277,Aud,2016-10-25 08:27:00,9.2,36.0,1509,30,0.5235987755982988,R,R,1,0
Left,25_10_2016 level15_700_Robin 8_27 Left_T9,61,0,1396.857,0,8,-90,700,1201,4.5,8,1399.086,1,736628.36845,Aud,2016-10-25 08:27:00,9.2,36.0,1509,-90,-1.5707963267948966,L,L,1,0
Left,25_10_2016 level15_700_Robin 8_27 Left_T9,62,0,1409.684,0,3,60,700,1101,9.0,6,1411.245,0,736628.368592,Aud,2016-10-25 08:27:00,9.2,36.0,1509,-30,1.0471975511965976,R,L,0,90
Left,25_10_2016 level15_700_Robin 8_27 Left_T9,67,0,1449.281,0,4,30,700,1001,4.5,2,1451.365,0,736628.369056,Aud,2016-10-25 08:27:00,9.2,36.0,1509,90,0.5235987755982988,R,R,1,60
Left,25_10_2016 level15_700_Robin 8_27 Left_T9,84,0,1610.281,0,6,-30,700,1101,0.0,6,1611.444,1,736628.370909,Aud,2016-10-25 08:27:00,9.2,36.0,1509,-30,-0.5235987755982988,L,L,1,0
Left,25_10_2016 level15_700_Robin 8_27 Left_T9,85,0,1620.175,0,6,-30,700,1161,4.5,7,1621.797,0,736628.371028,Aud,2016-10-25 08:27:00,9.2,36.0,1509,-60,-0.5235987755982988,L,L,1,30
Left,25_10_2016 level15_700_Robin 8_27 Left_T9,90,0,1689.596,0,2,90,700,1121,4.5,8,1694.851,0,736628.371874,Aud,2016-10-25 08:27:00,9.2,36.0,1509,-90,1.5707963267948966,R,L,0,180
Left,25_10_2016 level15_700_Robin 8_27 Left_T9,93,0,1723.536,0,2,90,700,1061,0.0,6,1724.997,0,736628.372222,Aud,2016-10-25 08:27:00,9.2,36.0,1509,-30,1.5707963267948966,R,L,0,120
Left,25_10_2016 level15_700_Robin 8_27 Left_T9,95,0,1767.35,0,3,60,700,1001,0.0,2,1769.53,0,736628.372739,Aud,2016-10-25 08:27:00,9.2,36.0,1509,90,1.0471975511965976,R,R,1,30
Left,25_10_2016 level15_700_Robin 8_27 Left_T9,98,0,1801.349,0,8,-90,700,1041,4.5,3,1806.976,0,736628.373171,Aud,2016-10-25 08:27:00,9.2,36.0,1509,60,-1.5707963267948966,L,R,0,150
Left,25_10_2016 level15_700_Robin 8_27 Left_T9,100,0,1834.48,0,7,-60,700,1141,0.0,8,1836.034,0,736628.373508,Aud,2016-10-25 08:27:00,,,1509,-90,-1.0471975511965976,L,L,1,30
Left,25_10_2016 level15_700_Robin 8_27 Left_T9,104,0,1982.931,0,4,30,700,1081,9.0,8,1987.08,0,736628.375256,Aud,2016-10-25 08:27:00,,,1509,-90,0.5235987755982988,R,L,0,120
Left,23_10_2016 level15_700_Robin 15_57 Left_T7,7,0,1064.455,0,3,60,700,1021,9.0,2,1072.85,0,736626.677392,Aud,2016-10-23 15:57:00,11.0,36.0,1509,90,1.0471975511965976,R,R,1,30
Left,23_10_2016 level15_700_Robin 15_57 Left_T7,9,0,1119.049,0,3,60,700,1201,4.5,2,1125.304,0,736626.677999,Aud,2016-10-23 15:57:00,11.0,36.0,1509,90,1.0471975511965976,R,R,1,30
Left,23_10_2016 level15_700_Robin 15_57 Left_T7,12,0,1176.847,0,4,30,700,1141,9.0,4,1178.244,1,736626.678613,Aud,2016-10-23 15:57:00,9.3,36.0,1509,30,0.5235987755982988,R,R,1,0
Left,23_10_2016 level15_700_Robin 15_57 Left_T7,13,0,1191.439,0,8,-90,700,1181,0.0,8,1192.674,1,736626.67878,Aud,2016-10-23 15:57:00,9.3,36.0,1509,-90,-1.5707963267948966,L,L,1,0
Left,23_10_2016 level15_700_Robin 15_57 Left_T7,14,0,1202.678,0,7,-60,700,1081,4.5,4,1204.322,0,736626.678915,Aud,2016-10-23 15:57:00,9.3,36.0,1509,30,-1.0471975511965976,L,R,0,90
Left,23_10_2016 level15_700_Robin 15_57 Left_T7,22,0,1385.881,0,8,-90,700,1041,0.0,7,1387.469,0,736626.681034,Aud,2016-10-23 15:57:00,9.0,36.0,1509,-60,-1.5707963267948966,L,L,1,30
Left,23_10_2016 level15_700_Robin 15_57 Left_T7,24,0,1414.393,0,6,-30,700,1061,9.0,7,1416.051,0,736626.681365,Aud,2016-10-23 15:57:00,9.0,36.0,1509,-60,-0.5235987755982988,L,L,1,30
Left,23_10_2016 level15_700_Robin 15_57 Left_T7,28,0,1473.269,1,6,-30,700,1161,9.0,3,1480.516,0,736626.682111,Aud,2016-10-23 15:57:00,9.0,36.0,1509,60,-0.5235987755982988,L,R,0,90
Left,23_10_2016 level15_700_Robin 15_57 Left_T7,32,0,1515.36,1,2,90,700,1101,4.5,2,1520.162,1,736626.68257,Aud,2016-10-23 15:57:00,9.0,36.0,1509,90,1.5707963267948966,R,R,1,0
Left,23_10_2016 level15_700_Robin 15_57 Left_T7,33,0,1531.995,0,2,90,700,1081,4.5,4,1533.315,0,736626.682722,Aud,2016-10-23 15:57:00,9.0,36.0,1509,30,1.5707963267948966,R,R,1,60
Left,23_10_2016 level15_700_Robin 15_57 Left_T7,36,0,1562.616,0,7,-60,700,1201,0.0,8,1564.689,0,736626.683085,Aud,2016-10-23 15:57:00,8.4,36.0,1509,-90,-1.0471975511965976,L,L,1,30
Left,23_10_2016 level15_700_Robin 15_57 Left_T7,40,0,1597.515,0,3,60,700,1041,0.0,4,1598.827,0,736626.68348,Aud,2016-10-23 15:57:00,8.4,36.0,1509,30,1.0471975511965976,R,R,1,30
Left,23_10_2016 level15_700_Robin 15_57 Left_T7,46,0,1654.149,0,8,-90,700,1161,9.0,8,1655.625,1,736626.684137,Aud,2016-10-23 15:57:00,8.0,36.0,1509,-90,-1.5707963267948966,L,L,1,0
Left,23_10_2016 level15_700_Robin 15_57 Left_T7,47,0,1666.296,0,7,-60,700,1001,0.0,7,1667.808,1,736626.684278,Aud,2016-10-23 15:57:00,8.0,36.0,1509,-60,-1.0471975511965976,L,L,1,0
Left,23_10_2016 level15_700_Robin 15_57 Left_T7,48,0,1678.286,0,7,-60,700,1121,9.0,4,1681.845,0,736626.68444,Aud,2016-10-23 15:57:00,8.0,36.0,1509,30,-1.0471975511965976,L,R,0,90
Left,23_10_2016 level15_700_Robin 15_57 Left_T7,57,0,1766.953,0,4,30,700,1141,9.0,3,1768.2,0,736626.685441,Aud,2016-10-23 15:57:00,8.0,36.0,1509,60,0.5235987755982988,R,R,1,30
Left,23_10_2016 level15_700_Robin 15_57 Left_T7,60,0,1793.6,0,6,-30,700,1021,0.0,7,1795.203,0,736626.685752,Aud,2016-10-23 15:57:00,8.0,36.0,1509,-60,-0.5235987755982988,L,L,1,30
Left,23_10_2016 level15_700_Robin 15_57 Left_T7,68,0,1945.299,0,6,-30,700,1101,0.0,7,1947.135,0,736626.687511,Aud,2016-10-23 15:57:00,8.0,36.0,1509,-60,-0.5235987755982988,L,L,1,30
Left,23_10_2016 level15_700_Robin 15_57 Left_T7,70,0,1990.183,0,2,90,700,1181,9.0,3,1991.592,0,736626.688026,Aud,2016-10-23 15:57:00,8.0,36.0,1509,60,1.5707963267948966,R,R,1,30
Left,23_10_2016 level15_700_Robin 15_57 Left_T7,72,0,2010.385,0,8,-90,700,1041,0.0,8,2012.137,1,736626.688263,Aud,2016-10-23 15:57:00,7.9,36.0,1509,-90,-1.5707963267948966,L,L,1,0
Left,23_10_2016 level15_700_Robin 15_57 Left_T7,73,0,2024.773,0,2,90,700,1141,9.0,4,2026.191,0,736626.688427,Aud,2016-10-23 15:57:00,7.9,36.0,1509,30,1.5707963267948966,R,R,1,60
Left,23_10_2016 level15_700_Robin 15_57 Left_T7,77,0,2078.699,0,3,60,700,1001,4.5,6,2080.241,0,736626.689052,Aud,2016-10-23 15:57:00,7.9,36.0,1509,-30,1.0471975511965976,R,L,0,90
Left,23_10_2016 level15_700_Robin 15_57 Left_T7,82,0,2137.146,0,4,30,700,1201,0.0,4,2138.365,1,736626.689725,Aud,2016-10-23 15:57:00,7.9,36.0,1509,30,0.5235987755982988,R,R,1,0
Left,23_10_2016 level15_700_Robin 15_57 Left_T7,83,0,2148.959,0,7,-60,700,1021,4.5,8,2150.032,0,736626.689859,Aud,2016-10-23 15:57:00,7.9,36.0,1509,-90,-1.0471975511965976,L,L,1,30
Left,23_10_2016 level15_700_Robin 15_57 Left_T7,87,0,2199.012,1,4,30,700,1061,0.0,6,2202.972,0,736626.690473,Aud,2016-10-23 15:57:00,7.9,36.0,1509,-30,0.5235987755982988,R,L,0,60
Left,23_10_2016 level15_700_Robin 15_57 Left_T7,89,0,2227.932,0,3,60,700,1101,4.5,3,2229.22,1,736626.690776,Aud,2016-10-23 15:57:00,7.9,36.0,1509,60,1.0471975511965976,R,R,1,0
Left,23_10_2016 level15_700_Robin 15_57 Left_T7,90,0,2238.277,0,3,60,700,1081,0.0,2,2240.205,0,736626.690903,Aud,2016-10-23 15:57:00,7.9,36.0,1509,90,1.0471975511965976,R,R,1,30
Left,23_10_2016 level15_700_Robin 15_57 Left_T7,94,0,2290.828,0,2,90,700,1161,4.5,3,2292.787,0,736626.691512,Aud,2016-10-23 15:57:00,,,1509,60,1.5707963267948966,R,R,1,30
Left,23_10_2016 level15_700_Robin 15_57 Left_T7,98,0,2396.605,0,8,-90,700,1181,0.0,8,2401.5,1,736626.692771,Aud,2016-10-23 15:57:00,,,1509,-90,-1.5707963267948966,L,L,1,0
Left,24_10_2016 level15_700_Robin 15_53 Left_T16-20,17,0,1620.241,0,3,60,700,1041,4.5,2,1621.865,0,736627.681034,Aud,2016-10-24 15:53:00,,,1509,90,1.0471975511965976,R,R,1,30
Left,12_10_2016 level15_700_Robin 10_3 Left,2,0,247.915,0,7,-60,700,1121,9.0,8,250.648,0,736615.422026,Aud,2016-10-12 10:03:00,,,1509,-90,-1.0471975511965976,L,L,1,30
Left,12_10_2016 level15_700_Robin 10_3 Left,6,0,322.956,0,7,-60,700,1041,4.5,2,331.49,0,736615.422961,Aud,2016-10-12 10:03:00,11.0,37.0,1509,90,-1.0471975511965976,L,R,0,150
Left,12_10_2016 level15_700_Robin 10_3 Left,9,0,415.236,0,8,-90,700,1021,0.0,8,418.535,1,736615.423969,Aud,2016-10-12 10:03:00,11.0,37.0,1509,-90,-1.5707963267948966,L,L,1,0
Left,12_10_2016 level15_700_Robin 10_3 Left,10,0,432.958,0,6,-30,700,1201,4.5,7,434.694,0,736615.424156,Aud,2016-10-12 10:03:00,11.0,37.0,1509,-60,-0.5235987755982988,L,L,1,30
Left,12_10_2016 level15_700_Robin 10_3 Left,13,0,475.411,0,6,-30,700,1101,9.0,2,482.777,0,736615.424712,Aud,2016-10-12 10:03:00,11.0,37.0,1509,90,-0.5235987755982988,L,R,0,120
Left,12_10_2016 level15_700_Robin 10_3 Left,20,0,598.603,0,4,30,700,1061,0.0,3,606.245,0,736615.426141,Aud,2016-10-12 10:03:00,9.5,37.0,1509,60,0.5235987755982988,R,R,1,30
Left,12_10_2016 level15_700_Robin 10_3 Left,22,0,647.451,0,3,60,700,1141,0.0,4,649.771,0,736615.426645,Aud,2016-10-12 10:03:00,9.5,37.0,1509,30,1.0471975511965976,R,R,1,30
Left,12_10_2016 level15_700_Robin 10_3 Left,26,0,709.009,0,7,-60,700,1101,9.0,7,710.834,1,736615.427351,Aud,2016-10-12 10:03:00,9.5,37.0,1509,-60,-1.0471975511965976,L,L,1,0
Left,12_10_2016 level15_700_Robin 10_3 Left,27,0,719.364,0,3,60,700,1121,4.5,4,720.956,0,736615.427469,Aud,2016-10-12 10:03:00,9.5,37.0,1509,30,1.0471975511965976,R,R,1,30
Left,12_10_2016 level15_700_Robin 10_3 Left,34,0,811.714,0,2,90,700,1181,0.0,3,813.835,0,736615.428543,Aud,2016-10-12 10:03:00,8.9,37.0,1509,60,1.5707963267948966,R,R,1,30
Left,12_10_2016 level15_700_Robin 10_3 Left,37,0,942.538,0,8,-90,700,1161,0.0,8,944.758,1,736615.430059,Aud,2016-10-12 10:03:00,8.9,37.0,1509,-90,-1.5707963267948966,L,L,1,0
Left,12_10_2016 level15_700_Robin 10_3 Left,38,0,956.715,0,7,-60,700,1001,9.0,8,960.772,0,736615.430245,Aud,2016-10-12 10:03:00,8.9,37.0,1509,-90,-1.0471975511965976,L,L,1,30
Left,12_10_2016 level15_700_Robin 10_3 Left,41,0,1082.521,0,6,-30,700,1041,9.0,2,1094.263,0,736615.43179,Aud,2016-10-12 10:03:00,,,1509,90,-0.5235987755982988,L,R,0,120
Left,26_10_2016 level15_700_Robin 10_22 Left_T23,26,0,1081.927,0,3,60,700,1141,4.5,7,1083.875,0,736629.444523,Aud,2016-10-26 10:22:00,11.0,36.0,1509,-60,1.0471975511965976,R,L,0,120
Left,26_10_2016 level15_700_Robin 10_22 Left_T23,28,0,1115.481,1,4,30,700,1201,0.0,3,1122.489,0,736629.44497,Aud,2016-10-26 10:22:00,11.0,36.0,1509,60,0.5235987755982988,R,R,1,30
Left,26_10_2016 level15_700_Robin 10_22 Left_T23,31,0,1164.869,0,4,30,700,1061,9.0,6,1166.466,0,736629.445479,Aud,2016-10-26 10:22:00,11.0,36.0,1509,-30,0.5235987755982988,R,L,0,60
Left,26_10_2016 level15_700_Robin 10_22 Left_T23,41,0,1319.327,0,6,-30,700,1181,4.5,7,1320.78,0,736629.447265,Aud,2016-10-26 10:22:00,9.5,36.0,1509,-60,-0.5235987755982988,L,L,1,30
Left,26_10_2016 level15_700_Robin 10_22 Left_T23,47,0,1419.918,0,8,-90,700,1161,4.5,8,1421.47,1,736629.44843,Aud,2016-10-26 10:22:00,9.5,36.0,1509,-90,-1.5707963267948966,L,L,1,0
Left,26_10_2016 level15_700_Robin 10_22 Left_T23,48,0,1434.817,0,7,-60,700,1121,9.0,8,1436.812,0,736629.448607,Aud,2016-10-26 10:22:00,9.5,36.0,1509,-90,-1.0471975511965976,L,L,1,30
Left,26_10_2016 level15_700_Robin 10_22 Left_T23,53,0,1514.189,0,7,-60,700,1141,0.0,8,1515.594,0,736629.44952,Aud,2016-10-26 10:22:00,9.4,36.0,1509,-90,-1.0471975511965976,L,L,1,30
Left,26_10_2016 level15_700_Robin 10_22 Left_T23,57,0,1599.621,0,3,60,700,1061,4.5,2,1605.449,0,736629.45056,Aud,2016-10-26 10:22:00,9.4,36.0,1509,90,1.0471975511965976,R,R,1,30
Left,26_10_2016 level15_700_Robin 10_22 Left_T23,61,0,1665.913,0,4,30,700,1001,9.0,4,1667.842,1,736629.451282,Aud,2016-10-26 10:22:00,10.2,36.0,1509,30,0.5235987755982988,R,R,1,0
Left,26_10_2016 level15_700_Robin 10_22 Left_T23,62,0,1677.072,0,8,-90,700,1021,4.5,4,1667.842,0,736629.45139,Aud,2016-10-26 10:22:00,10.2,36.0,1509,30,-1.5707963267948966,L,R,0,120
Left,26_10_2016 level15_700_Robin 10_22 Left_T23,66,0,1769.707,0,2,90,700,1101,0.0,3,1771.516,0,736629.452481,Aud,2016-10-26 10:22:00,10.2,36.0,1509,60,1.5707963267948966,R,R,1,30
Left,26_10_2016 level15_700_Robin 10_22 Left_T23,68,0,1790.411,0,8,-90,700,1081,9.0,7,1791.874,0,736629.452717,Aud,2016-10-26 10:22:00,10.2,36.0,1509,-60,-1.5707963267948966,L,L,1,30
Left,26_10_2016 level15_700_Robin 10_22 Left_T23,70,0,1810.018,0,7,-60,700,1041,4.5,8,1811.873,0,736629.452949,Aud,2016-10-26 10:22:00,10.2,36.0,1509,-90,-1.0471975511965976,L,L,1,30
Left,26_10_2016 level15_700_Robin 10_22 Left_T23,72,0,1836.759,0,3,60,700,1201,0.0,3,1838.141,1,736629.453252,Aud,2016-10-26 10:22:00,10.0,36.0,1509,60,1.0471975511965976,R,R,1,0
Left,26_10_2016 level15_700_Robin 10_22 Left_T23,73,0,1849.611,0,2,90,700,1201,4.5,2,1851.319,1,736629.453405,Aud,2016-10-26 10:22:00,10.0,36.0,1509,90,1.5707963267948966,R,R,1,0
Left,26_10_2016 level15_700_Robin 10_22 Left_T23,74,0,1864.172,0,6,-30,700,1081,9.0,8,1873.549,0,736629.453662,Aud,2016-10-26 10:22:00,10.0,36.0,1509,-90,-0.5235987755982988,L,L,1,60
Left,26_10_2016 level15_700_Robin 10_22 Left_T23,78,0,1925.822,0,6,-30,700,1141,9.0,7,1927.348,0,736629.454285,Aud,2016-10-26 10:22:00,10.0,36.0,1509,-60,-0.5235987755982988,L,L,1,30
Left,26_10_2016 level15_700_Robin 10_22 Left_T23,88,0,2056.336,0,4,30,700,1121,0.0,4,2058.28,1,736629.455801,Aud,2016-10-26 10:22:00,,,1509,30,0.5235987755982988,R,R,1,0
Left,26_10_2016 level15_700_Robin 10_22 Left_T23,89,0,2067.147,0,3,60,700,1101,9.0,2,2069.523,0,736629.45593,Aud,2016-10-26 10:22:00,,,1509,90,1.0471975511965976,R,R,1,30
Left,26_10_2016 level15_700_Robin 10_22 Left_T23,94,0,2129.6,0,4,30,700,1041,4.5,3,2131.28,0,736629.456646,Aud,2016-10-26 10:22:00,,,1509,60,0.5235987755982988,R,R,1,30
Left,26_10_2016 level15_700_Robin 10_22 Left_T23,98,0,2204.965,0,7,-60,700,1061,4.5,8,2206.682,0,736629.457518,Aud,2016-10-26 10:22:00,,,1509,-90,-1.0471975511965976,L,L,1,30
Left,26_10_2016 level15_700_Robin 10_22 Left_T23,104,0,2285.269,0,2,90,700,1161,0.0,3,2287.071,0,736629.458449,Aud,2016-10-26 10:22:00,,,1509,60,1.5707963267948966,R,R,1,30
Left,26_10_2016 level15_700_Robin 10_22 Left_T23,106,0,2302.617,0,3,60,700,1181,9.0,8,2303.839,0,736629.458643,Aud,2016-10-26 10:22:00,,,1509,-90,1.0471975511965976,R,L,0,150
Left,26_10_2016 level15_700_Robin 10_22 Left_T23,109,0,2363.444,0,6,-30,700,1021,4.5,2,2377.671,0,736629.459497,Aud,2016-10-26 10:22:00,,,1509,90,-0.5235987755982988,L,R,0,120
Right,11_10_2016 level15_700_Robin 8_32 RCool01,3,0,178.278,0,3,60,700,1041,9.0,4,187.418,0,736614.358074,Aud,2016-10-11 08:32:00,37.0,8.0,1509,30,1.0471975511965976,R,R,1,30
Right,11_10_2016 level15_700_Robin 8_32 RCool01,5,0,214.694,0,8,-90,700,1001,0.0,7,216.775,0,736614.358413,Aud,2016-10-11 08:32:00,37.0,8.0,1509,-60,-1.5707963267948966,L,L,1,30
Right,11_10_2016 level15_700_Robin 8_32 RCool01,8,0,268.872,0,3,60,700,1101,9.0,4,270.39,0,736614.359033,Aud,2016-10-11 08:32:00,37.0,8.0,1509,30,1.0471975511965976,R,R,1,30
Right,11_10_2016 level15_700_Robin 8_32 RCool01,11,0,299.815,1,7,-60,700,1121,4.5,2,307.728,0,736614.359466,Aud,2016-10-11 08:32:00,37.0,8.3,1509,90,-1.0471975511965976,L,R,0,150
Right,11_10_2016 level15_700_Robin 8_32 RCool01,15,0,365.981,0,4,30,700,1061,9.0,3,367.344,0,736614.360156,Aud,2016-10-11 08:32:00,37.0,8.3,1509,60,0.5235987755982988,R,R,1,30
Right,11_10_2016 level15_700_Robin 8_32 RCool01,19,0,408.819,0,2,90,700,1081,0.0,2,410.366,1,736614.360653,Aud,2016-10-11 08:32:00,37.0,8.3,1509,90,1.5707963267948966,R,R,1,0
Right,11_10_2016 level15_700_Robin 8_32 RCool01,20,0,423.193,0,4,30,700,1181,4.5,2,424.78,0,736614.36082,Aud,2016-10-11 08:32:00,37.0,8.3,1509,90,0.5235987755982988,R,R,1,60
Right,11_10_2016 level15_700_Robin 8_32 RCool01,25,0,483.678,0,7,-60,700,1021,9.0,7,486.774,1,736614.361538,Aud,2016-10-11 08:32:00,37.0,8.3,1509,-60,-1.0471975511965976,L,L,1,0
Right,11_10_2016 level15_700_Robin 8_32 RCool01,26,0,508.31,0,8,-90,700,1161,4.5,6,510.227,0,736614.36181,Aud,2016-10-11 08:32:00,37.0,8.3,1509,-30,-1.5707963267948966,L,L,1,60
Right,11_10_2016 level15_700_Robin 8_32 RCool01,28,0,534.995,0,6,-30,700,1161,4.5,8,536.783,0,736614.362116,Aud,2016-10-11 08:32:00,37.0,8.3,1509,-90,-0.5235987755982988,L,L,1,60
Right,11_10_2016 level15_700_Robin 8_32 RCool01,31,0,586.048,0,2,90,700,1001,0.0,2,587.73,1,736614.362707,Aud,2016-10-11 08:32:00,37.0,8.3,1509,90,1.5707963267948966,R,R,1,0
Right,11_10_2016 level15_700_Robin 8_32 RCool01,32,0,599.594,1,3,60,700,1141,4.5,2,606.58,0,736614.362924,Aud,2016-10-11 08:32:00,37.0,8.3,1509,90,1.0471975511965976,R,R,1,30
Right,11_10_2016 level15_700_Robin 8_32 RCool01,35,0,629.803,0,4,30,700,1021,9.0,4,631.615,1,736614.363215,Aud,2016-10-11 08:32:00,37.0,8.3,1509,30,0.5235987755982988,R,R,1,0
Right,11_10_2016 level15_700_Robin 8_32 RCool01,36,0,642.579,0,6,-30,700,1181,0.0,6,644.093,1,736614.363358,Aud,2016-10-11 08:32:00,37.0,8.3,1509,-30,-0.5235987755982988,L,L,1,0
Right,11_10_2016 level15_700_Robin 8_32 RCool01,37,0,656.001,0,2,90,700,1081,4.5,3,657.2,0,736614.363511,Aud,2016-10-11 08:32:00,37.0,8.3,1509,60,1.5707963267948966,R,R,1,30
Right,11_10_2016 level15_700_Robin 8_32 RCool01,40,0,682.724,0,7,-60,700,1201,4.5,6,683.982,0,736614.36382,Aud,2016-10-11 08:32:00,37.0,8.3,1509,-30,-1.0471975511965976,L,L,1,30
Right,11_10_2016 level15_700_Robin 8_32 RCool01,44,0,725.791,0,3,60,700,1041,0.0,3,727.272,1,736614.364321,Aud,2016-10-11 08:32:00,37.0,7.7,1509,60,1.0471975511965976,R,R,1,0
Right,11_10_2016 level15_700_Robin 8_32 RCool01,45,0,736.448,1,7,-60,700,1101,9.0,3,741.454,0,736614.364485,Aud,2016-10-11 08:32:00,37.0,7.7,1509,60,-1.0471975511965976,L,R,0,120
Right,11_10_2016 level15_700_Robin 8_32 RCool01,48,0,769.664,0,2,90,700,1061,4.5,3,771.163,0,736614.364829,Aud,2016-10-11 08:32:00,37.0,7.7,1509,60,1.5707963267948966,R,R,1,30
Right,11_10_2016 level15_700_Robin 8_32 RCool01,50,0,790.088,0,8,-90,700,1081,9.0,6,791.504,0,736614.365065,Aud,2016-10-11 08:32:00,37.0,7.7,1509,-30,-1.5707963267948966,L,L,1,60
Right,11_10_2016 level15_700_Robin 8_32 RCool01,53,0,825.347,0,4,30,700,1101,0.0,3,826.447,0,736614.365469,Aud,2016-10-11 08:32:00,37.0,7.7,1509,60,0.5235987755982988,R,R,1,30
Right,11_10_2016 level15_700_Robin 8_32 RCool01,55,0,848.845,0,6,-30,700,1041,0.0,4,851.492,0,736614.365759,Aud,2016-10-11 08:32:00,37.0,7.7,1509,30,-0.5235987755982988,L,R,0,60
Right,11_10_2016 level15_700_Robin 8_32 RCool01,57,0,868.855,1,8,-90,700,1201,4.5,2,874.652,0,736614.366027,Aud,2016-10-11 08:32:00,37.0,7.7,1509,90,-1.5707963267948966,L,R,0,180
Right,11_10_2016 level15_700_Robin 8_32 RCool01,60,0,905.367,0,2,90,700,1001,4.5,2,907.369,1,736614.366406,Aud,2016-10-11 08:32:00,37.0,7.7,1509,90,1.5707963267948966,R,R,1,0
Right,11_10_2016 level15_700_Robin 8_32 RCool01,61,0,918.105,0,7,-60,700,1181,9.0,6,919.461,0,736614.366546,Aud,2016-10-11 08:32:00,37.0,7.7,1509,-30,-1.0471975511965976,L,L,1,30
Right,11_10_2016 level15_700_Robin 8_32 RCool01,63,0,941.43,0,2,90,700,1061,0.0,2,942.808,1,736614.366816,Aud,2016-10-11 08:32:00,37.0,7.7,1509,90,1.5707963267948966,R,R,1,0
Right,11_10_2016 level15_700_Robin 8_32 RCool01,64,0,956.031,0,8,-90,700,1121,9.0,7,957.487,0,736614.366985,Aud,2016-10-11 08:32:00,37.0,7.7,1509,-60,-1.5707963267948966,L,L,1,30
Right,11_10_2016 level15_700_Robin 8_32 RCool01,66,0,979.69,1,6,-30,700,1161,4.5,7,985.254,0,736614.367307,Aud,2016-10-11 08:32:00,37.0,7.7,1509,-60,-0.5235987755982988,L,L,1,30
Right,11_10_2016 level15_700_Robin 8_32 RCool01,71,0,1033.603,0,3,60,700,1141,9.0,3,1037.274,1,736614.367909,Aud,2016-10-11 08:32:00,37.0,7.7,1509,60,1.0471975511965976,R,R,1,0
Right,11_10_2016 level15_700_Robin 8_32 RCool01,72,0,1045.517,0,4,30,700,1041,9.0,4,1047.469,1,736614.368027,Aud,2016-10-11 08:32:00,37.0,7.4,1509,30,0.5235987755982988,R,R,1,0
Right,11_10_2016 level15_700_Robin 8_32 RCool01,73,0,1058.722,0,8,-90,700,1121,0.0,7,1060.656,0,736614.36818,Aud,2016-10-11 08:32:00,37.0,7.4,1509,-60,-1.5707963267948966,L,L,1,30
Right,11_10_2016 level15_700_Robin 8_32 RCool01,75,0,1078.768,0,4,30,700,1061,4.5,3,1080.046,0,736614.368405,Aud,2016-10-11 08:32:00,37.0,7.4,1509,60,0.5235987755982988,R,R,1,30
Right,11_10_2016 level15_700_Robin 8_32 RCool01,78,0,1104.487,0,7,-60,700,1081,9.0,4,1109.137,0,736614.368741,Aud,2016-10-11 08:32:00,37.0,7.4,1509,30,-1.0471975511965976,L,R,0,90
Right,11_10_2016 level15_700_Robin 8_32 RCool01,82,0,1150.46,0,6,-30,700,1021,9.0,4,1152.003,0,736614.369238,Aud,2016-10-11 08:32:00,37.0,7.4,1509,30,-0.5235987755982988,L,R,0,60
Right,11_10_2016 level15_700_Robin 8_32 RCool01,86,0,1209.183,0,3,60,700,1001,4.5,3,1210.645,1,736614.369916,Aud,2016-10-11 08:32:00,37.0,7.4,1509,60,1.0471975511965976,R,R,1,0
Right,11_10_2016 level15_700_Robin 8_32 RCool01,87,0,1219.23,0,6,-30,700,1201,9.0,3,1220.476,0,736614.370029,Aud,2016-10-11 08:32:00,37.0,7.4,1509,60,-0.5235987755982988,L,R,0,90
Right,11_10_2016 level15_700_Robin 8_32 RCool01,90,0,1243.625,0,3,60,700,1101,4.5,3,1244.956,1,736614.370313,Aud,2016-10-11 08:32:00,37.0,7.4,1509,60,1.0471975511965976,R,R,1,0
Right,11_10_2016 level15_700_Robin 8_32 RCool01,91,0,1252.487,0,2,90,700,1181,9.0,2,1254.118,1,736614.370419,Aud,2016-10-11 08:32:00,37.0,7.4,1509,90,1.5707963267948966,R,R,1,0
Right,11_10_2016 level15_700_Robin 8_32 RCool01,92,0,1266.139,0,7,-60,700,1161,0.0,7,1267.454,1,736614.370573,Aud,2016-10-11 08:32:00,37.0,7.4,1509,-60,-1.0471975511965976,L,L,1,0
Right,11_10_2016 level15_700_Robin 8_32 RCool01,93,0,1276.027,0,3,60,700,1161,9.0,2,1277.854,0,736614.370694,Aud,2016-10-11 08:32:00,37.0,7.4,1509,90,1.0471975511965976,R,R,1,30
Right,11_10_2016 level15_700_Robin 8_32 RCool01,96,0,1299.829,0,8,-90,700,1181,4.5,8,1301.805,1,736614.37097,Aud,2016-10-11 08:32:00,37.0,7.4,1509,-90,-1.5707963267948966,L,L,1,0
Right,11_10_2016 level15_700_Robin 8_32 RCool01,97,0,1317.183,0,4,30,700,1141,4.5,3,1318.353,0,736614.371163,Aud,2016-10-11 08:32:00,37.0,7.4,1509,60,0.5235987755982988,R,R,1,30
Right,11_10_2016 level15_700_Robin 8_32 RCool01,99,0,1335.022,0,4,30,700,1201,0.0,3,1336.261,0,736614.37137,Aud,2016-10-11 08:32:00,37.0,7.4,1509,60,0.5235987755982988,R,R,1,30
Right,11_10_2016 level15_700_Robin 8_32 RCool01,101,0,1352.705,0,6,-30,700,1041,0.0,6,1359.466,1,736614.371638,Aud,2016-10-11 08:32:00,37.0,7.4,1509,-30,-0.5235987755982988,L,L,1,0
Right,11_10_2016 level15_700_Robin 8_32 RCool01,102,0,1370.152,1,2,90,700,1001,4.5,2,1375.326,1,736614.371822,Aud,2016-10-11 08:32:00,37.0,7.3,1509,90,1.5707963267948966,R,R,1,0
Right,11_10_2016 level15_700_Robin 8_32 RCool01,103,0,1387.65,0,7,-60,700,1061,4.5,6,1389.522,0,736614.371987,Aud,2016-10-11 08:32:00,37.0,7.3,1509,-30,-1.0471975511965976,L,L,1,30
Right,11_10_2016 level15_700_Robin 8_32 RCool01,105,0,1415.341,0,8,-90,700,1081,9.0,7,1417.115,0,736614.372305,Aud,2016-10-11 08:32:00,37.0,7.3,1509,-60,-1.5707963267948966,L,L,1,30
Right,11_10_2016 level15_700_Robin 8_32 RCool01,107,0,1436.885,0,4,30,700,1101,9.0,4,1438.449,1,736614.372553,Aud,2016-10-11 08:32:00,37.0,7.3,1509,30,0.5235987755982988,R,R,1,0
Right,11_10_2016 level15_700_Robin 8_32 RCool01,108,0,1447.629,0,3,60,700,1121,4.5,2,1449.063,0,736614.372675,Aud,2016-10-11 08:32:00,37.0,7.3,1509,90,1.0471975511965976,R,R,1,30
Right,11_10_2016 level15_700_Robin 8_32 RCool01,110,0,1462.98,0,4,30,700,1061,4.5,4,1464.715,1,736614.372856,Aud,2016-10-11 08:32:00,37.0,7.3,1509,30,0.5235987755982988,R,R,1,0
Right,11_10_2016 level15_700_Robin 8_32 RCool01,111,0,1473.478,1,8,-90,700,1201,0.0,7,1478.634,0,736614.373018,Aud,2016-10-11 08:32:00,37.0,7.3,1509,-60,-1.5707963267948966,L,L,1,30
Right,11_10_2016 level15_700_Robin 8_32 RCool01,114,0,1518.845,0,3,60,700,1081,9.0,3,1520.273,1,736614.373499,Aud,2016-10-11 08:32:00,37.0,7.3,1509,60,1.0471975511965976,R,R,1,0
Right,11_10_2016 level15_700_Robin 8_32 RCool01,115,0,1528.33,0,6,-30,700,1101,0.0,6,1529.984,1,736614.373612,Aud,2016-10-11 08:32:00,37.0,7.3,1509,-30,-0.5235987755982988,L,L,1,0
Right,11_10_2016 level15_700_Robin 8_32 RCool01,116,0,1540.746,0,7,-60,700,1161,0.0,6,1542.535,0,736614.373757,Aud,2016-10-11 08:32:00,37.0,7.3,1509,-30,-1.0471975511965976,L,L,1,30
Right,11_10_2016 level15_700_Robin 8_32 RCool01,118,0,1554.459,0,2,90,700,1001,9.0,3,1555.943,0,736614.373913,Aud,2016-10-11 08:32:00,37.0,7.3,1509,60,1.5707963267948966,R,R,1,30
Right,3_10_2016 level15_700_Robin 13_48 RCool_30,31,0,1345.213,0,3,60,700,1121,0.0,2,1348.957,0,736606.591148,Aud,2016-10-03 13:48:00,,,1509,90,1.0471975511965976,R,R,1,30
Right,3_10_2016 level15_700_Robin 13_48 RCool_30,33,0,1400.392,0,3,60,700,1001,4.5,6,1402.262,0,736606.591765,Aud,2016-10-03 13:48:00,,,1509,-30,1.0471975511965976,R,L,0,90
Right,3_10_2016 level15_700_Robin 13_48 RCool_30,42,0,1645.258,0,4,30,700,1101,9.0,2,1649.206,0,736606.594623,Aud,2016-10-03 13:48:00,,,1509,90,0.5235987755982988,R,R,1,60
Right,3_10_2016 level15_700_Robin 13_48 RCool_30,44,0,1686.689,0,7,-60,700,1041,0.0,7,1689.664,1,736606.595092,Aud,2016-10-03 13:48:00,,,1509,-60,-1.0471975511965976,L,L,1,0
Right,3_10_2016 level15_700_Robin 13_48 RCool_30,45,0,1705.275,0,2,90,700,1201,9.0,2,1706.928,1,736606.595291,Aud,2016-10-03 13:48:00,,,1509,90,1.5707963267948966,R,R,1,0
Right,3_10_2016 level15_700_Robin 13_48 RCool_30,46,0,1724.427,0,2,90,700,1021,0.0,3,1725.964,0,736606.595511,Aud,2016-10-03 13:48:00,,,1509,60,1.5707963267948966,R,R,1,30
Right,3_10_2016 level15_700_Robin 13_48 RCool_30,48,0,1740.963,0,6,-30,700,1161,9.0,7,1742.651,0,736606.595704,Aud,2016-10-03 13:48:00,,,1509,-60,-0.5235987755982988,L,L,1,30
Right,3_10_2016 level15_700_Robin 13_48 RCool_30,50,0,1814.609,1,8,-90,700,1081,0.0,3,1818.72,0,736606.596585,Aud,2016-10-03 13:48:00,,,1509,60,-1.5707963267948966,L,R,0,150
Right,3_10_2016 level15_700_Robin 13_48 RCool_30,53,0,1995.622,1,7,-60,700,1001,4.5,6,2001.389,0,736606.5987,Aud,2016-10-03 13:48:00,,,1509,-30,-1.0471975511965976,L,L,1,30
Right,3_10_2016 level15_700_Robin 13_48 RCool_30,55,0,2060.281,0,2,90,700,1121,9.0,2,2062.846,1,736606.59941,Aud,2016-10-03 13:48:00,,,1509,90,1.5707963267948966,R,R,1,0
Right,6_10_2016 level15_700_Robin 14_52 RCool04,5,0,1111.704,0,8,-90,700,1121,4.5,6,1115.001,0,736609.632593,Aud,2016-10-06 14:52:00,37.0,10.9,1509,-30,-1.5707963267948966,L,L,1,60
Right,6_10_2016 level15_700_Robin 14_52 RCool04,7,0,1204.632,0,4,30,700,1101,9.0,3,1206.209,0,736609.633649,Aud,2016-10-06 14:52:00,37.0,10.9,1509,60,0.5235987755982988,R,R,1,30
Right,6_10_2016 level15_700_Robin 14_52 RCool04,9,0,1228.065,0,2,90,700,1041,4.5,2,1229.895,1,736609.633923,Aud,2016-10-06 14:52:00,37.0,10.7,1509,90,1.5707963267948966,R,R,1,0
Right,6_10_2016 level15_700_Robin 14_52 RCool04,10,0,1239.99,0,2,90,700,1081,9.0,2,1241.795,1,736609.634061,Aud,2016-10-06 14:52:00,37.0,10.7,1509,90,1.5707963267948966,R,R,1,0
Right,6_10_2016 level15_700_Robin 14_52 RCool04,11,0,1252.626,0,4,30,700,1161,9.0,3,1254.0,0,736609.634202,Aud,2016-10-06 14:52:00,37.0,10.7,1509,60,0.5235987755982988,R,R,1,30
Right,6_10_2016 level15_700_Robin 14_52 RCool04,15,0,1296.091,0,6,-30,700,1061,0.0,6,1298.7,1,736609.634719,Aud,2016-10-06 14:52:00,37.0,10.7,1509,-30,-0.5235987755982988,L,L,1,0
Right,6_10_2016 level15_700_Robin 14_52 RCool04,16,0,1306.357,0,7,-60,700,1021,4.5,2,1309.271,0,736609.634842,Aud,2016-10-06 14:52:00,37.0,10.7,1509,90,-1.0471975511965976,L,R,0,150
Right,6_10_2016 level15_700_Robin 14_52 RCool04,19,0,1337.037,0,6,-30,700,1001,9.0,6,1338.714,1,736609.635182,Aud,2016-10-06 14:52:00,37.0,10.7,1509,-30,-0.5235987755982988,L,L,1,0
Right,6_10_2016 level15_700_Robin 14_52 RCool04,20,0,1349.242,0,3,60,700,1121,0.0,2,1350.739,0,736609.635321,Aud,2016-10-06 14:52:00,37.0,10.7,1509,90,1.0471975511965976,R,R,1,30
Right,6_10_2016 level15_700_Robin 14_52 RCool04,24,0,1383.673,1,8,-90,700,1001,4.5,6,1388.595,0,736609.63576,Aud,2016-10-06 14:52:00,37.0,10.7,1509,-30,-1.5707963267948966,L,L,1,60
Right,6_10_2016 level15_700_Robin 14_52 RCool04,28,0,1438.797,0,7,-60,700,1081,0.0,6,1440.357,0,736609.636359,Aud,2016-10-06 14:52:00,37.0,10.7,1509,-30,-1.0471975511965976,L,L,1,30
Right,6_10_2016 level15_700_Robin 14_52 RCool04,30,0,1474.25,0,3,60,700,1021,9.0,2,1475.989,0,736609.636771,Aud,2016-10-06 14:52:00,37.0,8.8,1509,90,1.0471975511965976,R,R,1,30
Right,6_10_2016 level15_700_Robin 14_52 RCool04,32,0,1491.887,0,8,-90,700,1201,4.5,6,1493.719,0,736609.636976,Aud,2016-10-06 14:52:00,37.0,8.8,1509,-30,-1.5707963267948966,L,L,1,60
Right,6_10_2016 level15_700_Robin 14_52 RCool04,34,0,1517.973,1,8,-90,700,1141,9.0,3,1522.207,0,736609.637306,Aud,2016-10-06 14:52:00,37.0,8.8,1509,60,-1.5707963267948966,L,R,0,150
Right,6_10_2016 level15_700_Robin 14_52 RCool04,39,0,1577.033,0,2,90,700,1041,9.0,3,1578.481,0,736609.637958,Aud,2016-10-06 14:52:00,37.0,8.8,1509,60,1.5707963267948966,R,R,1,30
Right,6_10_2016 level15_700_Robin 14_52 RCool04,41,0,1593.477,0,2,90,700,1061,4.5,2,1594.757,1,736609.638146,Aud,2016-10-06 14:52:00,37.0,8.8,1509,90,1.5707963267948966,R,R,1,0
Right,6_10_2016 level15_700_Robin 14_52 RCool04,42,0,1610.815,0,6,-30,700,1101,0.0,4,1612.104,0,736609.638347,Aud,2016-10-06 14:52:00,37.0,8.8,1509,30,-0.5235987755982988,L,R,0,60
Right,6_10_2016 level15_700_Robin 14_52 RCool04,44,0,1637.078,0,4,30,700,1161,4.5,4,1638.22,1,736609.638649,Aud,2016-10-06 14:52:00,37.0,8.8,1509,30,0.5235987755982988,R,R,1,0
Right,6_10_2016 level15_700_Robin 14_52 RCool04,45,0,1647.139,0,3,60,700,1061,0.0,3,1648.076,1,736609.638763,Aud,2016-10-06 14:52:00,37.0,8.8,1509,60,1.0471975511965976,R,R,1,0
Right,6_10_2016 level15_700_Robin 14_52 RCool04,46,0,1656.071,1,7,-60,700,1201,9.0,2,1660.47,0,736609.638907,Aud,2016-10-06 14:52:00,37.0,8.8,1509,90,-1.0471975511965976,L,R,0,150
Right,6_10_2016 level15_700_Robin 14_52 RCool04,48,0,1684.732,0,4,30,700,1081,4.5,3,1689.123,0,736609.639238,Aud,2016-10-06 14:52:00,37.0,8.8,1509,60,0.5235987755982988,R,R,1,30
Right,6_10_2016 level15_700_Robin 14_52 RCool04,50,0,1709.902,0,6,-30,700,1161,0.0,6,1711.612,1,736609.639498,Aud,2016-10-06 14:52:00,37.0,8.8,1509,-30,-0.5235987755982988,L,L,1,0
Right,6_10_2016 level15_700_Robin 14_52 RCool04,51,0,1721.753,0,4,30,700,1021,4.5,4,1722.928,1,736609.639629,Aud,2016-10-06 14:52:00,37.0,8.8,1509,30,0.5235987755982988,R,R,1,0
Right,6_10_2016 level15_700_Robin 14_52 RCool04,52,0,1734.159,0,4,30,700,1101,0.0,4,1735.183,1,736609.639772,Aud,2016-10-06 14:52:00,37.0,8.8,1509,30,0.5235987755982988,R,R,1,0
Right,6_10_2016 level15_700_Robin 14_52 RCool04,53,0,1745.109,0,2,90,700,1041,0.0,2,1746.726,1,736609.639904,Aud,2016-10-06 14:52:00,37.0,8.8,1509,90,1.5707963267948966,R,R,1,0
Right,6_10_2016 level15_700_Robin 14_52 RCool04,54,0,1755.702,0,8,-90,700,1001,4.5,6,1757.166,0,736609.640026,Aud,2016-10-06 14:52:00,37.0,8.8,1509,-30,-1.5707963267948966,L,L,1,60
Right,6_10_2016 level15_700_Robin 14_52 RCool04,56,0,1781.412,0,6,-30,700,1141,4.5,4,1783.232,0,736609.640327,Aud,2016-10-06 14:52:00,37.0,8.8,1509,30,-0.5235987755982988,L,R,0,60
Right,6_10_2016 level15_700_Robin 14_52 RCool04,58,0,1799.807,0,2,90,700,1121,0.0,3,1801.526,0,736609.640539,Aud,2016-10-06 14:52:00,37.0,8.8,1509,60,1.5707963267948966,R,R,1,30
Right,6_10_2016 level15_700_Robin 14_52 RCool04,62,0,1832.844,0,3,60,700,1041,4.5,3,1834.161,1,736609.640916,Aud,2016-10-06 14:52:00,37.0,8.8,1509,60,1.0471975511965976,R,R,1,0
Right,6_10_2016 level15_700_Robin 14_52 RCool04,63,0,1844.17,1,6,-30,700,1081,0.0,3,1850.628,0,736609.641107,Aud,2016-10-06 14:52:00,37.0,8.8,1509,60,-0.5235987755982988,L,R,0,90
Right,6_10_2016 level15_700_Robin 14_52 RCool04,68,0,1997.284,0,3,60,700,1001,0.0,3,2005.781,1,736609.642904,Aud,2016-10-06 14:52:00,,,1509,60,1.0471975511965976,R,R,1,0
Right,6_10_2016 level15_700_Robin 14_52 RCool04,69,0,2014.218,0,7,-60,700,1141,4.5,6,2015.793,0,736609.643019,Aud,2016-10-06 14:52:00,,,1509,-30,-1.0471975511965976,L,L,1,30
Right,5_10_2016 level15_700_Robin 10_17 RCool_0,2,0,243.196,0,7,-60,700,1181,4.5,2,255.18,0,736608.432001,Aud,2016-10-05 10:17:00,37.0,11.0,1509,90,-1.0471975511965976,L,R,0,150
Right,5_10_2016 level15_700_Robin 10_17 RCool_0,4,0,277.195,0,6,-30,700,1121,4.5,3,287.304,0,736608.432373,Aud,2016-10-05 10:17:00,37.0,11.0,1509,60,-0.5235987755982988,L,R,0,90
Right,5_10_2016 level15_700_Robin 10_17 RCool_0,6,0,322.172,0,8,-90,700,1001,0.0,8,324.758,1,736608.432807,Aud,2016-10-05 10:17:00,37.0,11.0,1509,-90,-1.5707963267948966,L,L,1,0
Right,5_10_2016 level15_700_Robin 10_17 RCool_0,7,0,352.564,0,4,30,700,1141,9.0,3,354.676,0,736608.433152,Aud,2016-10-05 10:17:00,37.0,11.0,1509,60,0.5235987755982988,R,R,1,30
Right,5_10_2016 level15_700_Robin 10_17 RCool_0,9,0,386.251,0,7,-60,700,1161,0.0,7,388.363,1,736608.433542,Aud,2016-10-05 10:17:00,37.0,11.0,1509,-60,-1.0471975511965976,L,L,1,0
Right,5_10_2016 level15_700_Robin 10_17 RCool_0,10,0,398.868,0,4,30,700,1081,9.0,4,400.658,1,736608.433685,Aud,2016-10-05 10:17:00,37.0,9.0,1509,30,0.5235987755982988,R,R,1,0
Right,5_10_2016 level15_700_Robin 10_17 RCool_0,11,0,412.816,0,2,90,700,1061,0.0,2,414.599,1,736608.433846,Aud,2016-10-05 10:17:00,37.0,9.0,1509,90,1.5707963267948966,R,R,1,0
Right,5_10_2016 level15_700_Robin 10_17 RCool_0,12,0,429.623,0,3,60,700,1101,4.5,3,431.234,1,736608.434038,Aud,2016-10-05 10:17:00,37.0,9.0,1509,60,1.0471975511965976,R,R,1,0
Right,5_10_2016 level15_700_Robin 10_17 RCool_0,13,0,440.417,0,2,90,700,1021,9.0,3,441.92,0,736608.434162,Aud,2016-10-05 10:17:00,37.0,9.0,1509,60,1.5707963267948966,R,R,1,30
Right,5_10_2016 level15_700_Robin 10_17 RCool_0,15,0,460.211,0,3,60,700,1101,0.0,3,461.709,1,736608.434391,Aud,2016-10-05 10:17:00,37.0,9.0,1509,60,1.0471975511965976,R,R,1,0
Right,5_10_2016 level15_700_Robin 10_17 RCool_0,16,0,473.633,0,2,90,700,1061,4.5,2,474.833,1,736608.434543,Aud,2016-10-05 10:17:00,37.0,9.0,1509,90,1.5707963267948966,R,R,1,0
Right,5_10_2016 level15_700_Robin 10_17 RCool_0,17,0,487.866,0,4,30,700,1001,0.0,2,489.553,0,736608.434713,Aud,2016-10-05 10:17:00,37.0,9.0,1509,90,0.5235987755982988,R,R,1,60
Right,5_10_2016 level15_700_Robin 10_17 RCool_0,20,0,509.748,0,6,-30,700,1201,0.0,7,512.227,0,736608.434975,Aud,2016-10-05 10:17:00,37.0,9.0,1509,-60,-0.5235987755982988,L,L,1,30
Right,5_10_2016 level15_700_Robin 10_17 RCool_0,22,0,534.689,1,8,-90,700,1141,4.5,4,547.354,0,736608.435382,Aud,2016-10-05 10:17:00,37.0,8.0,1509,30,-1.5707963267948966,L,R,0,120
Right,5_10_2016 level15_700_Robin 10_17 RCool_0,24,0,559.342,0,7,-60,700,1161,0.0,4,561.317,0,736608.435544,Aud,2016-10-05 10:17:00,37.0,8.0,1509,30,-1.0471975511965976,L,R,0,90
Right,5_10_2016 level15_700_Robin 10_17 RCool_0,27,0,584.198,0,4,30,700,1121,4.5,2,585.924,0,736608.435828,Aud,2016-10-05 10:17:00,37.0,8.0,1509,90,0.5235987755982988,R,R,1,60
Right,5_10_2016 level15_700_Robin 10_17 RCool_0,30,0,618.435,1,8,-90,700,1081,0.0,3,627.004,0,736608.436304,Aud,2016-10-05 10:17:00,37.0,8.0,1509,60,-1.5707963267948966,L,R,0,150
Right,5_10_2016 level15_700_Robin 10_17 RCool_0,33,0,649.355,0,7,-60,700,1181,9.0,4,651.961,0,736608.436593,Aud,2016-10-05 10:17:00,37.0,7.5,1509,30,-1.0471975511965976,L,R,0,90
Right,5_10_2016 level15_700_Robin 10_17 RCool_0,35,0,663.953,0,6,-30,700,1201,0.0,4,666.124,0,736608.436757,Aud,2016-10-05 10:17:00,37.0,7.5,1509,30,-0.5235987755982988,L,R,0,60
Right,5_10_2016 level15_700_Robin 10_17 RCool_0,38,0,694.865,0,3,60,700,1001,4.5,4,706.133,0,736608.43722,Aud,2016-10-05 10:17:00,37.0,7.5,1509,30,1.0471975511965976,R,R,1,30
Right,5_10_2016 level15_700_Robin 10_17 RCool_0,40,0,725.061,0,2,90,700,1181,0.0,3,726.581,0,736608.437457,Aud,2016-10-05 10:17:00,37.0,7.5,1509,60,1.5707963267948966,R,R,1,30
Right,5_10_2016 level15_700_Robin 10_17 RCool_0,42,0,751.361,1,3,60,700,1041,4.5,3,758.926,1,736608.437831,Aud,2016-10-05 10:17:00,37.0,7.5,1509,60,1.0471975511965976,R,R,1,0
Right,5_10_2016 level15_700_Robin 10_17 RCool_0,43,0,777.416,1,7,-60,700,1141,4.5,3,786.548,0,736608.43815,Aud,2016-10-05 10:17:00,37.0,7.5,1509,60,-1.0471975511965976,L,R,0,120
Right,5_10_2016 level15_700_Robin 10_17 RCool_0,47,0,815.338,0,3,60,700,1061,9.0,2,818.339,0,736608.438519,Aud,2016-10-05 10:17:00,37.0,7.5,1509,90,1.0471975511965976,R,R,1,30
Right,5_10_2016 level15_700_Robin 10_17 RCool_0,49,0,845.325,0,7,-60,700,1081,4.5,3,848.232,0,736608.438864,Aud,2016-10-05 10:17:00,37.0,7.5,1509,60,-1.0471975511965976,L,R,0,120
Right,5_10_2016 level15_700_Robin 10_17 RCool_0,51,0,870.996,0,2,90,700,1161,0.0,2,872.595,1,736608.439147,Aud,2016-10-05 10:17:00,37.0,7.5,1509,90,1.5707963267948966,R,R,1,0
Right,5_10_2016 level15_700_Robin 10_17 RCool_0,52,0,890.528,0,6,-30,700,1121,0.0,6,892.486,1,736608.439377,Aud,2016-10-05 10:17:00,37.0,7.8,1509,-30,-0.5235987755982988,L,L,1,0
Right,5_10_2016 level15_700_Robin 10_17 RCool_0,53,0,902.322,0,2,90,700,1021,9.0,2,904.054,1,736608.43951,Aud,2016-10-05 10:17:00,37.0,7.8,1509,90,1.5707963267948966,R,R,1,0
Right,5_10_2016 level15_700_Robin 10_17 RCool_0,54,0,924.069,0,4,30,700,1121,9.0,2,925.993,0,736608.439765,Aud,2016-10-05 10:17:00,37.0,7.8,1509,90,0.5235987755982988,R,R,1,60
Right,5_10_2016 level15_700_Robin 10_17 RCool_0,56,0,945.476,0,6,-30,700,1181,4.5,6,946.882,1,736608.440007,Aud,2016-10-05 10:17:00,37.0,7.8,1509,-30,-0.5235987755982988,L,L,1,0
Right,5_10_2016 level15_700_Robin 10_17 RCool_0,57,0,957.067,0,3,60,700,1141,9.0,4,958.618,0,736608.440142,Aud,2016-10-05 10:17:00,37.0,7.8,1509,30,1.0471975511965976,R,R,1,30
Right,5_10_2016 level15_700_Robin 10_17 RCool_0,60,0,987.994,0,8,-90,700,1061,4.5,6,989.553,0,736608.4405,Aud,2016-10-05 10:17:00,37.0,7.8,1509,-30,-1.5707963267948966,L,L,1,60
Right,5_10_2016 level15_700_Robin 10_17 RCool_0,62,0,1010.68,1,4,30,700,1101,0.0,4,1019.036,1,736608.440841,Aud,2016-10-05 10:17:00,37.0,7.8,1509,30,0.5235987755982988,R,R,1,0
Right,5_10_2016 level15_700_Robin 10_17 RCool_0,63,0,1033.484,0,8,-90,700,1081,4.5,7,1035.819,0,736608.441036,Aud,2016-10-05 10:17:00,37.0,7.8,1509,-60,-1.5707963267948966,L,L,1,30
Right,5_10_2016 level15_700_Robin 10_17 RCool_0,66,0,1072.243,0,8,-90,700,1021,4.5,6,1073.956,0,736608.441477,Aud,2016-10-05 10:17:00,37.0,7.8,1509,-30,-1.5707963267948966,L,L,1,60
Right,5_10_2016 level15_700_Robin 10_17 RCool_0,68,0,1116.357,0,2,90,700,1041,9.0,3,1118.336,0,736608.441991,Aud,2016-10-05 10:17:00,37.0,7.8,1509,60,1.5707963267948966,R,R,1,30
Right,5_10_2016 level15_700_Robin 10_17 RCool_0,70,0,1140.624,0,3,60,700,1201,0.0,3,1143.666,1,736608.442284,Aud,2016-10-05 10:17:00,37.0,7.4,1509,60,1.0471975511965976,R,R,1,0
Right,5_10_2016 level15_700_Robin 10_17 RCool_0,71,0,1156.059,0,7,-60,700,1001,9.0,6,1157.73,0,736608.442447,Aud,2016-10-05 10:17:00,37.0,7.4,1509,-30,-1.0471975511965976,L,L,1,30
Right,5_10_2016 level15_700_Robin 10_17 RCool_0,74,0,1198.542,1,7,-60,700,1141,4.5,4,1208.343,0,736608.443032,Aud,2016-10-05 10:17:00,37.0,7.4,1509,30,-1.0471975511965976,L,R,0,90
Right,5_10_2016 level15_700_Robin 10_17 RCool_0,77,0,1236.452,0,4,30,700,1201,0.0,3,1238.187,0,736608.443378,Aud,2016-10-05 10:17:00,37.0,7.4,1509,60,0.5235987755982988,R,R,1,30
Right,5_10_2016 level15_700_Robin 10_17 RCool_0,79,0,1259.93,0,8,-90,700,1041,9.0,3,1261.812,0,736608.443651,Aud,2016-10-05 10:17:00,37.0,7.4,1509,60,-1.5707963267948966,L,R,0,150
Right,5_10_2016 level15_700_Robin 10_17 RCool_0,83,0,1289.55,0,6,-30,700,1001,4.5,2,1299.783,0,736608.444091,Aud,2016-10-05 10:17:00,37.0,7.4,1509,90,-0.5235987755982988,L,R,0,120
Right,5_10_2016 level15_700_Robin 10_17 RCool_0,85,0,1325.164,0,4,30,700,1181,4.5,3,1327.113,0,736608.444407,Aud,2016-10-05 10:17:00,37.0,7.4,1509,60,0.5235987755982988,R,R,1,30
Right,5_10_2016 level15_700_Robin 10_17 RCool_0,87,0,1355.859,1,6,-30,700,1061,9.0,6,1358.501,1,736608.444771,Aud,2016-10-05 10:17:00,37.0,7.4,1509,-30,-0.5235987755982988,L,L,1,0
Right,5_10_2016 level15_700_Robin 10_17 RCool_0,88,0,1367.613,0,2,90,700,1021,0.0,2,1369.389,1,736608.444897,Aud,2016-10-05 10:17:00,37.0,7.4,1509,90,1.5707963267948966,R,R,1,0
Right,5_10_2016 level15_700_Robin 10_17 RCool_0,89,0,1381.24,0,3,60,700,1101,9.0,4,1382.515,0,736608.445048,Aud,2016-10-05 10:17:00,37.0,7.4,1509,30,1.0471975511965976,R,R,1,30
Right,5_10_2016 level15_700_Robin 10_17 RCool_0,91,0,1401.67,0,7,-60,700,1081,0.0,6,1403.692,0,736608.445294,Aud,2016-10-05 10:17:00,37.0,7.4,1509,-30,-1.0471975511965976,L,L,1,30
Right,5_10_2016 level15_700_Robin 10_17 RCool_0,96,0,1447.016,0,2,90,700,1121,9.0,2,1448.397,1,736608.445811,Aud,2016-10-05 10:17:00,37.0,7.4,1509,90,1.5707963267948966,R,R,1,0
Right,5_10_2016 level15_700_Robin 10_17 RCool_0,97,0,1462.59,0,3,60,700,1021,4.5,3,1464.042,1,736608.445992,Aud,2016-10-05 10:17:00,37.0,7.4,1509,60,1.0471975511965976,R,R,1,0
Right,5_10_2016 level15_700_Robin 10_17 RCool_0,98,0,1475.033,0,4,30,700,1141,9.0,3,1476.217,0,736608.446133,Aud,2016-10-05 10:17:00,37.0,7.4,1509,60,0.5235987755982988,R,R,1,30
Right,5_10_2016 level15_700_Robin 10_17 RCool_0,101,0,1494.843,0,6,-30,700,1121,0.0,4,1499.621,0,736608.446404,Aud,2016-10-05 10:17:00,37.0,7.4,1509,30,-0.5235987755982988,L,R,0,60
Right,5_10_2016 level15_700_Robin 10_17 RCool_0,104,0,1527.698,0,6,-30,700,1081,4.5,8,1529.917,0,736608.446754,Aud,2016-10-05 10:17:00,37.0,7.4,1509,-90,-0.5235987755982988,L,L,1,60
Right,5_10_2016 level15_700_Robin 10_17 RCool_0,109,0,1576.803,1,3,60,700,1101,4.5,2,1580.534,0,736608.44734,Aud,2016-10-05 10:17:00,37.0,7.4,1509,90,1.0471975511965976,R,R,1,30
Right,5_10_2016 level15_700_Robin 10_17 RCool_0,111,0,1598.886,0,4,30,700,1181,0.0,4,1600.045,1,736608.447566,Aud,2016-10-05 10:17:00,37.0,7.4,1509,30,0.5235987755982988,R,R,1,0
Right,5_10_2016 level15_700_Robin 10_17 RCool_0,112,0,1612.174,0,2,90,700,1061,4.5,3,1613.427,0,736608.447721,Aud,2016-10-05 10:17:00,37.0,7.4,1509,60,1.5707963267948966,R,R,1,30
Right,5_10_2016 level15_700_Robin 10_17 RCool_0,114,0,1632.957,0,8,-90,700,1041,9.0,6,1634.609,0,736608.447966,Aud,2016-10-05 10:17:00,37.0,7.4,1509,-30,-1.5707963267948966,L,L,1,60
Right,5_10_2016 level15_700_Robin 10_17 RCool_0,117,0,1672.69,1,8,-90,700,1161,9.0,4,1683.738,0,736608.448535,Aud,2016-10-05 10:17:00,37.0,7.4,1509,30,-1.5707963267948966,L,R,0,120
Right,5_10_2016 level15_700_Robin 10_17 RCool_0,120,0,1719.663,0,7,-60,700,1001,4.5,6,1721.736,0,736608.448974,Aud,2016-10-05 10:17:00,37.0,6.9,1509,-30,-1.0471975511965976,L,L,1,30
Right,5_10_2016 level15_700_Robin 10_17 RCool_0,123,0,1759.909,0,8,-90,700,1121,9.0,4,1761.774,0,736608.449438,Aud,2016-10-05 10:17:00,37.0,6.9,1509,30,-1.5707963267948966,L,R,0,120
Right,5_10_2016 level15_700_Robin 10_17 RCool_0,126,0,1790.998,0,6,-30,700,1001,0.0,6,1792.941,1,736608.449798,Aud,2016-10-05 10:17:00,37.0,6.9,1509,-30,-0.5235987755982988,L,L,1,0
Right,5_10_2016 level15_700_Robin 10_17 RCool_0,127,0,1805.169,0,6,-30,700,1101,4.5,7,1808.597,0,736608.44998,Aud,2016-10-05 10:17:00,37.0,7.3,1509,-60,-0.5235987755982988,L,L,1,30
Right,5_10_2016 level15_700_Robin 10_17 RCool_0,128,0,1915.509,0,7,-60,700,1061,4.5,3,1924.742,0,736608.451324,Aud,2016-10-05 10:17:00,37.0,7.3,1509,60,-1.0471975511965976,L,R,0,120
Right,10_10_2016 level15_700_Robin 16_5 RCool04,5,0,953.447,0,4,30,700,1101,9.0,8,957.7,0,736613.681869,Aud,2016-10-10 16:05:00,37.0,10.0,1509,-90,0.5235987755982988,R,L,0,120
Right,10_10_2016 level15_700_Robin 16_5 RCool04,6,0,982.054,0,4,30,700,1021,0.0,3,995.134,0,736613.682302,Aud,2016-10-10 16:05:00,37.0,10.0,1509,60,0.5235987755982988,R,R,1,30
Right,10_10_2016 level15_700_Robin 16_5 RCool04,8,0,1022.583,0,3,60,700,1161,9.0,4,1025.443,0,736613.682654,Aud,2016-10-10 16:05:00,37.0,10.0,1509,30,1.0471975511965976,R,R,1,30
Right,10_10_2016 level15_700_Robin 16_5 RCool04,10,0,1048.71,0,3,60,700,1141,9.0,3,1050.723,1,736613.682945,Aud,2016-10-10 16:05:00,37.0,10.0,1509,60,1.0471975511965976,R,R,1,0
Right,10_10_2016 level15_700_Robin 16_5 RCool04,11,0,1064.168,0,7,-60,700,1001,4.5,7,1066.441,1,736613.683128,Aud,2016-10-10 16:05:00,37.0,10.0,1509,-60,-1.0471975511965976,L,L,1,0
Right,10_10_2016 level15_700_Robin 16_5 RCool04,12,0,1070.883,0,6,-30,700,1061,0.0,3,1073.092,0,736613.683205,Aud,2016-10-10 16:05:00,37.0,10.0,1509,60,-0.5235987755982988,L,R,0,90
Right,10_10_2016 level15_700_Robin 16_5 RCool04,19,0,1150.525,0,2,90,700,1201,9.0,2,1152.842,1,736613.684128,Aud,2016-10-10 16:05:00,37.0,10.0,1509,90,1.5707963267948966,R,R,1,0
Right,10_10_2016 level15_700_Robin 16_5 RCool04,20,0,1164.456,0,7,-60,700,1121,9.0,3,1166.02,0,736613.68428,Aud,2016-10-10 16:05:00,37.0,10.0,1509,60,-1.0471975511965976,L,R,0,120
Right,10_10_2016 level15_700_Robin 16_5 RCool04,23,0,1204.289,0,8,-90,700,1181,0.0,7,1205.669,0,736613.684739,Aud,2016-10-10 16:05:00,37.0,10.0,1509,-60,-1.5707963267948966,L,L,1,30
Right,10_10_2016 level15_700_Robin 16_5 RCool04,27,0,1240.759,0,2,90,700,1101,4.5,3,1242.216,0,736613.685162,Aud,2016-10-10 16:05:00,37.0,10.0,1509,60,1.5707963267948966,R,R,1,30
Right,10_10_2016 level15_700_Robin 16_5 RCool04,31,0,1274.691,0,8,-90,700,1161,9.0,7,1276.349,0,736613.685558,Aud,2016-10-10 16:05:00,37.0,10.0,1509,-60,-1.5707963267948966,L,L,1,30
Right,10_10_2016 level15_700_Robin 16_5 RCool04,32,0,1307.325,0,4,30,700,1041,0.0,8,1315.058,0,736613.686006,Aud,2016-10-10 16:05:00,37.0,10.0,1509,-90,0.5235987755982988,R,L,0,120
Right,10_10_2016 level15_700_Robin 16_5 RCool04,36,0,1377.98,0,3,60,700,1121,4.5,2,1382.56,0,736613.686787,Aud,2016-10-10 16:05:00,37.0,8.5,1509,90,1.0471975511965976,R,R,1,30
Right,10_10_2016 level15_700_Robin 16_5 RCool04,38,0,1398.49,0,6,-30,700,1001,9.0,6,1401.425,1,736613.687005,Aud,2016-10-10 16:05:00,37.0,8.5,1509,-30,-0.5235987755982988,L,L,1,0
Right,10_10_2016 level15_700_Robin 16_5 RCool04,39,0,1414.455,0,2,90,700,1021,4.5,3,1415.805,0,736613.687171,Aud,2016-10-10 16:05:00,37.0,8.5,1509,60,1.5707963267948966,R,R,1,30
Right,10_10_2016 level15_700_Robin 16_5 RCool04,41,0,1432.769,0,8,-90,700,1061,0.0,4,1436.796,0,736613.687414,Aud,2016-10-10 16:05:00,37.0,8.5,1509,30,-1.5707963267948966,L,R,0,120
Right,10_10_2016 level15_700_Robin 16_5 RCool04,43,0,1459.478,0,7,-60,700,1081,9.0,6,1461.519,0,736613.6877,Aud,2016-10-10 16:05:00,37.0,8.5,1509,-30,-1.0471975511965976,L,L,1,30
Right,10_10_2016 level15_700_Robin 16_5 RCool04,47,0,1496.987,0,3,60,700,1181,9.0,3,1501.72,1,736613.688165,Aud,2016-10-10 16:05:00,37.0,8.5,1509,60,1.0471975511965976,R,R,1,0
Right,10_10_2016 level15_700_Robin 16_5 RCool04,48,0,1515.233,0,4,30,700,1141,0.0,3,1517.005,0,736613.688342,Aud,2016-10-10 16:05:00,37.0,8.5,1509,60,0.5235987755982988,R,R,1,30
Right,10_10_2016 level15_700_Robin 16_5 RCool04,52,0,1548.587,0,7,-60,700,1121,9.0,6,1550.373,0,736613.688729,Aud,2016-10-10 16:05:00,37.0,8.5,1509,-30,-1.0471975511965976,L,L,1,30
Right,10_10_2016 level15_700_Robin 16_5 RCool04,54,0,1565.859,0,2,90,700,1201,4.5,3,1567.309,0,736613.688925,Aud,2016-10-10 16:05:00,37.0,8.5,1509,60,1.5707963267948966,R,R,1,30
Right,10_10_2016 level15_700_Robin 16_5 RCool04,56,0,1584.861,0,8,-90,700,1061,9.0,3,1586.907,0,736613.689151,Aud,2016-10-10 16:05:00,37.0,8.5,1509,60,-1.5707963267948966,L,R,0,150
Right,10_10_2016 level15_700_Robin 16_5 RCool04,59,0,1694.197,0,6,-30,700,1101,0.0,2,1704.726,0,736613.690515,Aud,2016-10-10 16:05:00,37.0,8.5,1509,90,-0.5235987755982988,L,R,0,120
Right,10_10_2016 level15_700_Robin 16_5 RCool04,62,0,1763.638,0,8,-90,700,1161,0.0,6,1765.354,0,736613.691217,Aud,2016-10-10 16:05:00,37.0,8.5,1509,-30,-1.5707963267948966,L,L,1,60
Right,10_10_2016 level15_700_Robin 16_5 RCool04,65,0,1795.715,0,4,30,700,1041,9.0,3,1796.908,0,736613.691582,Aud,2016-10-10 16:05:00,37.0,8.5,1509,60,0.5235987755982988,R,R,1,30
Right,10_10_2016 level15_700_Robin 16_5 RCool04,67,0,1819.27,0,2,90,700,1081,0.0,2,1820.192,1,736613.691852,Aud,2016-10-10 16:05:00,37.0,8.5,1509,90,1.5707963267948966,R,R,1,0
Right,10_10_2016 level15_700_Robin 16_5 RCool04,68,0,1834.358,0,7,-60,700,1181,4.5,2,1836.089,0,736613.692036,Aud,2016-10-10 16:05:00,37.0,8.5,1509,90,-1.0471975511965976,L,R,0,150
Right,10_10_2016 level15_700_Robin 16_5 RCool04,71,0,1867.973,0,6,-30,700,1001,4.5,6,1869.565,1,736613.692423,Aud,2016-10-10 16:05:00,37.0,8.5,1509,-30,-0.5235987755982988,L,L,1,0
Right,10_10_2016 level15_700_Robin 16_5 RCool04,72,0,1883.925,0,6,-30,700,1141,0.0,6,1885.523,1,736613.692608,Aud,2016-10-10 16:05:00,37.0,8.5,1509,-30,-0.5235987755982988,L,L,1,0
Right,10_10_2016 level15_700_Robin 16_5 RCool04,73,0,1897.035,0,2,90,700,1181,9.0,2,1899.084,1,736613.692765,Aud,2016-10-10 16:05:00,37.0,8.2,1509,90,1.5707963267948966,R,R,1,0
Right,10_10_2016 level15_700_Robin 16_5 RCool04,74,0,1911.796,0,3,60,700,1041,0.0,2,1913.272,0,736613.692929,Aud,2016-10-10 16:05:00,37.0,8.2,1509,90,1.0471975511965976,R,R,1,30
Right,10_10_2016 level15_700_Robin 16_5 RCool04,78,0,1937.196,0,3,60,700,1021,0.0,2,1939.339,0,736613.69323,Aud,2016-10-10 16:05:00,37.0,8.2,1509,90,1.0471975511965976,R,R,1,30
Right,10_10_2016 level15_700_Robin 16_5 RCool04,80,0,1954.601,0,8,-90,700,1121,4.5,6,1956.512,0,736613.693429,Aud,2016-10-10 16:05:00,37.0,8.2,1509,-30,-1.5707963267948966,L,L,1,60
Right,10_10_2016 level15_700_Robin 16_5 RCool04,84,0,1990.319,0,7,-60,700,1001,9.0,6,1992.54,0,736613.693846,Aud,2016-10-10 16:05:00,37.0,8.2,1509,-30,-1.0471975511965976,L,L,1,30
Right,10_10_2016 level15_700_Robin 16_5 RCool04,87,0,2020.556,1,4,30,700,1061,0.0,3,2025.307,0,736613.694226,Aud,2016-10-10 16:05:00,37.0,8.2,1509,60,0.5235987755982988,R,R,1,30
Right,10_10_2016 level15_700_Robin 16_5 RCool04,90,0,2066.418,0,4,30,700,1161,4.5,2,2067.688,0,736613.694716,Aud,2016-10-10 16:05:00,37.0,8.2,1509,90,0.5235987755982988,R,R,1,60
Right,10_10_2016 level15_700_Robin 16_5 RCool04,95,0,2105.389,0,7,-60,700,1101,9.0,7,2107.663,1,736613.695179,Aud,2016-10-10 16:05:00,37.0,8.2,1509,-60,-1.0471975511965976,L,L,1,0
Right,10_10_2016 level15_700_Robin 16_5 RCool04,96,0,2129.212,0,3,60,700,1141,4.5,2,2131.224,0,736613.695451,Aud,2016-10-10 16:05:00,37.0,8.2,1509,90,1.0471975511965976,R,R,1,30
Right,10_10_2016 level15_700_Robin 16_5 RCool04,98,0,2149.5,0,4,30,700,1201,9.0,4,2151.322,1,736613.695684,Aud,2016-10-10 16:05:00,37.0,8.2,1509,30,0.5235987755982988,R,R,1,0
Right,10_10_2016 level15_700_Robin 16_5 RCool04,99,0,2165.789,0,3,60,700,1081,9.0,2,2169.499,0,736613.695895,Aud,2016-10-10 16:05:00,37.0,8.2,1509,90,1.0471975511965976,R,R,1,30
Right,10_10_2016 level15_700_Robin 16_5 RCool04,102,0,2198.019,0,2,90,700,1041,0.0,2,2199.652,1,736613.696244,Aud,2016-10-10 16:05:00,37.0,8.2,1509,90,1.5707963267948966,R,R,1,0
Right,10_10_2016 level15_700_Robin 16_5 RCool04,103,0,2209.953,0,6,-30,700,1121,4.5,7,2216.923,0,736613.696443,Aud,2016-10-10 16:05:00,37.0,8.2,1509,-60,-0.5235987755982988,L,L,1,30
Right,10_10_2016 level15_700_Robin 16_5 RCool04,109,0,2282.998,1,8,-90,700,1021,9.0,3,2290.634,0,736613.697296,Aud,2016-10-10 16:05:00,37.0,8.2,1509,60,-1.5707963267948966,L,R,0,150
Right,10_10_2016 level15_700_Robin 16_5 RCool04,111,0,2308.982,1,7,-60,700,1141,0.0,3,2313.059,0,736613.697556,Aud,2016-10-10 16:05:00,37.0,8.2,1509,60,-1.0471975511965976,L,R,0,120
Right,10_10_2016 level15_700_Robin 16_5 RCool04,113,0,2330.305,0,6,-30,700,1101,4.5,6,2332.045,1,736613.697775,Aud,2016-10-10 16:05:00,37.0,8.2,1509,-30,-0.5235987755982988,L,L,1,0
Right,10_10_2016 level15_700_Robin 16_5 RCool04,114,0,2343.491,0,8,-90,700,1201,4.5,6,2345.336,0,736613.697929,Aud,2016-10-10 16:05:00,37.0,8.2,1509,-30,-1.5707963267948966,L,L,1,60
Right,10_10_2016 level15_700_Robin 16_5 RCool04,118,0,2378.896,0,2,90,700,1181,0.0,2,2380.249,1,736613.698333,Aud,2016-10-10 16:05:00,37.0,8.2,1509,90,1.5707963267948966,R,R,1,0
Right,10_10_2016 level15_700_Robin 16_5 RCool04,119,0,2393.102,0,3,60,700,1061,9.0,3,2394.44,1,736613.698498,Aud,2016-10-10 16:05:00,37.0,8.5,1509,60,1.0471975511965976,R,R,1,0
Right,10_10_2016 level15_700_Robin 16_5 RCool04,120,0,2405.065,0,4,30,700,1001,4.5,4,2406.639,1,736613.698639,Aud,2016-10-10 16:05:00,37.0,8.5,1509,30,0.5235987755982988,R,R,1,0
Right,10_10_2016 level15_700_Robin 16_5 RCool04,121,0,2420.166,0,7,-60,700,1001,9.0,6,2421.96,0,736613.698817,Aud,2016-10-10 16:05:00,37.0,8.5,1509,-30,-1.0471975511965976,L,L,1,30
Right,10_10_2016 level15_700_Robin 16_5 RCool04,126,0,2498.152,0,8,-90,700,1141,0.0,2,2511.127,0,736613.699848,Aud,2016-10-10 16:05:00,,,1509,90,-1.5707963267948966,L,R,0,180
Right,4_10_2016 level15_700_Robin 15_3 RCool30,31,0,984.115,1,2,90,700,1001,0.0,3,992.653,0,736607.639095,Aud,2016-10-04 15:03:00,37.0,11.0,1509,60,1.5707963267948966,R,R,1,30
Right,4_10_2016 level15_700_Robin 15_3 RCool30,33,0,1011.826,0,8,-90,700,1201,9.0,3,1013.874,0,736607.63934,Aud,2016-10-04 15:03:00,37.0,11.0,1509,60,-1.5707963267948966,L,R,0,150
Right,4_10_2016 level15_700_Robin 15_3 RCool30,36,0,1074.485,0,3,60,700,1101,9.0,3,1075.939,1,736607.640059,Aud,2016-10-04 15:03:00,37.0,11.0,1509,60,1.0471975511965976,R,R,1,0
Right,4_10_2016 level15_700_Robin 15_3 RCool30,37,0,1083.345,1,8,-90,700,1041,4.5,2,1092.142,0,736607.640246,Aud,2016-10-04 15:03:00,37.0,11.0,1509,90,-1.5707963267948966,L,R,0,180
Right,4_10_2016 level15_700_Robin 15_3 RCool30,41,0,1119.352,0,4,30,700,1141,4.5,3,1120.66,0,736607.640576,Aud,2016-10-04 15:03:00,,,1509,60,0.5235987755982988,R,R,1,30
Right,4_10_2016 level15_700_Robin 15_3 RCool30,45,0,1158.274,0,2,90,700,1061,9.0,3,1160.172,0,736607.641033,Aud,2016-10-04 15:03:00,,,1509,60,1.5707963267948966,R,R,1,30
Right,4_10_2016 level15_700_Robin 15_3 RCool30,47,0,1179.34,0,6,-30,700,1181,9.0,6,1181.424,1,736607.641279,Aud,2016-10-04 15:03:00,,,1509,-30,-0.5235987755982988,L,L,1,0
Right,4_10_2016 level15_700_Robin 15_3 RCool30,48,0,1189.695,0,6,-30,700,1021,0.0,6,1191.264,1,736607.641393,Aud,2016-10-04 15:03:00,,,1509,-30,-0.5235987755982988,L,L,1,0
Right,4_10_2016 level15_700_Robin 15_3 RCool30,49,0,1200.312,0,7,-60,700,1161,9.0,6,1201.952,0,736607.641517,Aud,2016-10-04 15:03:00,,,1509,-30,-1.0471975511965976,L,L,1,30
Right,4_10_2016 level15_700_Robin 15_3 RCool30,53,0,1230.408,0,4,30,700,1121,0.0,3,1231.39,0,736607.641857,Aud,2016-10-04 15:03:00,,,1509,60,0.5235987755982988,R,R,1,30
Right,4_10_2016 level15_700_Robin 15_3 RCool30,56,0,1255.369,0,7,-60,700,1101,9.0,2,1260.561,0,736607.642195,Aud,2016-10-04 15:03:00,,,1509,90,-1.0471975511965976,L,R,0,150
Right,4_10_2016 level15_700_Robin 15_3 RCool30,58,0,1286.421,0,2,90,700,1121,4.5,2,1288.019,1,736607.642512,Aud,2016-10-04 15:03:00,,,1509,90,1.5707963267948966,R,R,1,0
Right,4_10_2016 level15_700_Robin 15_3 RCool30,59,0,1302.057,0,8,-90,700,1181,4.5,6,1304.263,0,736607.6427,Aud,2016-10-04 15:03:00,,,1509,-30,-1.5707963267948966,L,L,1,60
Right,4_10_2016 level15_700_Robin 15_3 RCool30,61,0,1336.296,0,3,60,700,1001,9.0,2,1338.293,0,736607.643095,Aud,2016-10-04 15:03:00,,,1509,90,1.0471975511965976,R,R,1,30
Right,4_10_2016 level15_700_Robin 15_3 RCool30,64,0,1355.462,0,4,30,700,1081,0.0,3,1356.798,0,736607.643309,Aud,2016-10-04 15:03:00,,,1509,60,0.5235987755982988,R,R,1,30
Right,4_10_2016 level15_700_Robin 15_3 RCool30,67,0,1381.492,0,2,90,700,1041,9.0,2,1387.265,1,736607.643662,Aud,2016-10-04 15:03:00,,,1509,90,1.5707963267948966,R,R,1,0
Right,4_10_2016 level15_700_Robin 15_3 RCool30,68,0,1404.599,1,8,-90,700,1161,4.5,8,1411.516,1,736607.643942,Aud,2016-10-04 15:03:00,,,1509,-90,-1.5707963267948966,L,L,1,0
Right,4_10_2016 level15_700_Robin 15_3 RCool30,69,0,1445.772,0,8,-90,700,1201,9.0,7,1448.278,0,736607.644368,Aud,2016-10-04 15:03:00,,,1509,-60,-1.5707963267948966,L,L,1,30
Right,4_10_2016 level15_700_Robin 15_3 RCool30,71,0,1487.954,0,4,30,700,1021,9.0,2,1491.323,0,736607.644865,Aud,2016-10-04 15:03:00,,,1509,90,0.5235987755982988,R,R,1,60
Right,4_10_2016 level15_700_Robin 9_25 RCool_10,11,0,366.618,0,4,30,700,1081,0.0,3,368.66,0,736607.397035,Aud,2016-10-04 09:25:00,37.0,9.4,1509,60,0.5235987755982988,R,R,1,30
Right,4_10_2016 level15_700_Robin 9_25 RCool_10,13,0,396.4,0,8,-90,700,1181,9.0,8,398.867,1,736607.397384,Aud,2016-10-04 09:25:00,37.0,9.4,1509,-90,-1.5707963267948966,L,L,1,0
Right,4_10_2016 level15_700_Robin 9_25 RCool_10,14,0,420.983,0,3,60,700,1161,0.0,3,422.351,1,736607.397656,Aud,2016-10-04 09:25:00,37.0,9.4,1509,60,1.0471975511965976,R,R,1,0
Right,4_10_2016 level15_700_Robin 9_25 RCool_10,15,0,436.892,0,3,60,700,1021,9.0,4,438.594,0,736607.397844,Aud,2016-10-04 09:25:00,37.0,9.4,1509,30,1.0471975511965976,R,R,1,30
Right,4_10_2016 level15_700_Robin 9_25 RCool_10,18,0,480.136,0,6,-30,700,1041,0.0,4,487.618,0,736607.398412,Aud,2016-10-04 09:25:00,37.0,9.4,1509,30,-0.5235987755982988,L,R,0,60
Right,4_10_2016 level15_700_Robin 9_25 RCool_10,21,0,523.959,0,2,90,700,1181,4.5,3,527.107,0,736607.398868,Aud,2016-10-04 09:25:00,37.0,9.4,1509,60,1.5707963267948966,R,R,1,30
Right,4_10_2016 level15_700_Robin 9_25 RCool_10,22,0,534.906,0,6,-30,700,1201,4.5,6,538.661,1,736607.399002,Aud,2016-10-04 09:25:00,37.0,9.4,1509,-30,-0.5235987755982988,L,L,1,0
Right,4_10_2016 level15_700_Robin 9_25 RCool_10,23,0,556.12,0,2,90,700,1161,0.0,2,558.028,1,736607.399227,Aud,2016-10-04 09:25:00,37.0,9.4,1509,90,1.5707963267948966,R,R,1,0
Right,4_10_2016 level15_700_Robin 9_25 RCool_10,24,0,571.607,0,7,-60,700,1061,4.5,6,573.541,0,736607.399406,Aud,2016-10-04 09:25:00,37.0,9.4,1509,-30,-1.0471975511965976,L,L,1,30
Right,4_10_2016 level15_700_Robin 9_25 RCool_10,26,0,594.894,0,3,60,700,1081,0.0,3,596.789,1,736607.399674,Aud,2016-10-04 09:25:00,37.0,9.4,1509,60,1.0471975511965976,R,R,1,0
Right,4_10_2016 level15_700_Robin 9_25 RCool_10,27,0,612.713,1,4,30,700,1001,0.0,2,622.783,0,736607.399975,Aud,2016-10-04 09:25:00,37.0,9.4,1509,90,0.5235987755982988,R,R,1,60
Right,4_10_2016 level15_700_Robin 9_25 RCool_10,29,0,636.434,0,8,-90,700,1101,4.5,8,638.583,1,736607.400159,Aud,2016-10-04 09:25:00,37.0,9.4,1509,-90,-1.5707963267948966,L,L,1,0
Right,4_10_2016 level15_700_Robin 9_25 RCool_10,30,0,655.026,1,8,-90,700,1201,4.5,4,664.435,0,736607.400458,Aud,2016-10-04 09:25:00,37.0,9.4,1509,30,-1.5707963267948966,L,R,0,120
Right,4_10_2016 level15_700_Robin 9_25 RCool_10,34,0,704.449,0,3,60,700,1001,0.0,3,706.378,1,736607.400943,Aud,2016-10-04 09:25:00,37.0,9.4,1509,60,1.0471975511965976,R,R,1,0
Right,4_10_2016 level15_700_Robin 9_25 RCool_10,35,0,718.72,0,6,-30,700,1101,4.5,4,721.707,0,736607.40112,Aud,2016-10-04 09:25:00,37.0,9.4,1509,30,-0.5235987755982988,L,R,0,60
Right,4_10_2016 level15_700_Robin 9_25 RCool_10,37,0,735.756,0,4,30,700,1141,0.0,4,737.351,1,736607.401302,Aud,2016-10-04 09:25:00,37.0,9.4,1509,30,0.5235987755982988,R,R,1,0
Right,4_10_2016 level15_700_Robin 9_25 RCool_10,38,0,745.765,0,4,30,700,1161,4.5,3,747.318,0,736607.401417,Aud,2016-10-04 09:25:00,37.0,9.4,1509,60,0.5235987755982988,R,R,1,30
Right,4_10_2016 level15_700_Robin 9_25 RCool_10,40,0,759.961,0,6,-30,700,1061,9.0,2,763.19,0,736607.401601,Aud,2016-10-04 09:25:00,37.0,9.4,1509,90,-0.5235987755982988,L,R,0,120
Right,4_10_2016 level15_700_Robin 9_25 RCool_10,43,0,804.277,0,7,-60,700,1021,4.5,8,807.276,0,736607.402111,Aud,2016-10-04 09:25:00,37.0,9.4,1509,-90,-1.0471975511965976,L,L,1,30
Right,4_10_2016 level15_700_Robin 9_25 RCool_10,46,0,833.247,0,3,60,700,1121,0.0,3,834.66,1,736607.402428,Aud,2016-10-04 09:25:00,37.0,9.4,1509,60,1.0471975511965976,R,R,1,0
Right,4_10_2016 level15_700_Robin 9_25 RCool_10,47,0,845.913,0,6,-30,700,1081,0.0,6,847.693,1,736607.402579,Aud,2016-10-04 09:25:00,37.0,9.4,1509,-30,-0.5235987755982988,L,L,1,0
Right,4_10_2016 level15_700_Robin 9_25 RCool_10,48,0,855.696,0,2,90,700,1041,9.0,3,857.562,0,736607.402693,Aud,2016-10-04 09:25:00,37.0,9.4,1509,60,1.5707963267948966,R,R,1,30
Right,4_10_2016 level15_700_Robin 9_25 RCool_10,50,0,883.339,1,3,60,700,1021,4.5,2,889.52,0,736607.403063,Aud,2016-10-04 09:25:00,37.0,9.4,1509,90,1.0471975511965976,R,R,1,30
Right,4_10_2016 level15_700_Robin 9_25 RCool_10,53,0,924.511,0,7,-60,700,1181,9.0,6,926.29,0,736607.403488,Aud,2016-10-04 09:25:00,37.0,9.4,1509,-30,-1.0471975511965976,L,L,1,30
Right,4_10_2016 level15_700_Robin 9_25 RCool_10,57,0,961.217,0,8,-90,700,1001,9.0,7,964.596,0,736607.403931,Aud,2016-10-04 09:25:00,37.0,9.4,1509,-60,-1.5707963267948966,L,L,1,30
Right,4_10_2016 level15_700_Robin 9_25 RCool_10,59,0,990.92,0,8,-90,700,1061,0.0,6,993.499,0,736607.404266,Aud,2016-10-04 09:25:00,37.0,9.4,1509,-30,-1.5707963267948966,L,L,1,60
Right,4_10_2016 level15_700_Robin 9_25 RCool_10,61,0,1004.131,0,4,30,700,1161,4.5,3,1006.51,0,736607.404417,Aud,2016-10-04 09:25:00,37.0,9.4,1509,60,0.5235987755982988,R,R,1,30
Right,4_10_2016 level15_700_Robin 9_25 RCool_10,63,0,1033.787,0,2,90,700,1201,0.0,3,1035.074,0,736607.404748,Aud,2016-10-04 09:25:00,37.0,9.4,1509,60,1.5707963267948966,R,R,1,30
Right,4_10_2016 level15_700_Robin 9_25 RCool_10,65,0,1055.885,0,7,-60,700,1081,4.5,6,1057.599,0,736607.405008,Aud,2016-10-04 09:25:00,37.0,9.4,1509,-30,-1.0471975511965976,L,L,1,30
Right,4_10_2016 level15_700_Robin 9_25 RCool_10,67,0,1070.024,0,8,-90,700,1121,9.0,8,1072.263,1,736607.405178,Aud,2016-10-04 09:25:00,37.0,9.4,1509,-90,-1.5707963267948966,L,L,1,0
Right,4_10_2016 level15_700_Robin 9_25 RCool_10,68,0,1087.83,0,6,-30,700,1041,0.0,4,1089.687,0,736607.40538,Aud,2016-10-04 09:25:00,37.0,9.4,1509,30,-0.5235987755982988,L,R,0,60
Right,4_10_2016 level15_700_Robin 9_25 RCool_10,71,0,1112.568,1,6,-30,700,1141,4.5,2,1118.456,0,736607.405713,Aud,2016-10-04 09:25:00,37.0,9.4,1509,90,-0.5235987755982988,L,R,0,120
Right,4_10_2016 level15_700_Robin 9_25 RCool_10,77,0,1219.501,0,2,90,700,1081,9.0,3,1221.369,0,736607.406904,Aud,2016-10-04 09:25:00,37.0,9.4,1509,60,1.5707963267948966,R,R,1,30
Right,4_10_2016 level15_700_Robin 9_25 RCool_10,79,0,1247.924,0,4,30,700,1161,4.5,2,1250.033,0,736607.407236,Aud,2016-10-04 09:25:00,37.0,9.4,1509,90,0.5235987755982988,R,R,1,60
Right,4_10_2016 level15_700_Robin 9_25 RCool_10,81,0,1276.725,1,4,30,700,1101,4.5,3,1286.238,0,736607.407655,Aud,2016-10-04 09:25:00,37.0,9.4,1509,60,0.5235987755982988,R,R,1,30
Right,4_10_2016 level15_700_Robin 9_25 RCool_10,84,0,1317.615,0,8,-90,700,1041,0.0,8,1319.795,1,736607.408043,Aud,2016-10-04 09:25:00,37.0,9.4,1509,-90,-1.5707963267948966,L,L,1,0
Right,4_10_2016 level15_700_Robin 9_25 RCool_10,85,0,1337.89,0,2,90,700,1021,0.0,2,1339.944,1,736607.408277,Aud,2016-10-04 09:25:00,37.0,9.4,1509,90,1.5707963267948966,R,R,1,0
Right,4_10_2016 level15_700_Robin 9_25 RCool_10,86,0,1353.571,0,3,60,700,1141,9.0,3,1355.352,1,736607.408455,Aud,2016-10-04 09:25:00,37.0,9.4,1509,60,1.0471975511965976,R,R,1,0
Right,4_10_2016 level15_700_Robin 9_25 RCool_10,87,0,1366.214,0,3,60,700,1001,0.0,2,1367.559,0,736607.408596,Aud,2016-10-04 09:25:00,37.0,9.4,1509,90,1.0471975511965976,R,R,1,30
Right,4_10_2016 level15_700_Robin 9_25 RCool_10,90,0,1394.254,0,7,-60,700,1181,9.0,6,1396.021,0,736607.408925,Aud,2016-10-04 09:25:00,37.0,9.4,1509,-30,-1.0471975511965976,L,L,1,30
Right,4_10_2016 level15_700_Robin 9_25 RCool_10,92,0,1416.481,0,6,-30,700,1121,9.0,7,1419.048,0,736607.409192,Aud,2016-10-04 09:25:00,,,1509,-60,-0.5235987755982988,L,L,1,30
Right,4_10_2016 level15_700_Robin 9_25 RCool_10,95,0,1452.494,0,7,-60,700,1081,4.5,2,1459.211,0,736607.409657,Aud,2016-10-04 09:25:00,,,1509,90,-1.0471975511965976,L,R,0,150
Right,4_10_2016 level15_700_Robin 9_25 RCool_10,99,0,1612.958,0,3,60,700,1161,9.0,3,1615.449,1,736607.411465,Aud,2016-10-04 09:25:00,,,1509,60,1.0471975511965976,R,R,1,0
Right,4_10_2016 level15_700_Robin 9_25 RCool_10,100,0,1632.172,0,4,30,700,1141,0.0,4,1633.919,1,736607.411679,Aud,2016-10-04 09:25:00,,,1509,30,0.5235987755982988,R,R,1,0
Right,4_10_2016 level15_700_Robin 9_25 RCool_10,101,0,1643.203,0,4,30,700,1061,9.0,3,1645.456,0,736607.411812,Aud,2016-10-04 09:25:00,,,1509,60,0.5235987755982988,R,R,1,30
Right,7_10_2016 level15_700_Robin 8_44 RCool01,1,0,564.285,1,3,60,700,1061,0.0,4,577.432,0,736610.371225,Aud,2016-10-07 08:44:00,37.0,11.0,1509,30,1.0471975511965976,R,R,1,30
Right,7_10_2016 level15_700_Robin 8_44 RCool01,6,0,626.448,0,8,-90,700,1201,9.0,8,628.425,1,736610.371815,Aud,2016-10-07 08:44:00,37.0,11.0,1509,-90,-1.5707963267948966,L,L,1,0
Right,7_10_2016 level15_700_Robin 8_44 RCool01,7,0,646.626,0,4,30,700,1041,9.0,4,648.061,1,736610.372044,Aud,2016-10-07 08:44:00,37.0,9.8,1509,30,0.5235987755982988,R,R,1,0
Right,7_10_2016 level15_700_Robin 8_44 RCool01,8,0,659.541,0,3,60,700,1161,0.0,3,660.768,1,736610.37219,Aud,2016-10-07 08:44:00,37.0,9.8,1509,60,1.0471975511965976,R,R,1,0
Right,7_10_2016 level15_700_Robin 8_44 RCool01,9,0,668.243,0,8,-90,700,1021,9.0,8,670.468,1,736610.372303,Aud,2016-10-07 08:44:00,37.0,9.8,1509,-90,-1.5707963267948966,L,L,1,0
Right,7_10_2016 level15_700_Robin 8_44 RCool01,10,0,686.877,0,4,30,700,1001,0.0,4,688.447,1,736610.37251,Aud,2016-10-07 08:44:00,37.0,9.8,1509,30,0.5235987755982988,R,R,1,0
Right,7_10_2016 level15_700_Robin 8_44 RCool01,11,0,699.184,0,6,-30,700,1181,9.0,3,701.225,0,736610.372658,Aud,2016-10-07 08:44:00,37.0,9.8,1509,60,-0.5235987755982988,L,R,0,90
Right,7_10_2016 level15_700_Robin 8_44 RCool01,21,0,835.291,0,2,90,700,1141,4.5,7,849.007,0,736610.374368,Aud,2016-10-07 08:44:00,37.0,9.8,1509,-60,1.5707963267948966,R,L,0,150
Right,7_10_2016 level15_700_Robin 8_44 RCool01,24,0,885.803,0,6,-30,700,1081,0.0,4,894.913,0,736610.3749,Aud,2016-10-07 08:44:00,37.0,9.8,1509,30,-0.5235987755982988,L,R,0,60
Right,7_10_2016 level15_700_Robin 8_44 RCool01,28,0,949.301,0,7,-60,700,1021,4.5,3,958.268,0,736610.375634,Aud,2016-10-07 08:44:00,37.0,9.8,1509,60,-1.0471975511965976,L,R,0,120
Right,7_10_2016 level15_700_Robin 8_44 RCool01,30,0,1013.22,0,2,90,700,1061,9.0,3,1014.423,0,736610.376283,Aud,2016-10-07 08:44:00,37.0,9.9,1509,60,1.5707963267948966,R,R,1,30
Right,7_10_2016 level15_700_Robin 8_44 RCool01,32,0,1038.071,0,6,-30,700,1201,0.0,4,1040.167,0,736610.376581,Aud,2016-10-07 08:44:00,37.0,9.9,1509,30,-0.5235987755982988,L,R,0,60
Right,7_10_2016 level15_700_Robin 8_44 RCool01,34,0,1228.055,0,4,30,700,1041,0.0,6,1229.742,0,736610.378776,Aud,2016-10-07 08:44:00,37.0,9.9,1509,-30,0.5235987755982988,R,L,0,60
Right,7_10_2016 level15_700_Robin 8_44 RCool01,37,0,1281.54,0,4,30,700,1181,4.5,6,1286.637,0,736610.379434,Aud,2016-10-07 08:44:00,37.0,9.9,1509,-30,0.5235987755982988,R,L,0,60
Right,7_10_2016 level15_700_Robin 8_44 RCool01,39,0,1335.577,0,3,60,700,1121,9.0,2,1344.984,0,736610.380109,Aud,2016-10-07 08:44:00,37.0,9.9,1509,90,1.0471975511965976,R,R,1,30
Right,7_10_2016 level15_700_Robin 8_44 RCool01,41,0,1373.138,0,7,-60,700,1161,0.0,3,1374.881,0,736610.380455,Aud,2016-10-07 08:44:00,37.0,9.9,1509,60,-1.0471975511965976,L,R,0,120
Right,7_10_2016 level15_700_Robin 8_44 RCool01,46,0,1442.646,0,7,-60,700,1001,4.5,8,1445.385,0,736610.381271,Aud,2016-10-07 08:44:00,37.0,9.9,1509,-90,-1.0471975511965976,L,L,1,30
Right,7_10_2016 level15_700_Robin 8_44 RCool01,48,0,1467.252,0,2,90,700,1041,0.0,2,1468.578,1,736610.38154,Aud,2016-10-07 08:44:00,37.0,10.0,1509,90,1.5707963267948966,R,R,1,0
Right,7_10_2016 level15_700_Robin 8_44 RCool01,49,0,1480.639,0,6,-30,700,1141,4.5,4,1481.854,0,736610.381693,Aud,2016-10-07 08:44:00,37.0,10.0,1509,30,-0.5235987755982988,L,R,0,60
Right,7_10_2016 level15_700_Robin 8_44 RCool01,53,0,1527.497,0,8,-90,700,1061,4.5,4,1537.623,0,736610.382339,Aud,2016-10-07 08:44:00,37.0,10.0,1509,30,-1.5707963267948966,L,R,0,120
Control,2_9_2016 level15_700_Robin 14_38 log,1,0,6.187,0,4,30,700,1041,0.0,3,7.474,0,736575.610314,Aud,2016-09-02 14:38:00,,,1509,60,0.5235987755982988,R,R,1,30
Control,2_9_2016 level15_700_Robin 14_38 log,4,0,53.115,1,8,-90,700,1201,4.5,7,56.916,0,736575.610886,Aud,2016-09-02 14:38:00,,,1509,-60,-1.5707963267948966,L,L,1,30
Control,2_9_2016 level15_700_Robin 14_38 log,8,0,109.064,0,8,-90,700,1141,9.0,6,110.578,0,736575.611508,Aud,2016-09-02 14:38:00,,,1509,-30,-1.5707963267948966,L,L,1,60
Control,2_9_2016 level15_700_Robin 14_38 log,12,0,172.758,0,3,60,700,1121,4.5,3,174.139,1,736575.612244,Aud,2016-09-02 14:38:00,,,1509,60,1.0471975511965976,R,R,1,0
Control,2_9_2016 level15_700_Robin 14_38 log,13,0,185.498,0,2,90,700,1181,4.5,3,187.218,0,736575.612395,Aud,2016-09-02 14:38:00,,,1509,60,1.5707963267948966,R,R,1,30
Control,2_9_2016 level15_700_Robin 14_38 log,16,0,218.877,0,6,-30,700,1061,0.0,6,220.56,1,736575.612781,Aud,2016-09-02 14:38:00,,,1509,-30,-0.5235987755982988,L,L,1,0
Control,2_9_2016 level15_700_Robin 14_38 log,17,0,229.107,0,4,30,700,1101,4.5,6,230.779,0,736575.612898,Aud,2016-09-02 14:38:00,,,1509,-30,0.5235987755982988,R,L,0,60
Control,2_9_2016 level15_700_Robin 14_38 log,19,0,260.296,0,3,60,700,1081,9.0,3,261.479,1,736575.613254,Aud,2016-09-02 14:38:00,,,1509,60,1.0471975511965976,R,R,1,0
Control,2_9_2016 level15_700_Robin 14_38 log,20,0,270.438,0,7,-60,700,1001,0.0,6,271.799,0,736575.613374,Aud,2016-09-02 14:38:00,,,1509,-30,-1.0471975511965976,L,L,1,30
Control,2_9_2016 level15_700_Robin 14_38 log,22,0,290.14,0,2,90,700,1161,9.0,3,291.96,0,736575.613607,Aud,2016-09-02 14:38:00,,,1509,60,1.5707963267948966,R,R,1,30
Control,2_9_2016 level15_700_Robin 14_38 log,25,0,321.344,0,6,-30,700,1021,9.0,6,322.678,1,736575.613963,Aud,2016-09-02 14:38:00,,,1509,-30,-0.5235987755982988,L,L,1,0
Control,2_9_2016 level15_700_Robin 14_38 log,26,0,331.045,0,7,-60,700,1161,0.0,6,332.545,0,736575.614077,Aud,2016-09-02 14:38:00,,,1509,-30,-1.0471975511965976,L,L,1,30
Control,2_9_2016 level15_700_Robin 14_38 log,28,0,370.877,0,6,-30,700,1001,0.0,6,372.571,1,736575.61454,Aud,2016-09-02 14:38:00,,,1509,-30,-0.5235987755982988,L,L,1,0
Control,2_9_2016 level15_700_Robin 14_38 log,29,0,381.092,0,2,90,700,1141,4.5,2,382.482,1,736575.614654,Aud,2016-09-02 14:38:00,,,1509,90,1.5707963267948966,R,R,1,0
Control,2_9_2016 level15_700_Robin 14_38 log,30,0,396.95,0,6,-30,700,1061,9.0,6,398.356,1,736575.614839,Aud,2016-09-02 14:38:00,,,1509,-30,-0.5235987755982988,L,L,1,0
Control,2_9_2016 level15_700_Robin 14_38 log,31,0,406.755,1,7,-60,700,1041,4.5,6,410.957,0,736575.614984,Aud,2016-09-02 14:38:00,,,1509,-30,-1.0471975511965976,L,L,1,30
Control,2_9_2016 level15_700_Robin 14_38 log,35,0,459.554,0,3,60,700,1201,9.0,3,461.015,1,736575.615563,Aud,2016-09-02 14:38:00,,,1509,60,1.0471975511965976,R,R,1,0
Control,2_9_2016 level15_700_Robin 14_38 log,36,0,471.399,0,4,30,700,1121,4.5,2,474.143,0,736575.615716,Aud,2016-09-02 14:38:00,,,1509,90,0.5235987755982988,R,R,1,60
Control,2_9_2016 level15_700_Robin 14_38 log,40,0,534.095,0,3,60,700,1101,0.0,3,535.139,1,736575.616422,Aud,2016-09-02 14:38:00,,,1509,60,1.0471975511965976,R,R,1,0
Control,2_9_2016 level15_700_Robin 14_38 log,41,0,545.631,0,4,30,700,1081,4.5,4,547.333,1,736575.616562,Aud,2016-09-02 14:38:00,,,1509,30,0.5235987755982988,R,R,1,0
Control,2_9_2016 level15_700_Robin 14_38 log,42,0,559.607,0,8,-90,700,1041,0.0,7,560.953,0,736575.61672,Aud,2016-09-02 14:38:00,,,1509,-60,-1.5707963267948966,L,L,1,30
Control,2_9_2016 level15_700_Robin 14_38 log,44,0,583.576,0,8,-90,700,1021,4.5,7,584.996,0,736575.616999,Aud,2016-09-02 14:38:00,,,1509,-60,-1.5707963267948966,L,L,1,30
Control,2_9_2016 level15_700_Robin 14_38 log,49,0,637.531,0,2,90,700,1061,0.0,2,639.326,1,736575.617628,Aud,2016-09-02 14:38:00,,,1509,90,1.5707963267948966,R,R,1,0
Control,2_9_2016 level15_700_Robin 14_38 log,50,0,652.481,0,7,-60,700,1181,9.0,6,654.464,0,736575.617802,Aud,2016-09-02 14:38:00,,,1509,-30,-1.0471975511965976,L,L,1,30
Control,2_9_2016 level15_700_Robin 14_38 log,53,0,692.173,0,8,-90,700,1001,0.0,8,693.321,1,736575.618253,Aud,2016-09-02 14:38:00,,,1509,-90,-1.5707963267948966,L,L,1,0
Control,2_9_2016 level15_700_Robin 14_38 log,54,0,720.007,0,2,90,700,1201,9.0,3,721.583,0,736575.61858,Aud,2016-09-02 14:38:00,,,1509,60,1.5707963267948966,R,R,1,30
Control,2_9_2016 level15_700_Robin 14_38 log,57,0,747.18,0,3,60,700,1121,9.0,3,748.536,1,736575.618892,Aud,2016-09-02 14:38:00,,,1509,60,1.0471975511965976,R,R,1,0
Control,2_9_2016 level15_700_Robin 14_38 log,58,0,757.576,0,4,30,700,1101,0.0,6,759.903,0,736575.619024,Aud,2016-09-02 14:38:00,,,1509,-30,0.5235987755982988,R,L,0,60
Control,2_9_2016 level15_700_Robin 14_38 log,62,0,819.877,0,6,-30,700,1161,0.0,6,821.36,1,736575.619735,Aud,2016-09-02 14:38:00,,,1509,-30,-0.5235987755982988,L,L,1,0
Control,2_9_2016 level15_700_Robin 14_38 log,63,0,830.28,0,2,90,700,1141,4.5,2,831.643,1,736575.619854,Aud,2016-09-02 14:38:00,,,1509,90,1.5707963267948966,R,R,1,0
Control,2_9_2016 level15_700_Robin 14_38 log,64,0,839.901,0,4,30,700,1161,0.0,3,841.482,0,736575.619967,Aud,2016-09-02 14:38:00,,,1509,60,0.5235987755982988,R,R,1,30
Control,2_9_2016 level15_700_Robin 14_38 log,67,0,865.988,0,7,-60,700,1081,9.0,6,867.284,0,736575.620266,Aud,2016-09-02 14:38:00,,,1509,-30,-1.0471975511965976,L,L,1,30
Control,7_9_2016 level15_700_Robin 9_31 log,1,0,79.218,0,8,-90,700,1161,0.0,3,87.024,0,736580.397729,Aud,2016-09-07 09:31:00,,,1509,60,-1.5707963267948966,L,R,0,150
Control,7_9_2016 level15_700_Robin 9_31 log,6,0,202.367,0,6,-30,700,1141,9.0,3,204.048,0,736580.399084,Aud,2016-09-07 09:31:00,,,1509,60,-0.5235987755982988,L,R,0,90
Control,7_9_2016 level15_700_Robin 9_31 log,9,0,254.995,0,3,60,700,1121,0.0,3,256.346,1,736580.399689,Aud,2016-09-07 09:31:00,,,1509,60,1.0471975511965976,R,R,1,0
Control,7_9_2016 level15_700_Robin 9_31 log,10,0,267.018,1,8,-90,700,1021,4.5,6,268.639,0,736580.399831,Aud,2016-09-07 09:31:00,,,1509,-30,-1.5707963267948966,L,L,1,60
Control,7_9_2016 level15_700_Robin 9_31 log,13,0,301.939,0,4,30,700,1201,0.0,2,303.584,0,736580.400236,Aud,2016-09-07 09:31:00,,,1509,90,0.5235987755982988,R,R,1,60
Control,7_9_2016 level15_700_Robin 9_31 log,15,0,319.923,1,4,30,700,1081,4.5,3,321.478,0,736580.400443,Aud,2016-09-07 09:31:00,,,1509,60,0.5235987755982988,R,R,1,30
Control,7_9_2016 level15_700_Robin 9_31 log,17,0,346.765,1,7,-60,700,1101,4.5,7,348.38,1,736580.400754,Aud,2016-09-07 09:31:00,,,1509,-60,-1.0471975511965976,L,L,1,0
Control,7_9_2016 level15_700_Robin 9_31 log,18,0,369.802,0,2,90,700,1061,9.0,3,372.372,0,736580.401032,Aud,2016-09-07 09:31:00,,,1509,60,1.5707963267948966,R,R,1,30
Control,7_9_2016 level15_700_Robin 9_31 log,21,0,401.902,0,7,-60,700,1041,4.5,6,403.6,0,736580.401393,Aud,2016-09-07 09:31:00,,,1509,-30,-1.0471975511965976,L,L,1,30
Control,7_9_2016 level15_700_Robin 9_31 log,29,0,536.728,0,2,90,700,1181,0.0,2,538.726,1,736580.402957,Aud,2016-09-07 09:31:00,,,1509,90,1.5707963267948966,R,R,1,0
Control,7_9_2016 level15_700_Robin 9_31 log,30,0,551.88,0,3,60,700,1041,0.0,2,553.152,0,736580.403124,Aud,2016-09-07 09:31:00,,,1509,90,1.0471975511965976,R,R,1,30
Control,7_9_2016 level15_700_Robin 9_31 log,32,0,596.115,0,6,-30,700,1141,4.5,4,600.977,0,736580.403678,Aud,2016-09-07 09:31:00,,,1509,30,-0.5235987755982988,L,R,0,60
Control,7_9_2016 level15_700_Robin 9_31 log,34,0,618.702,0,7,-60,700,1161,0.0,7,621.006,1,736580.403909,Aud,2016-09-07 09:31:00,,,1509,-60,-1.0471975511965976,L,L,1,0
Control,7_9_2016 level15_700_Robin 9_31 log,35,0,643.529,0,3,60,700,1081,9.0,3,645.349,1,736580.404192,Aud,2016-09-07 09:31:00,,,1509,60,1.0471975511965976,R,R,1,0
Control,7_9_2016 level15_700_Robin 9_31 log,36,0,657.961,0,6,-30,700,1121,9.0,6,659.517,1,736580.404355,Aud,2016-09-07 09:31:00,,,1509,-30,-0.5235987755982988,L,L,1,0
Control,7_9_2016 level15_700_Robin 9_31 log,37,0,674.808,0,8,-90,700,1201,4.5,7,676.258,0,736580.404549,Aud,2016-09-07 09:31:00,,,1509,-60,-1.5707963267948966,L,L,1,30
Control,7_9_2016 level15_700_Robin 9_31 log,40,0,709.795,0,6,-30,700,1021,9.0,6,711.225,1,736580.404953,Aud,2016-09-07 09:31:00,,,1509,-30,-0.5235987755982988,L,L,1,0
Control,7_9_2016 level15_700_Robin 9_31 log,41,0,720.652,0,4,30,700,1001,0.0,7,722.595,0,736580.405085,Aud,2016-09-07 09:31:00,,,1509,-60,0.5235987755982988,R,L,0,90
Control,7_9_2016 level15_700_Robin 9_31 log,43,0,740.602,0,4,30,700,1181,9.0,2,743.262,0,736580.405325,Aud,2016-09-07 09:31:00,,,1509,90,0.5235987755982988,R,R,1,60
Control,7_9_2016 level15_700_Robin 9_31 log,48,0,798.766,0,3,60,700,1101,4.5,3,800.131,1,736580.405983,Aud,2016-09-07 09:31:00,,,1509,60,1.0471975511965976,R,R,1,0
Control,7_9_2016 level15_700_Robin 9_31 log,49,0,807.766,0,2,90,700,1021,9.0,2,809.33,1,736580.406089,Aud,2016-09-07 09:31:00,,,1509,90,1.5707963267948966,R,R,1,0
Control,7_9_2016 level15_700_Robin 9_31 log,50,0,822.174,0,7,-60,700,1121,0.0,6,823.132,0,736580.406249,Aud,2016-09-07 09:31:00,,,1509,-30,-1.0471975511965976,L,L,1,30
Control,7_9_2016 level15_700_Robin 9_31 log,53,0,879.676,0,2,90,700,1081,9.0,3,881.327,0,736580.406923,Aud,2016-09-07 09:31:00,,,1509,60,1.5707963267948966,R,R,1,30
Control,7_9_2016 level15_700_Robin 9_31 log,55,0,904.777,0,8,-90,700,1101,0.0,8,905.893,1,736580.407207,Aud,2016-09-07 09:31:00,,,1509,-90,-1.5707963267948966,L,L,1,0
Control,7_9_2016 level15_700_Robin 9_31 log,56,0,919.936,0,3,60,700,1061,0.0,3,921.257,1,736580.407385,Aud,2016-09-07 09:31:00,,,1509,60,1.0471975511965976,R,R,1,0
Control,7_9_2016 level15_700_Robin 9_31 log,57,0,927.881,0,7,-60,700,1201,9.0,6,929.276,0,736580.407477,Aud,2016-09-07 09:31:00,,,1509,-30,-1.0471975511965976,L,L,1,30
Control,7_9_2016 level15_700_Robin 9_31 log,59,0,955.282,0,7,-60,700,1041,4.5,6,956.635,0,736580.407794,Aud,2016-09-07 09:31:00,,,1509,-30,-1.0471975511965976,L,L,1,30
Control,12_10_2016 level15_700_Robin 14_27 log,1,0,5.338,0,6,-30,700,1061,9.0,7,7.299,0,736615.602177,Aud,2016-10-12 14:27:00,,,1509,-60,-0.5235987755982988,L,L,1,30
Control,12_10_2016 level15_700_Robin 14_27 log,3,0,28.042,0,6,-30,700,1121,4.5,6,29.149,1,736615.602429,Aud,2016-10-12 14:27:00,,,1509,-30,-0.5235987755982988,L,L,1,0
Control,12_10_2016 level15_700_Robin 14_27 log,4,0,41.397,0,3,60,700,1161,0.0,4,42.83,0,736615.602588,Aud,2016-10-12 14:27:00,,,1509,30,1.0471975511965976,R,R,1,30
Control,12_10_2016 level15_700_Robin 14_27 log,11,0,95.709,0,3,60,700,1081,4.5,2,96.976,0,736615.603214,Aud,2016-10-12 14:27:00,,,1509,90,1.0471975511965976,R,R,1,30
Control,12_10_2016 level15_700_Robin 14_27 log,13,0,113.78,0,8,-90,700,1101,9.0,6,115.183,0,736615.603425,Aud,2016-10-12 14:27:00,,,1509,-30,-1.5707963267948966,L,L,1,60
Control,12_10_2016 level15_700_Robin 14_27 log,15,0,147.561,0,4,30,700,1181,4.5,4,148.785,1,736615.603815,Aud,2016-10-12 14:27:00,,,1509,30,0.5235987755982988,R,R,1,0
Control,12_10_2016 level15_700_Robin 14_27 log,16,0,163.516,0,2,90,700,1141,0.0,3,164.526,0,736615.603997,Aud,2016-10-12 14:27:00,,,1509,60,1.5707963267948966,R,R,1,30
Control,12_10_2016 level15_700_Robin 14_27 log,19,0,193.486,0,7,-60,700,1001,4.5,6,194.742,0,736615.604346,Aud,2016-10-12 14:27:00,,,1509,-30,-1.0471975511965976,L,L,1,30
Control,12_10_2016 level15_700_Robin 14_27 log,23,0,232.764,0,7,-60,700,1021,0.0,6,234.209,0,736615.604803,Aud,2016-10-12 14:27:00,,,1509,-30,-1.0471975511965976,L,L,1,30
Control,12_10_2016 level15_700_Robin 14_27 log,28,0,281.562,0,4,30,700,1041,9.0,4,282.789,1,736615.605365,Aud,2016-10-12 14:27:00,,,1509,30,0.5235987755982988,R,R,1,0
Control,12_10_2016 level15_700_Robin 14_27 log,29,0,298.112,0,8,-90,700,1001,4.5,6,299.325,0,736615.605556,Aud,2016-10-12 14:27:00,,,1509,-30,-1.5707963267948966,L,L,1,60
Control,12_10_2016 level15_700_Robin 14_27 log,33,0,351.274,0,2,90,700,1101,9.0,3,352.617,0,736615.606173,Aud,2016-10-12 14:27:00,,,1509,60,1.5707963267948966,R,R,1,30
Control,12_10_2016 level15_700_Robin 14_27 log,36,0,380.01,0,4,30,700,1201,4.5,6,381.353,0,736615.606505,Aud,2016-10-12 14:27:00,,,1509,-30,0.5235987755982988,R,L,0,60
Control,12_10_2016 level15_700_Robin 14_27 log,38,0,402.471,0,6,-30,700,1141,9.0,6,403.805,1,736615.606766,Aud,2016-10-12 14:27:00,,,1509,-30,-0.5235987755982988,L,L,1,0
Control,12_10_2016 level15_700_Robin 14_27 log,39,0,414.062,0,6,-30,700,1021,9.0,6,415.59,1,736615.606902,Aud,2016-10-12 14:27:00,,,1509,-30,-0.5235987755982988,L,L,1,0
Control,12_10_2016 level15_700_Robin 14_27 log,40,0,425.795,0,3,60,700,1041,0.0,3,426.953,1,736615.607034,Aud,2016-10-12 14:27:00,,,1509,60,1.0471975511965976,R,R,1,0
Control,12_10_2016 level15_700_Robin 14_27 log,41,0,435.948,0,8,-90,700,1161,0.0,8,437.25,1,736615.607153,Aud,2016-10-12 14:27:00,,,1509,-90,-1.5707963267948966,L,L,1,0
Control,12_10_2016 level15_700_Robin 14_27 log,42,0,452.695,0,3,60,700,1181,4.5,3,454.148,1,736615.607349,Aud,2016-10-12 14:27:00,,,1509,60,1.0471975511965976,R,R,1,0
Control,12_10_2016 level15_700_Robin 14_27 log,43,0,462.837,0,2,90,700,1121,4.5,2,464.628,1,736615.60747,Aud,2016-10-12 14:27:00,,,1509,90,1.5707963267948966,R,R,1,0
Control,12_10_2016 level15_700_Robin 14_27 log,44,0,477.281,0,2,90,700,1081,9.0,3,478.46,0,736615.607629,Aud,2016-10-12 14:27:00,,,1509,60,1.5707963267948966,R,R,1,30
Control,12_10_2016 level15_700_Robin 14_27 log,46,0,500.874,1,7,-60,700,1021,4.5,6,506.292,0,736615.607953,Aud,2016-10-12 14:27:00,,,1509,-30,-1.0471975511965976,L,L,1,30
Control,12_10_2016 level15_700_Robin 14_27 log,50,0,553.852,0,7,-60,700,1201,9.0,6,555.004,0,736615.608515,Aud,2016-10-12 14:27:00,,,1509,-30,-1.0471975511965976,L,L,1,30
Control,12_10_2016 level15_700_Robin 14_27 log,52,0,577.562,0,4,30,700,1161,9.0,4,578.657,1,736615.608789,Aud,2016-10-12 14:27:00,,,1509,30,0.5235987755982988,R,R,1,0
Control,12_10_2016 level15_700_Robin 14_27 log,53,0,592.903,0,8,-90,700,1061,4.5,7,594.432,0,736615.608971,Aud,2016-10-12 14:27:00,,,1509,-60,-1.5707963267948966,L,L,1,30
Control,12_10_2016 level15_700_Robin 14_27 log,55,0,618.13,0,6,-30,700,1041,4.5,6,619.392,1,736615.609261,Aud,2016-10-12 14:27:00,,,1509,-30,-0.5235987755982988,L,L,1,0
Control,12_10_2016 level15_700_Robin 14_27 log,56,0,627.186,0,8,-90,700,1001,9.0,6,628.437,0,736615.609366,Aud,2016-10-12 14:27:00,,,1509,-30,-1.5707963267948966,L,L,1,60
Control,12_10_2016 level15_700_Robin 14_27 log,60,0,661.832,1,7,-60,700,1121,9.0,6,666.299,0,736615.609804,Aud,2016-10-12 14:27:00,,,1509,-30,-1.0471975511965976,L,L,1,30
Control,12_10_2016 level15_700_Robin 14_27 log,63,0,708.528,0,4,30,700,1141,0.0,3,709.734,0,736615.610307,Aud,2016-10-12 14:27:00,,,1509,60,0.5235987755982988,R,R,1,30
Control,12_10_2016 level15_700_Robin 14_27 log,65,0,729.18,0,2,90,700,1181,0.0,2,730.631,1,736615.610549,Aud,2016-10-12 14:27:00,,,1509,90,1.5707963267948966,R,R,1,0
Control,12_10_2016 level15_700_Robin 14_27 log,66,0,745.267,0,4,30,700,1101,4.5,2,746.556,0,736615.610732,Aud,2016-10-12 14:27:00,,,1509,90,0.5235987755982988,R,R,1,60
Control,12_10_2016 level15_700_Robin 14_27 log,69,0,770.418,0,3,60,700,1141,0.0,3,771.573,1,736615.611022,Aud,2016-10-12 14:27:00,,,1509,60,1.0471975511965976,R,R,1,0
Control,12_10_2016 level15_700_Robin 14_27 log,70,0,780.137,0,8,-90,700,1021,9.0,8,781.962,1,736615.611142,Aud,2016-10-12 14:27:00,,,1509,-90,-1.5707963267948966,L,L,1,0
Control,12_10_2016 level15_700_Robin 14_27 log,71,0,794.619,0,3,60,700,1161,9.0,3,795.672,1,736615.611301,Aud,2016-10-12 14:27:00,,,1509,60,1.0471975511965976,R,R,1,0
Control,12_10_2016 level15_700_Robin 14_27 log,72,0,803.969,0,7,-60,700,1201,4.5,6,805.2,0,736615.611412,Aud,2016-10-12 14:27:00,,,1509,-30,-1.0471975511965976,L,L,1,30
Control,12_10_2016 level15_700_Robin 14_27 log,76,0,851.298,0,6,-30,700,1041,9.0,7,852.635,0,736615.61196,Aud,2016-10-12 14:27:00,,,1509,-60,-0.5235987755982988,L,L,1,30
Control,8_9_2016 level15_700_Robin 14_48 log,1,0,228.909,0,7,-60,700,1081,4.5,2,233.947,0,736581.619657,Aud,2016-09-08 14:48:00,,,1509,90,-1.0471975511965976,L,R,0,150
Control,8_9_2016 level15_700_Robin 14_48 log,4,0,275.167,0,7,-60,700,1121,9.0,6,276.857,0,736581.620154,Aud,2016-09-08 14:48:00,,,1509,-30,-1.0471975511965976,L,L,1,30
Control,8_9_2016 level15_700_Robin 14_48 log,6,0,305.529,0,4,30,700,1101,0.0,3,307.344,0,736581.620506,Aud,2016-09-08 14:48:00,,,1509,60,0.5235987755982988,R,R,1,30
Control,8_9_2016 level15_700_Robin 14_48 log,8,0,333.76,0,2,90,700,1061,4.5,3,336.268,0,736581.620841,Aud,2016-09-08 14:48:00,,,1509,60,1.5707963267948966,R,R,1,30
Control,8_9_2016 level15_700_Robin 14_48 log,10,0,357.096,1,2,90,700,1181,4.5,3,358.905,0,736581.621103,Aud,2016-09-08 14:48:00,,,1509,60,1.5707963267948966,R,R,1,30
Control,8_9_2016 level15_700_Robin 14_48 log,14,0,404.252,1,6,-30,700,1161,9.0,7,406.273,0,736581.621652,Aud,2016-09-08 14:48:00,,,1509,-60,-0.5235987755982988,L,L,1,30
Control,8_9_2016 level15_700_Robin 14_48 log,16,0,425.047,0,4,30,700,1001,9.0,4,426.765,1,736581.621889,Aud,2016-09-08 14:48:00,,,1509,30,0.5235987755982988,R,R,1,0
Control,8_9_2016 level15_700_Robin 14_48 log,17,0,437.182,0,8,-90,700,1201,0.0,7,438.516,0,736581.622025,Aud,2016-09-08 14:48:00,,,1509,-60,-1.5707963267948966,L,L,1,30
Control,8_9_2016 level15_700_Robin 14_48 log,19,0,474.286,0,6,-30,700,1141,9.0,6,475.661,1,736581.622455,Aud,2016-09-08 14:48:00,,,1509,-30,-0.5235987755982988,L,L,1,0
Control,8_9_2016 level15_700_Robin 14_48 log,20,0,485.091,0,3,60,700,1041,4.5,2,486.338,0,736581.622579,Aud,2016-09-08 14:48:00,,,1509,90,1.0471975511965976,R,R,1,30
Control,8_9_2016 level15_700_Robin 14_48 log,22,0,501.815,1,8,-90,700,1001,9.0,6,503.256,0,736581.622773,Aud,2016-09-08 14:48:00,,,1509,-30,-1.5707963267948966,L,L,1,60
Control,8_9_2016 level15_700_Robin 14_48 log,24,0,522.609,0,3,60,700,1121,4.5,3,524.255,1,736581.623017,Aud,2016-09-08 14:48:00,,,1509,60,1.0471975511965976,R,R,1,0
Control,8_9_2016 level15_700_Robin 14_48 log,25,0,534.803,0,7,-60,700,1161,4.5,6,536.229,0,736581.623155,Aud,2016-09-08 14:48:00,,,1509,-30,-1.0471975511965976,L,L,1,30
Control,8_9_2016 level15_700_Robin 14_48 log,28,0,575.898,0,6,-30,700,1021,9.0,6,577.081,1,736581.623628,Aud,2016-09-08 14:48:00,,,1509,-30,-0.5235987755982988,L,L,1,0
Control,8_9_2016 level15_700_Robin 14_48 log,29,0,585.734,0,4,30,700,1141,4.5,4,591.079,1,736581.62379,Aud,2016-09-08 14:48:00,,,1509,30,0.5235987755982988,R,R,1,0
Control,8_9_2016 level15_700_Robin 14_48 log,30,0,603.538,0,2,90,700,1061,0.0,2,612.835,1,736581.624042,Aud,2016-09-08 14:48:00,,,1509,90,1.5707963267948966,R,R,1,0
Control,8_9_2016 level15_700_Robin 14_48 log,31,0,631.081,0,3,60,700,1081,0.0,3,633.202,1,736581.624277,Aud,2016-09-08 14:48:00,,,1509,60,1.0471975511965976,R,R,1,0
Control,8_9_2016 level15_700_Robin 14_48 log,32,0,647.756,0,6,-30,700,1181,4.5,6,649.161,1,736581.624463,Aud,2016-09-08 14:48:00,,,1509,-30,-0.5235987755982988,L,L,1,0
Control,8_9_2016 level15_700_Robin 14_48 log,33,0,658.857,0,8,-90,700,1101,4.5,7,659.944,0,736581.624588,Aud,2016-09-08 14:48:00,,,1509,-60,-1.5707963267948966,L,L,1,30
Control,8_9_2016 level15_700_Robin 14_48 log,36,0,684.408,0,8,-90,700,1041,9.0,6,685.93,0,736581.624888,Aud,2016-09-08 14:48:00,,,1509,-30,-1.5707963267948966,L,L,1,60
Control,8_9_2016 level15_700_Robin 14_48 log,38,0,710.592,0,2,90,700,1181,9.0,2,711.656,1,736581.625186,Aud,2016-09-08 14:48:00,,,1509,90,1.5707963267948966,R,R,1,0
Control,8_9_2016 level15_700_Robin 14_48 log,39,0,725.358,0,3,60,700,1121,0.0,2,726.583,0,736581.625359,Aud,2016-09-08 14:48:00,,,1509,90,1.0471975511965976,R,R,1,30
Control,8_9_2016 level15_700_Robin 14_48 log,41,0,741.557,0,4,30,700,1041,4.5,4,743.246,1,736581.625552,Aud,2016-09-08 14:48:00,,,1509,30,0.5235987755982988,R,R,1,0
Control,8_9_2016 level15_700_Robin 14_48 log,42,0,762.806,0,7,-60,700,1001,0.0,6,764.224,0,736581.625795,Aud,2016-09-08 14:48:00,,,1509,-30,-1.0471975511965976,L,L,1,30
Control,8_9_2016 level15_700_Robin 14_48 log,47,0,816.424,0,4,30,700,1161,4.5,3,817.546,0,736581.626411,Aud,2016-09-08 14:48:00,,,1509,60,0.5235987755982988,R,R,1,30
Control,8_9_2016 level15_700_Robin 14_48 log,50,0,854.438,0,2,90,700,1081,0.0,2,855.722,1,736581.626853,Aud,2016-09-08 14:48:00,,,1509,90,1.5707963267948966,R,R,1,0
Control,8_9_2016 level15_700_Robin 14_48 log,51,0,870.924,0,7,-60,700,1201,9.0,6,871.922,0,736581.62704,Aud,2016-09-08 14:48:00,,,1509,-30,-1.0471975511965976,L,L,1,30
Control,8_9_2016 level15_700_Robin 14_48 log,53,0,962.963,0,8,-90,700,1141,0.0,6,964.808,0,736581.628116,Aud,2016-09-08 14:48:00,,,1509,-30,-1.5707963267948966,L,L,1,60
Control,8_9_2016 level15_700_Robin 14_48 log,56,0,1017.899,0,8,-90,700,1061,0.0,7,1018.894,0,736581.628742,Aud,2016-09-08 14:48:00,,,1509,-60,-1.5707963267948966,L,L,1,30
Control,8_9_2016 level15_700_Robin 14_48 log,60,0,1080.271,0,3,60,700,1101,4.5,3,1082.624,1,736581.62948,Aud,2016-09-08 14:48:00,,,1509,60,1.0471975511965976,R,R,1,0
Control,8_9_2016 level15_700_Robin 14_48 log,61,0,1092.851,0,4,30,700,1141,4.5,4,1094.28,1,736581.629615,Aud,2016-09-08 14:48:00,,,1509,30,0.5235987755982988,R,R,1,0
Control,8_9_2016 level15_700_Robin 14_48 log,62,0,1104.894,0,3,60,700,1121,9.0,3,1106.141,1,736581.629752,Aud,2016-09-08 14:48:00,,,1509,60,1.0471975511965976,R,R,1,0
Control,8_9_2016 level15_700_Robin 14_48 log,63,0,1114.485,0,6,-30,700,1101,4.5,6,1115.761,1,736581.629863,Aud,2016-09-08 14:48:00,,,1509,-30,-0.5235987755982988,L,L,1,0
Control,8_9_2016 level15_700_Robin 14_48 log,64,0,1123.678,0,7,-60,700,1021,9.0,6,1124.889,0,736581.629969,Aud,2016-09-08 14:48:00,,,1509,-30,-1.0471975511965976,L,L,1,30
Control,8_9_2016 level15_700_Robin 14_48 log,71,0,1246.53,1,2,90,700,1001,0.0,2,1251.168,1,736581.63143,Aud,2016-09-08 14:48:00,,,1509,90,1.5707963267948966,R,R,1,0
Control,8_9_2016 level15_700_Robin 14_48 log,72,0,1292.362,0,6,-30,700,1181,9.0,2,1296.469,0,736581.631954,Aud,2016-09-08 14:48:00,,,1509,90,-0.5235987755982988,L,R,0,120
Control,17_10_2016 level15_700_Robin 14_20 log,1,0,90.739,0,8,-90,700,1181,4.5,8,92.198,1,736620.59851,Aud,2016-10-17 14:20:00,,,1509,-90,-1.5707963267948966,L,L,1,0
Control,17_10_2016 level15_700_Robin 14_20 log,2,0,106.55,0,4,30,700,1061,9.0,4,107.757,1,736620.598689,Aud,2016-10-17 14:20:00,,,1509,30,0.5235987755982988,R,R,1,0
Control,17_10_2016 level15_700_Robin 14_20 log,3,0,124.946,0,7,-60,700,1081,0.0,7,126.466,1,736620.598907,Aud,2016-10-17 14:20:00,,,1509,-60,-1.0471975511965976,L,L,1,0
Control,17_10_2016 level15_700_Robin 14_20 log,4,0,138.388,0,2,90,700,1021,9.0,4,139.585,0,736620.599058,Aud,2016-10-17 14:20:00,,,1509,30,1.5707963267948966,R,R,1,60
Control,17_10_2016 level15_700_Robin 14_20 log,6,0,157.501,0,3,60,700,1161,4.5,3,158.618,1,736620.599278,Aud,2016-10-17 14:20:00,,,1509,60,1.0471975511965976,R,R,1,0
Control,17_10_2016 level15_700_Robin 14_20 log,7,0,165.597,0,7,-60,700,1121,0.0,8,167.461,0,736620.599381,Aud,2016-10-17 14:20:00,,,1509,-90,-1.0471975511965976,L,L,1,30
Control,17_10_2016 level15_700_Robin 14_20 log,10,0,228.733,0,2,90,700,1041,0.0,2,230.068,1,736620.600105,Aud,2016-10-17 14:20:00,,,1509,90,1.5707963267948966,R,R,1,0
Control,17_10_2016 level15_700_Robin 14_20 log,11,0,241.914,0,3,60,700,1201,4.5,3,243.193,1,736620.600257,Aud,2016-10-17 14:20:00,,,1509,60,1.0471975511965976,R,R,1,0
Control,17_10_2016 level15_700_Robin 14_20 log,12,0,250.223,0,6,-30,700,1101,0.0,6,251.424,1,736620.600352,Aud,2016-10-17 14:20:00,,,1509,-30,-0.5235987755982988,L,L,1,0
Control,17_10_2016 level15_700_Robin 14_20 log,13,0,259.872,0,4,30,700,1001,4.5,4,260.913,1,736620.600462,Aud,2016-10-17 14:20:00,,,1509,30,0.5235987755982988,R,R,1,0
Control,17_10_2016 level15_700_Robin 14_20 log,14,0,275.679,0,6,-30,700,1181,4.5,7,277.301,0,736620.600652,Aud,2016-10-17 14:20:00,,,1509,-60,-0.5235987755982988,L,L,1,30
Control,17_10_2016 level15_700_Robin 14_20 log,31,0,601.338,0,8,-90,700,1021,0.0,8,602.342,1,736620.604413,Aud,2016-10-17 14:20:00,,,1509,-90,-1.5707963267948966,L,L,1,0
Control,17_10_2016 level15_700_Robin 14_20 log,32,0,616.416,0,6,-30,700,1061,4.5,6,617.633,1,736620.60459,Aud,2016-10-17 14:20:00,,,1509,-30,-0.5235987755982988,L,L,1,0
Control,17_10_2016 level15_700_Robin 14_20 log,33,0,626.745,0,2,90,700,1041,0.0,3,627.832,0,736620.604708,Aud,2016-10-17 14:20:00,,,1509,60,1.5707963267948966,R,R,1,30
Control,17_10_2016 level15_700_Robin 14_20 log,35,0,674.072,0,7,-60,700,1141,9.0,3,675.513,0,736620.605261,Aud,2016-10-17 14:20:00,,,1509,60,-1.0471975511965976,L,R,0,120
Control,17_10_2016 level15_700_Robin 14_20 log,38,0,709.195,0,8,-90,700,1121,0.0,6,710.412,0,736620.605665,Aud,2016-10-17 14:20:00,,,1509,-30,-1.5707963267948966,L,L,1,60
Control,17_10_2016 level15_700_Robin 14_20 log,40,0,734.758,0,6,-30,700,1081,0.0,6,735.88,1,736620.60596,Aud,2016-10-17 14:20:00,,,1509,-30,-0.5235987755982988,L,L,1,0
Control,17_10_2016 level15_700_Robin 14_20 log,41,0,745.359,0,8,-90,700,1001,4.5,7,747.052,0,736620.606088,Aud,2016-10-17 14:20:00,,,1509,-60,-1.5707963267948966,L,L,1,30
Control,17_10_2016 level15_700_Robin 14_20 log,44,0,788.367,1,4,30,700,1161,4.5,3,789.902,0,736620.606585,Aud,2016-10-17 14:20:00,,,1509,60,0.5235987755982988,R,R,1,30
Control,17_10_2016 level15_700_Robin 14_20 log,47,0,814.757,0,3,60,700,1201,0.0,3,815.68,1,736620.606883,Aud,2016-10-17 14:20:00,,,1509,60,1.0471975511965976,R,R,1,0
Control,17_10_2016 level15_700_Robin 14_20 log,48,0,823.464,0,4,30,700,1081,4.5,3,824.536,0,736620.606985,Aud,2016-10-17 14:20:00,,,1509,60,0.5235987755982988,R,R,1,30
Control,17_10_2016 level15_700_Robin 14_20 log,50,0,845.049,0,2,90,700,1141,0.0,2,846.351,1,736620.607237,Aud,2016-10-17 14:20:00,,,1509,90,1.5707963267948966,R,R,1,0
Control,17_10_2016 level15_700_Robin 14_20 log,51,0,858.644,0,3,60,700,1121,4.5,2,859.849,0,736620.607394,Aud,2016-10-17 14:20:00,,,1509,90,1.0471975511965976,R,R,1,30
Control,17_10_2016 level15_700_Robin 14_20 log,53,0,874.409,0,7,-60,700,1101,9.0,4,876.052,0,736620.607581,Aud,2016-10-17 14:20:00,,,1509,30,-1.0471975511965976,L,R,0,90
Control,17_10_2016 level15_700_Robin 14_20 log,56,0,910.549,1,4,30,700,1021,9.0,3,913.253,0,736620.608012,Aud,2016-10-17 14:20:00,,,1509,60,0.5235987755982988,R,R,1,30
Control,17_10_2016 level15_700_Robin 14_20 log,58,0,944.362,0,6,-30,700,1041,4.5,6,945.745,1,736620.608388,Aud,2016-10-17 14:20:00,,,1509,-30,-0.5235987755982988,L,L,1,0
Control,17_10_2016 level15_700_Robin 14_20 log,59,0,956.599,1,2,90,700,1061,4.5,2,957.828,1,736620.608528,Aud,2016-10-17 14:20:00,,,1509,90,1.5707963267948966,R,R,1,0
Control,17_10_2016 level15_700_Robin 14_20 log,60,0,969.618,0,4,30,700,1201,9.0,4,970.632,1,736620.608676,Aud,2016-10-17 14:20:00,,,1509,30,0.5235987755982988,R,R,1,0
Control,17_10_2016 level15_700_Robin 14_20 log,61,0,980.394,0,8,-90,700,1161,4.5,7,981.539,0,736620.608802,Aud,2016-10-17 14:20:00,,,1509,-60,-1.5707963267948966,L,L,1,30
Control,17_10_2016 level15_700_Robin 14_20 log,63,0,1004.969,0,8,-90,700,1181,0.0,7,1006.482,0,736620.609092,Aud,2016-10-17 14:20:00,,,1509,-60,-1.5707963267948966,L,L,1,30
Control,17_10_2016 level15_700_Robin 14_20 log,66,0,1042.551,0,6,-30,700,1061,0.0,6,1043.573,1,736620.609521,Aud,2016-10-17 14:20:00,,,1509,-30,-0.5235987755982988,L,L,1,0
Control,17_10_2016 level15_700_Robin 14_20 log,67,0,1051.348,1,3,60,700,1081,4.5,2,1052.478,0,736620.609624,Aud,2016-10-17 14:20:00,,,1509,90,1.0471975511965976,R,R,1,30
Control,17_10_2016 level15_700_Robin 14_20 log,69,0,1066.6,0,7,-60,700,1121,4.5,3,1067.992,0,736620.609803,Aud,2016-10-17 14:20:00,,,1509,60,-1.0471975511965976,L,R,0,120
Control,17_10_2016 level15_700_Robin 14_20 log,75,0,1171.767,0,3,60,700,1021,9.0,3,1172.93,1,736620.611017,Aud,2016-10-17 14:20:00,,,1509,60,1.0471975511965976,R,R,1,0
Control,17_10_2016 level15_700_Robin 14_20 log,76,0,1183.288,0,2,90,700,1161,0.0,3,1184.409,0,736620.61115,Aud,2016-10-17 14:20:00,,,1509,60,1.5707963267948966,R,R,1,30
Control,17_10_2016 level15_700_Robin 14_20 log,78,0,1200.93,0,7,-60,700,1001,4.5,2,1202.264,0,736620.611358,Aud,2016-10-17 14:20:00,,,1509,90,-1.0471975511965976,L,R,0,150
Control,10_10_2016 level15_700_Robin 9_12 log,1,0,38.675,0,4,30,700,1121,4.5,4,40.497,1,736613.384393,Aud,2016-10-10 09:12:00,,,1509,30,0.5235987755982988,R,R,1,0
Control,10_10_2016 level15_700_Robin 9_12 log,2,0,57.047,0,6,-30,700,1081,9.0,7,58.941,0,736613.384607,Aud,2016-10-10 09:12:00,,,1509,-60,-0.5235987755982988,L,L,1,30
Control,10_10_2016 level15_700_Robin 9_12 log,5,0,106.512,1,7,-60,700,1061,9.0,3,107.722,0,736613.385172,Aud,2016-10-10 09:12:00,,,1509,60,-1.0471975511965976,L,R,0,120
Control,10_10_2016 level15_700_Robin 9_12 log,10,0,159.19,0,3,60,700,1001,0.0,3,160.457,1,736613.385782,Aud,2016-10-10 09:12:00,,,1509,60,1.0471975511965976,R,R,1,0
Control,10_10_2016 level15_700_Robin 9_12 log,11,0,168.49,0,2,90,700,1181,9.0,2,169.988,1,736613.385892,Aud,2016-10-10 09:12:00,,,1509,90,1.5707963267948966,R,R,1,0
Control,10_10_2016 level15_700_Robin 9_12 log,12,0,193.994,0,6,-30,700,1141,4.5,6,195.538,1,736613.386188,Aud,2016-10-10 09:12:00,,,1509,-30,-0.5235987755982988,L,L,1,0
Control,10_10_2016 level15_700_Robin 9_12 log,13,0,206.439,0,7,-60,700,1021,0.0,6,207.836,0,736613.386331,Aud,2016-10-10 09:12:00,,,1509,-30,-1.0471975511965976,L,L,1,30
Control,10_10_2016 level15_700_Robin 9_12 log,17,0,263.286,0,2,90,700,1201,4.5,2,264.703,1,736613.386988,Aud,2016-10-10 09:12:00,,,1509,90,1.5707963267948966,R,R,1,0
Control,10_10_2016 level15_700_Robin 9_12 log,18,0,269.562,0,3,60,700,1041,9.0,3,271.25,1,736613.387065,Aud,2016-10-10 09:12:00,,,1509,60,1.0471975511965976,R,R,1,0
Control,10_10_2016 level15_700_Robin 9_12 log,19,0,279.865,0,8,-90,700,1101,0.0,8,281.109,1,736613.387179,Aud,2016-10-10 09:12:00,,,1509,-90,-1.5707963267948966,L,L,1,0
Control,10_10_2016 level15_700_Robin 9_12 log,20,0,298.336,0,8,-90,700,1041,4.5,6,299.519,0,736613.387392,Aud,2016-10-10 09:12:00,,,1509,-30,-1.5707963267948966,L,L,1,60
Control,10_10_2016 level15_700_Robin 9_12 log,22,0,323.554,0,4,30,700,1001,9.0,3,326.115,0,736613.3877,Aud,2016-10-10 09:12:00,,,1509,60,0.5235987755982988,R,R,1,30
Control,10_10_2016 level15_700_Robin 9_12 log,25,0,349.293,0,8,-90,700,1121,0.0,8,350.656,1,736613.387983,Aud,2016-10-10 09:12:00,,,1509,-90,-1.5707963267948966,L,L,1,0
Control,10_10_2016 level15_700_Robin 9_12 log,26,0,370.388,0,2,90,700,1021,4.5,3,371.571,0,736613.388225,Aud,2016-10-10 09:12:00,,,1509,60,1.5707963267948966,R,R,1,30
Control,10_10_2016 level15_700_Robin 9_12 log,29,0,405.995,0,8,-90,700,1201,9.0,8,407.709,1,736613.388643,Aud,2016-10-10 09:12:00,,,1509,-90,-1.5707963267948966,L,L,1,0
