Trial	CorrectionTrial?	StartTime	CenterReward?	SpkrIdx	SpkrPos	duration	HoldTime	Atten	Response	RespTime	Correct	ComputerTime	SoundOrLED	
1	0	605.784	0	6	30	700	1081	9.0	3	607.687	0	736628.359292	0	
2	1	644.108	0	6	30	700	1081	9.0	6	645.790	1	736628.359733	0	
3	0	660.447	0	3	-60	700	1141	0.0	3	662.062	1	736628.359920	0	
4	0	677.449	0	2	-90	700	1061	0.0	2	679.348	1	736628.360120	0	
5	0	693.753	0	8	90	700	1201	9.0	8	695.533	1	736628.360308	0	
6	0	708.757	0	4	-30	700	1121	0.0	4	710.153	1	736628.360477	0	
7	0	724.162	0	7	60	700	1181	4.5	7	725.503	1	736628.360655	0	
8	0	738.259	1	8	90	700	1161	4.5	8	751.660	1	736628.360957	0	
9	0	766.011	0	2	-90	700	1001	9.0	3	767.783	0	736628.361144	0	
10	1	772.902	0	2	-90	700	1001	9.0	3	774.728	0	736628.361225	0	
11	1	779.886	0	2	-90	700	1001	9.0	2	781.884	1	736628.361307	0	
12	0	791.343	0	7	60	700	1021	9.0	8	793.516	0	736628.361442	0	
13	1	804.449	0	7	60	700	1021	9.0	6	806.509	0	736628.361593	0	
14	1	812.054	0	7	60	700	1021	9.0	8	814.043	0	736628.361680	0	
15	1	821.558	0	7	60	700	1021	9.0	3	829.195	0	736628.361855	0	
16	0	838.148	0	6	30	700	1101	0.0	7	840.204	0	736628.361983	0	
17	1	845.705	0	6	30	700	1101	0.0	8	847.350	0	736628.362065	0	
18	1	860.884	0	6	30	700	1101	0.0	7	863.028	0	736628.362247	0	
19	1	869.088	0	6	30	700	1101	0.0	2	874.011	0	736628.362374	0	
20	1	879.302	0	6	30	700	1101	0.0	4	882.641	0	736628.362474	0	
21	1	887.888	0	6	30	700	1101	0.0	8	889.797	0	736628.362557	0	
22	0	898.784	0	3	-60	700	1041	0.0	2	906.248	0	736628.362747	0	
23	1	911.989	0	3	-60	700	1041	0.0	2	913.808	0	736628.362835	0	
24	1	919.229	0	3	-60	700	1041	0.0	2	921.070	0	736628.362918	0	
25	1	926.228	1	3	-60	700	1041	0.0	2	932.226	0	736628.363048	0	
26	1	947.776	1	3	-60	700	1041	0.0	8	956.124	0	736628.363324	0	
27	1	961.330	0	3	-60	700	1041	0.0	4	963.792	0	736628.363413	0	
28	0	968.885	0	4	-30	700	1061	4.5	2	970.868	0	736628.363494	0	
29	1	985.086	0	4	-30	700	1061	4.5	-1	-1.000	0	736628.363832	0	
30	0	1014.382	0	7	60	700	1121	9.0	4	1019.053	0	736628.364052	0	
31	1	1031.717	0	7	60	700	1121	9.0	8	1033.600	0	736628.364220	0	
32	1	1039.904	0	7	60	700	1121	9.0	8	1045.963	0	736628.364364	0	
33	1	1051.210	0	7	60	700	1121	9.0	7	1052.861	1	736628.364443	0	
34	0	1063.689	0	6	30	700	1101	0.0	7	1065.209	0	736628.364587	0	
35	1	1070.491	0	6	30	700	1101	0.0	8	1071.772	0	736628.364662	0	
36	1	1079.214	0	6	30	700	1101	0.0	8	1080.943	0	736628.364769	0	
37	1	1089.802	1	6	30	700	1101	0.0	8	1096.433	0	736628.364948	0	
38	1	1101.691	0	6	30	700	1101	0.0	8	1104.344	0	736628.365039	0	
39	1	1113.938	0	6	30	700	1101	0.0	2	1115.174	0	736628.365164	0	
40	0	1124.637	0	4	-30	700	1201	9.0	4	1126.279	1	736628.365293	0	
41	0	1142.552	0	8	90	700	1161	0.0	8	1144.026	1	736628.365499	0	
42	0	1154.547	0	4	-30	700	1141	9.0	4	1155.995	1	736628.365638	0	
43	0	1172.987	0	3	-60	700	1081	4.5	4	1174.586	0	736628.365852	0	
44	1	1179.772	0	3	-60	700	1081	4.5	4	1182.530	0	736628.365945	0	
45	1	1197.232	0	3	-60	700	1081	4.5	8	1203.553	0	736628.366188	0	
46	0	1218.549	0	2	-90	700	1181	9.0	4	1221.777	0	736628.366398	0	
47	1	1228.122	0	2	-90	700	1181	9.0	2	1235.564	1	736628.366558	0	
48	0	1243.993	0	8	90	700	1121	4.5	8	1246.001	1	736628.366680	0	
49	0	1256.281	0	2	-90	700	1061	9.0	4	1258.220	0	736628.366821	0	
50	1	1263.453	0	2	-90	700	1061	9.0	4	1265.049	0	736628.366900	0	
51	1	1270.353	0	2	-90	700	1061	9.0	2	1274.404	1	736628.367008	0	
52	0	1285.509	0	3	-60	700	1021	0.0	6	1287.359	0	736628.367158	0	
53	1	1304.735	0	3	-60	700	1021	0.0	2	1307.315	0	736628.367389	0	
54	1	1312.513	0	3	-60	700	1021	0.0	3	1314.045	1	736628.367467	0	
55	0	1324.836	0	7	60	700	1081	4.5	8	1326.596	0	736628.367612	0	
56	1	1331.874	0	7	60	700	1081	4.5	6	1333.550	0	736628.367692	0	
57	1	1339.968	0	7	60	700	1081	4.5	7	1341.950	1	736628.367789	0	
58	0	1354.999	0	7	60	700	1141	0.0	7	1356.408	1	736628.367957	0	
59	0	1365.843	0	7	60	700	1181	9.0	7	1367.330	1	736628.368083	0	
60	0	1382.239	0	4	-30	700	1041	9.0	4	1383.996	1	736628.368277	0	
61	0	1396.857	0	8	90	700	1201	4.5	8	1399.086	1	736628.368450	0	
62	0	1409.684	0	3	-60	700	1101	9.0	6	1411.245	0	736628.368592	0	
63	1	1416.494	0	3	-60	700	1101	9.0	4	1419.799	0	736628.368691	0	
64	1	1425.096	0	3	-60	700	1101	9.0	2	1427.208	0	736628.368777	0	
65	1	1432.495	0	3	-60	700	1101	9.0	2	1434.215	0	736628.368858	0	
66	1	1439.509	0	3	-60	700	1101	9.0	3	1441.020	1	736628.368936	0	
67	0	1449.281	0	4	-30	700	1001	4.5	2	1451.365	0	736628.369056	0	
68	1	1456.496	0	4	-30	700	1001	4.5	8	1458.398	0	736628.369138	0	
69	1	1468.957	1	4	-30	700	1001	4.5	2	1473.789	0	736628.369315	0	
70	1	1478.895	0	4	-30	700	1001	4.5	6	1480.430	0	736628.369392	0	
71	1	1485.602	0	4	-30	700	1001	4.5	7	1487.350	0	736628.369472	0	
72	1	1492.867	0	4	-30	700	1001	4.5	7	1494.631	0	736628.369557	0	
73	1	1499.796	0	4	-30	700	1001	4.5	8	1501.372	0	736628.369634	0	
74	1	1512.875	0	4	-30	700	1001	4.5	8	1518.571	0	736628.369833	0	
75	1	1524.571	0	4	-30	700	1001	4.5	6	1526.872	0	736628.369930	0	
76	1	1532.010	0	4	-30	700	1001	4.5	8	1533.407	0	736628.370006	0	
77	1	1538.596	0	4	-30	700	1001	4.5	8	1540.554	0	736628.370088	0	
78	1	1545.697	0	4	-30	700	1001	4.5	3	1547.236	0	736628.370166	0	
79	1	1552.396	0	4	-30	700	1001	4.5	7	1554.108	0	736628.370245	0	
80	1	1562.925	1	4	-30	700	1001	4.5	8	1573.195	0	736628.370465	0	
81	1	1578.992	0	4	-30	700	1001	4.5	7	1580.981	0	736628.370556	0	
82	1	1586.096	0	4	-30	700	1001	4.5	2	1589.580	0	736628.370655	0	
83	1	1594.697	0	4	-30	700	1001	4.5	4	1596.833	1	736628.370740	0	
84	0	1610.281	0	6	30	700	1101	0.0	6	1611.444	1	736628.370909	0	
85	0	1620.175	0	6	30	700	1161	4.5	7	1621.797	0	736628.371028	0	
86	1	1627.071	0	6	30	700	1161	4.5	7	1629.397	0	736628.371116	0	
87	1	1639.519	0	6	30	700	1161	4.5	7	1641.984	0	736628.371262	0	
88	1	1652.152	0	6	30	700	1161	4.5	2	1656.644	0	736628.371432	0	
89	1	1668.239	0	6	30	700	1161	4.5	-1	-1.000	0	736628.371740	0	
90	0	1689.596	0	2	-90	700	1121	4.5	8	1694.851	0	736628.371874	0	
91	1	1701.744	0	2	-90	700	1121	4.5	4	1703.460	0	736628.371974	0	
92	1	1709.266	0	2	-90	700	1121	4.5	2	1711.367	1	736628.372065	0	
93	0	1723.536	0	2	-90	700	1061	0.0	6	1724.997	0	736628.372222	0	
94	1	1747.945	0	2	-90	700	1061	0.0	2	1756.279	1	736628.372585	0	
95	0	1767.350	0	3	-60	700	1001	0.0	2	1769.530	0	736628.372739	0	
96	1	1774.698	0	3	-60	700	1001	0.0	6	1776.491	0	736628.372818	0	
97	1	1782.328	1	3	-60	700	1001	0.0	-1	-1.000	0	736628.373060	0	
98	0	1801.349	0	8	90	700	1041	4.5	3	1806.976	0	736628.373171	0	
99	1	1813.135	0	8	90	700	1041	4.5	-1	-1.000	0	736628.373417	0	
100	0	1834.480	0	7	60	700	1141	0.0	8	1836.034	0	736628.373508	0	
101	1	1846.214	0	7	60	700	1141	0.0	2	1850.934	0	736628.373681	0	
102	1	1873.644	0	7	60	700	1141	0.0	8	1884.804	0	736628.374073	0	
103	1	1894.650	1	7	60	700	1141	0.0	-1	-1.000	0	736628.374360	0	
104	0	1982.931	0	4	-30	700	1081	9.0	8	1987.080	0	736628.375256	0	
105	1	2000.965	0	4	-30	700	1081	9.0	3	2003.008	0	736628.375441	0	
106	1	2008.282	0	4	-30	700	1081	9.0	2	2011.662	0	736628.375541	0	
107	1	2026.273	0	4	-30	700	1081	9.0	2	2031.976	0	736628.375776	0	
108	1	2052.694	0	4	-30	700	1081	9.0	-1	-1.000	0	736628.376189	0	
