Trial	CorrectionTrial?	StartTime	CenterReward?	SpkrIdx	SpkrPos	duration	HoldTime	Atten	Response	RespTime	Correct	ComputerTime	SoundOrLED	
1	0	471.401	0	4	-30	700	1081	0.0	2	473.519	0	736607.633086	0	
2	1	616.989	0	4	-30	700	1081	0.0	4	618.564	1	736607.634765	0	
3	0	636.320	0	6	30	700	1101	4.5	4	638.049	0	736607.634990	0	
4	1	646.304	0	6	30	700	1101	4.5	4	650.977	0	736607.635140	0	
5	1	656.222	0	6	30	700	1101	4.5	3	664.572	0	736607.635298	0	
6	1	689.013	0	6	30	700	1101	4.5	-1	-1.000	0	736607.635753	0	
7	0	710.986	0	2	-90	700	1181	0.0	3	712.608	0	736607.635853	0	
8	1	717.913	0	2	-90	700	1181	0.0	3	719.293	0	736607.635930	0	
9	1	725.049	0	2	-90	700	1181	0.0	3	726.907	0	736607.636018	0	
10	1	745.365	0	2	-90	700	1181	0.0	4	747.281	0	736607.636254	0	
11	1	754.165	1	2	-90	700	1181	0.0	2	766.499	1	736607.636477	0	
12	0	780.957	0	3	-60	700	1021	4.5	3	785.053	1	736607.636692	0	
13	0	794.008	0	3	-60	700	1161	0.0	3	795.583	1	736607.636814	0	
14	0	805.633	0	4	-30	700	1001	4.5	3	807.722	0	736607.636953	0	
15	1	812.910	0	4	-30	700	1001	4.5	2	815.579	0	736607.637045	0	
16	1	822.326	0	4	-30	700	1001	4.5	3	823.898	0	736607.637141	0	
17	1	830.516	0	4	-30	700	1001	4.5	7	832.846	0	736607.637245	0	
18	1	838.537	0	4	-30	700	1001	4.5	3	840.300	0	736607.637331	0	
19	1	846.132	0	4	-30	700	1001	4.5	3	848.287	0	736607.637423	0	
20	1	862.000	0	4	-30	700	1001	4.5	3	863.667	0	736607.637602	0	
21	1	868.828	1	4	-30	700	1001	4.5	2	880.309	0	736607.637794	0	
22	1	885.677	0	4	-30	700	1001	4.5	4	887.604	1	736607.637878	0	
23	0	897.971	0	6	30	700	1121	0.0	6	900.126	1	736607.638024	0	
24	0	906.351	0	8	90	700	1061	9.0	8	908.615	1	736607.638121	0	
25	0	920.445	0	7	60	700	1201	0.0	4	923.329	0	736607.638292	0	
26	1	932.466	0	7	60	700	1201	0.0	6	934.290	0	736607.638419	0	
27	1	939.630	0	7	60	700	1201	0.0	4	942.251	0	736607.638511	0	
28	0	947.440	0	7	60	700	1141	4.5	8	950.287	0	736607.638604	0	
29	1	955.566	0	7	60	700	1141	4.5	8	957.771	0	736607.638691	0	
30	1	964.861	0	7	60	700	1141	4.5	3	971.863	0	736607.638854	0	
31	0	984.115	1	2	-90	700	1001	0.0	3	992.653	0	736607.639095	0	
32	1	997.825	0	2	-90	700	1001	0.0	2	999.786	1	736607.639177	0	
33	0	1011.826	0	8	90	700	1201	9.0	3	1013.874	0	736607.639340	0	
34	1	1020.319	0	8	90	700	1201	9.0	4	1025.383	0	736607.639474	0	
35	1	1055.426	0	8	90	700	1201	9.0	2	1067.650	0	736607.639963	0	
36	0	1074.485	0	3	-60	700	1101	9.0	3	1075.939	1	736607.640059	0	
37	0	1083.345	1	8	90	700	1041	4.5	2	1092.142	0	736607.640246	0	
38	1	1097.849	0	8	90	700	1041	4.5	7	1100.368	0	736607.640341	0	
39	1	1105.577	0	8	90	700	1041	4.5	7	1107.877	0	736607.640428	0	
40	1	1113.068	0	8	90	700	1041	4.5	7	1115.102	0	736607.640511	0	
41	0	1119.352	0	4	-30	700	1141	4.5	3	1120.660	0	736607.640576	0	
42	1	1125.969	0	4	-30	700	1141	4.5	3	1127.007	0	736607.640649	0	
43	1	1132.268	0	4	-30	700	1141	4.5	2	1140.082	0	736607.640801	0	
44	1	1146.358	0	4	-30	700	1141	4.5	4	1147.817	1	736607.640890	0	
45	0	1158.274	0	2	-90	700	1061	9.0	3	1160.172	0	736607.641033	0	
46	1	1165.388	0	2	-90	700	1061	9.0	2	1167.758	1	736607.641122	0	
47	0	1179.340	0	6	30	700	1181	9.0	6	1181.424	1	736607.641279	0	
48	0	1189.695	0	6	30	700	1021	0.0	6	1191.264	1	736607.641393	0	
49	0	1200.312	0	7	60	700	1161	9.0	6	1201.952	0	736607.641517	0	
50	1	1207.303	0	7	60	700	1161	9.0	4	1209.017	0	736607.641598	0	
51	1	1216.386	0	7	60	700	1161	9.0	6	1218.766	0	736607.641712	0	
52	1	1224.090	0	7	60	700	1161	9.0	4	1226.354	0	736607.641800	0	
53	0	1230.408	0	4	-30	700	1121	0.0	3	1231.390	0	736607.641857	0	
54	1	1237.593	1	4	-30	700	1121	0.0	2	1242.919	0	736607.641990	0	
55	1	1249.087	0	4	-30	700	1121	0.0	3	1250.832	0	736607.642082	0	
56	0	1255.369	0	7	60	700	1101	9.0	2	1260.561	0	736607.642195	0	
57	1	1270.626	0	7	60	700	1101	9.0	8	1280.603	0	736607.642427	0	
58	0	1286.421	0	2	-90	700	1121	4.5	2	1288.019	1	736607.642512	0	
59	0	1302.057	0	8	90	700	1181	4.5	6	1304.263	0	736607.642700	0	
60	1	1309.643	0	8	90	700	1181	4.5	8	1311.339	1	736607.642783	0	
61	0	1336.296	0	3	-60	700	1001	9.0	2	1338.293	0	736607.643095	0	
62	1	1343.431	0	3	-60	700	1001	9.0	2	1345.240	0	736607.643175	0	
63	1	1350.430	0	3	-60	700	1001	9.0	2	1351.842	0	736607.643251	0	
64	0	1355.462	0	4	-30	700	1081	0.0	3	1356.798	0	736607.643309	0	
65	1	1362.026	0	4	-30	700	1081	0.0	2	1363.833	0	736607.643390	0	
66	1	1369.122	0	4	-30	700	1081	0.0	2	1370.733	0	736607.643470	0	
67	0	1381.492	0	2	-90	700	1041	9.0	2	1387.265	1	736607.643662	0	
68	0	1404.599	1	8	90	700	1161	4.5	8	1411.516	1	736607.643942	0	
69	0	1445.772	0	8	90	700	1201	9.0	7	1448.278	0	736607.644368	0	
70	1	1453.638	0	8	90	700	1201	9.0	3	1455.605	0	736607.644452	0	
71	0	1487.954	0	4	-30	700	1021	9.0	2	1491.323	0	736607.644865	0	
