Trial	CorrectionTrial?	StartTime	CenterReward?	SpkrIdx	SpkrPos	duration	HoldTime	Atten	Response	RespTime	Correct	ComputerTime	SoundOrLED	
1	0	115.919	0	6	30	700	1061	0.0	6	117.402	1	736581.406997	0	
2	0	129.397	0	3	-60	700	1201	4.5	3	130.529	1	736581.407149	0	
3	0	145.733	0	4	-30	700	1121	9.0	4	147.044	1	736581.407341	0	
4	0	165.545	0	7	60	700	1161	0.0	7	167.099	1	736581.407573	0	
5	0	184.696	0	7	60	700	1101	0.0	6	185.939	0	736581.407792	0	
6	1	191.257	0	7	60	700	1101	0.0	7	192.877	1	736581.407871	0	
7	0	209.557	0	4	-30	700	1001	4.5	3	212.011	0	736581.408092	0	
8	1	217.139	0	4	-30	700	1001	4.5	4	218.590	1	736581.408169	0	
9	0	237.831	0	3	-60	700	1081	9.0	3	239.540	1	736581.408412	0	
10	0	251.232	0	8	90	700	1021	0.0	8	252.423	1	736581.408560	0	
11	0	269.228	0	2	-90	700	1041	0.0	2	271.482	1	736581.408781	0	
12	0	285.448	0	2	-90	700	1141	9.0	3	287.072	0	736581.408962	0	
13	1	295.250	0	2	-90	700	1141	9.0	2	296.723	1	736581.409073	0	
14	0	311.859	0	6	30	700	1001	4.5	6	313.195	1	736581.409264	0	
15	0	323.162	0	8	90	700	1081	9.0	8	324.230	1	736581.409391	0	
16	0	342.510	0	4	-30	700	1141	0.0	6	343.877	0	736581.409619	0	
17	1	360.526	0	4	-30	700	1141	0.0	2	361.634	0	736581.409824	0	
18	1	366.877	0	4	-30	700	1141	0.0	3	369.748	0	736581.409919	0	
19	1	375.087	1	4	-30	700	1141	0.0	4	376.411	1	736581.409995	0	
20	0	392.238	0	8	90	700	1161	9.0	6	393.543	0	736581.410194	0	
21	1	399.677	0	8	90	700	1161	9.0	8	401.301	1	736581.410284	0	
22	0	416.183	0	3	-60	700	1101	4.5	3	430.429	1	736581.410620	0	
23	0	444.174	1	6	30	700	1201	0.0	7	446.923	0	736581.410811	0	
24	1	453.579	0	6	30	700	1201	0.0	6	455.586	1	736581.410912	0	
25	0	467.331	0	3	-60	700	1181	0.0	3	468.604	1	736581.411062	0	
26	0	480.514	1	6	30	700	1121	4.5	2	482.303	0	736581.411222	0	
27	1	487.670	0	6	30	700	1121	4.5	7	489.090	0	736581.411300	0	
28	1	494.357	0	6	30	700	1121	4.5	7	495.609	0	736581.411375	0	
29	1	512.495	1	6	30	700	1121	4.5	8	516.865	0	736581.411621	0	
30	1	532.442	0	6	30	700	1121	4.5	6	533.936	1	736581.411819	0	
31	0	544.035	0	2	-90	700	1021	4.5	3	546.352	0	736581.411962	0	
32	1	551.475	0	2	-90	700	1021	4.5	2	553.083	1	736581.412040	0	
33	0	566.246	0	2	-90	700	1041	0.0	2	568.209	1	736581.412215	0	
34	0	577.267	0	4	-30	700	1101	9.0	3	579.669	0	736581.412348	0	
35	1	591.959	0	4	-30	700	1101	9.0	4	593.494	1	736581.412508	0	
36	0	610.528	0	7	60	700	1081	0.0	6	611.871	0	736581.412721	0	
37	1	617.112	0	7	60	700	1081	0.0	8	618.486	0	736581.412798	0	
38	1	623.853	0	7	60	700	1081	0.0	7	625.374	1	736581.412877	0	
39	0	638.128	0	7	60	700	1061	9.0	6	639.529	0	736581.413041	0	
40	1	644.789	0	7	60	700	1061	9.0	7	646.150	1	736581.413118	0	
41	0	662.177	0	8	90	700	1161	0.0	8	663.296	1	736581.413316	0	
42	0	677.887	0	2	-90	700	1181	0.0	3	679.466	0	736581.413503	0	
43	1	686.321	0	2	-90	700	1181	0.0	2	687.918	1	736581.413601	0	
44	0	700.276	0	8	90	700	1041	9.0	7	701.750	0	736581.413761	0	
45	1	706.894	0	8	90	700	1041	9.0	7	708.672	0	736581.413841	0	
46	1	713.912	0	8	90	700	1041	9.0	7	715.393	0	736581.413919	0	
47	1	721.365	0	8	90	700	1041	9.0	7	723.338	0	736581.414011	0	
48	1	728.589	0	8	90	700	1041	9.0	4	730.607	0	736581.414095	0	
49	1	735.889	0	8	90	700	1041	9.0	8	737.607	1	736581.414176	0	
50	0	749.671	0	3	-60	700	1201	4.5	3	751.765	1	736581.414340	0	
51	0	766.081	0	6	30	700	1001	0.0	6	767.441	1	736581.414522	0	
52	0	776.805	0	4	-30	700	1121	9.0	4	778.140	1	736581.414646	0	
53	0	793.820	1	8	90	700	1021	4.5	6	795.276	0	736581.414844	0	
54	1	800.457	0	8	90	700	1021	4.5	8	802.348	1	736581.414925	0	
55	0	815.712	0	6	30	700	1181	9.0	6	817.142	1	736581.415097	0	
56	0	826.181	0	4	-30	700	1061	4.5	3	827.397	0	736581.415215	0	
57	1	832.596	0	4	-30	700	1061	4.5	3	834.241	0	736581.415295	0	
58	1	839.511	0	4	-30	700	1061	4.5	3	840.894	0	736581.415371	0	
59	1	846.988	0	4	-30	700	1061	4.5	4	848.724	1	736581.415462	0	
60	0	863.447	0	7	60	700	1141	4.5	6	864.692	0	736581.415647	0	
61	1	873.138	0	7	60	700	1141	4.5	7	874.562	1	736581.415761	0	
62	0	886.896	0	2	-90	700	1081	0.0	2	888.547	1	736581.415922	0	
63	0	904.106	0	3	-60	700	1021	4.5	3	905.267	1	736581.416117	0	
64	0	923.762	0	7	60	700	1001	0.0	6	924.984	0	736581.416345	0	
65	1	930.135	0	7	60	700	1001	0.0	8	931.344	0	736581.416418	0	
66	1	950.727	0	7	60	700	1001	0.0	6	951.945	0	736581.416656	0	
67	1	957.937	0	7	60	700	1001	0.0	7	959.061	1	736581.416740	0	
68	0	971.630	0	8	90	700	1201	0.0	8	972.718	1	736581.416897	0	
69	0	985.499	0	4	-30	700	1161	9.0	3	987.685	0	736581.417071	0	
70	1	993.013	0	4	-30	700	1161	9.0	4	994.465	1	736581.417149	0	
71	0	1009.163	0	7	60	700	1101	4.5	6	1010.421	0	736581.417334	0	
72	1	1015.665	0	7	60	700	1101	4.5	7	1016.758	1	736581.417407	0	
73	0	1028.911	0	6	30	700	1041	0.0	6	1030.443	1	736581.417565	0	
74	0	1040.214	0	7	60	700	1001	9.0	6	1041.502	0	736581.417693	0	
75	1	1048.594	0	7	60	700	1001	9.0	8	1050.107	0	736581.417793	0	
76	1	1056.415	1	7	60	700	1001	9.0	6	1058.087	0	736581.417885	0	
77	1	1063.242	0	7	60	700	1001	9.0	8	1064.890	0	736581.417964	0	
78	1	1074.440	0	7	60	700	1001	9.0	6	1075.891	0	736581.418091	0	
79	1	1093.009	1	7	60	700	1001	9.0	7	1094.499	1	736581.418307	0	
80	0	1106.249	0	2	-90	700	1061	4.5	3	1107.782	0	736581.418461	0	
81	1	1113.122	0	2	-90	700	1061	4.5	2	1114.158	1	736581.418534	0	
82	0	1128.767	0	3	-60	700	1161	0.0	2	1129.767	0	736581.418715	0	
83	1	1140.525	0	3	-60	700	1161	0.0	3	1141.639	1	736581.418853	0	
84	0	1156.870	0	4	-30	700	1101	4.5	3	1158.463	0	736581.419048	0	
85	1	1164.672	0	4	-30	700	1101	4.5	3	1166.198	0	736581.419136	0	
86	1	1171.947	0	4	-30	700	1101	4.5	7	1174.065	0	736581.419227	0	
87	1	1179.380	0	4	-30	700	1101	4.5	4	1181.011	1	736581.419308	0	
88	0	1200.791	0	2	-90	700	1201	0.0	3	1202.147	0	736581.419553	0	
89	1	1208.398	0	2	-90	700	1201	0.0	2	1209.566	1	736581.419639	0	
90	0	1223.345	0	6	30	700	1041	4.5	6	1224.761	1	736581.419815	0	
91	0	1234.148	0	8	90	700	1081	4.5	8	1235.747	1	736581.419941	0	
92	0	1251.217	0	3	-60	700	1181	9.0	2	1254.073	0	736581.420154	0	
93	1	1260.437	0	3	-60	700	1181	9.0	3	1261.793	1	736581.420243	0	
94	0	1287.402	0	8	90	700	1121	4.5	8	1289.450	1	736581.420563	0	
95	0	1313.753	0	7	60	700	1021	9.0	7	1315.559	1	736581.420866	0	
96	0	1337.357	0	4	-30	700	1041	0.0	7	1338.621	0	736581.421132	0	
97	1	1344.323	0	4	-30	700	1041	0.0	6	1345.677	0	736581.421214	0	
98	1	1350.878	0	4	-30	700	1041	0.0	4	1352.193	1	736581.421290	0	
99	0	1361.908	0	4	-30	700	1161	9.0	3	1363.279	0	736581.421418	0	
100	1	1432.969	0	4	-30	700	1161	9.0	8	1440.551	0	736581.422312	0	
