Trial	CorrectionTrial?	StartTime	CenterReward?	F1	F2	F3	F4	HoldTime	Atten	Pitch	Side	Response	RespTime	Correct	SpatialMask	Mask	
1	0	13.5684	1	936	1551	2975	4263	505	-20.0	200	1	0	15.2211	0	0	
2	1	16.9811	0	936	1551	2975	4263	505	-20.0	200	1	1	20.8210	1	0	
3	0	25.9105	0	437	2761	2975	4263	511	-8.3	200	0	1	26.5853	0	5	
4	1	28.4626	0	437	2761	2975	4263	511	-8.3	200	0	1	29.3460	0	5	
5	1	37.8779	0	437	2761	2975	4263	511	-8.3	200	0	0	38.8320	1	5	
6	0	45.6697	0	936	1551	2975	4263	508	-17.8	200	1	1	46.4315	1	4	
7	0	50.5968	0	437	2761	2975	4263	509	-8.3	200	0	0	51.6719	1	1	
8	0	57.3934	1	437	2761	2975	4263	504	-10.5	200	0	0	59.7567	1	1	
9	0	64.7862	1	936	1551	2975	4263	501	-13.3	200	1	1	65.5751	1	2	
10	0	69.1217	1	437	2761	2975	4263	507	-6.0	200	0	1	72.9187	0	3	
11	1	77.6579	1	437	2761	2975	4263	507	-6.0	200	0	0	80.1559	1	3	
12	0	84.5925	0	936	1551	2975	4263	502	-15.5	200	1	1	85.7234	1	0	
13	0	88.6654	1	437	2761	2975	4263	510	-12.8	200	0	1	90.5642	0	2	
14	1	95.3294	1	437	2761	2975	4263	510	-12.8	200	0	0	97.3739	1	2	
15	0	104.1513	0	936	1551	2975	4263	506	-15.5	200	1	1	105.2676	1	5	
16	0	109.2927	1	437	2761	2975	4263	502	-15.0	200	0	1	111.4519	0	0	
17	1	117.2945	1	437	2761	2975	4263	502	-15.0	200	0	0	120.2841	1	0	
18	0	126.5664	1	936	1551	2975	4263	503	-20.0	200	1	1	127.2512	1	3	
19	0	130.1839	0	936	1551	2975	4263	508	-13.3	200	1	0	132.6601	0	0	
20	1	135.6876	0	936	1551	2975	4263	508	-13.3	200	1	1	136.2530	1	0	
21	0	140.4418	0	437	2761	2975	4263	505	-15.0	200	0	1	141.3589	0	5	
22	1	145.0835	1	437	2761	2975	4263	505	-15.0	200	0	0	148.1287	1	5	
23	0	152.0664	1	437	2761	2975	4263	510	-12.8	200	0	0	154.9975	1	0	
24	0	161.3981	1	936	1551	2975	4263	509	-11.0	200	1	1	165.2919	1	2	
25	0	168.3773	1	437	2761	2975	4263	501	-10.5	200	0	1	170.3503	0	5	
26	1	172.2408	0	437	2761	2975	4263	501	-10.5	200	0	1	173.5987	0	5	
27	1	181.5509	0	437	2761	2975	4263	501	-10.5	200	0	0	183.5263	1	5	
28	0	188.9350	0	437	2761	2975	4263	511	-15.0	200	0	0	189.7061	1	1	
29	0	195.4690	1	936	1551	2975	4263	504	-11.0	200	1	1	198.9324	1	4	
30	0	201.7020	0	437	2761	2975	4263	506	-15.0	200	0	0	202.7147	1	4	
31	0	207.3716	0	437	2761	2975	4263	505	-6.0	200	0	0	208.3265	1	5	
32	0	215.5119	1	437	2761	2975	4263	510	-15.0	200	0	0	216.8012	1	2	
33	0	223.0842	1	437	2761	2975	4263	506	-10.5	200	0	1	223.6683	0	2	
34	1	227.4036	1	437	2761	2975	4263	506	-10.5	200	0	0	228.8391	1	2	
35	0	235.2338	0	936	1551	2975	4263	502	-15.5	200	1	0	236.2827	0	1	
36	1	239.9529	0	936	1551	2975	4263	502	-15.5	200	1	1	240.5614	1	1	
37	0	243.3569	1	437	2761	2975	4263	507	-10.5	200	0	1	244.6715	0	4	
38	1	248.8997	0	437	2761	2975	4263	507	-10.5	200	0	1	249.8233	0	4	
39	1	252.4152	0	437	2761	2975	4263	507	-10.5	200	0	0	253.1823	1	4	
40	0	258.0089	0	437	2761	2975	4263	511	-8.3	200	0	1	258.9792	0	0	
41	1	262.4071	0	437	2761	2975	4263	511	-8.3	200	0	0	263.1955	1	0	
42	0	268.5412	0	936	1551	2975	4263	504	-20.0	200	1	0	269.2603	0	2	
43	1	272.7858	1	936	1551	2975	4263	504	-20.0	200	1	1	273.4755	1	2	
44	0	276.0747	1	936	1551	2975	4263	503	-13.3	200	1	1	278.2588	1	5	
45	0	281.4068	0	936	1551	2975	4263	508	-17.8	200	1	1	281.9838	1	5	
46	0	285.2916	1	437	2761	2975	4263	501	-15.0	200	0	1	287.1478	0	3	
47	1	289.9468	1	437	2761	2975	4263	501	-15.0	200	0	0	292.7490	1	3	
48	0	297.7322	0	936	1551	2975	4263	503	-13.3	200	1	1	298.4352	1	4	
49	0	301.5926	1	936	1551	2975	4263	505	-20.0	200	1	1	303.9088	1	4	
50	0	308.4686	0	437	2761	2975	4263	509	-10.5	200	0	0	309.5176	1	0	
51	0	317.4807	0	936	1551	2975	4263	501	-11.0	200	1	1	318.5307	1	0	
52	0	321.1460	1	936	1551	2975	4263	511	-15.5	200	1	1	323.1499	1	3	
53	0	326.1625	1	437	2761	2975	4263	506	-8.3	200	0	1	328.6574	0	3	
54	1	333.7655	1	437	2761	2975	4263	506	-8.3	200	0	1	336.2798	0	3	
55	1	340.3320	0	437	2761	2975	4263	506	-8.3	200	0	0	341.1254	1	3	
56	0	345.4219	1	437	2761	2975	4263	502	-6.0	200	0	1	346.0290	0	1	
57	1	352.6951	1	437	2761	2975	4263	502	-6.0	200	0	0	355.3341	1	1	
58	0	361.2960	1	437	2761	2975	4263	510	-12.8	200	0	1	363.7959	0	4	
59	1	365.4006	1	437	2761	2975	4263	510	-12.8	200	0	0	370.4423	1	4	
60	0	376.3810	0	437	2761	2975	4263	508	-8.3	200	0	1	377.4362	0	4	
61	1	381.7184	1	437	2761	2975	4263	508	-8.3	200	0	0	384.3767	1	4	
62	0	388.3592	0	936	1551	2975	4263	507	-11.0	200	1	1	389.8393	1	1	
63	0	393.3159	1	936	1551	2975	4263	507	-11.0	200	1	1	395.1717	1	3	
64	0	398.6384	0	437	2761	2975	4263	502	-6.0	200	0	1	399.5458	0	2	
65	1	408.4610	0	437	2761	2975	4263	502	-6.0	200	0	0	409.6023	1	2	
66	0	415.4652	0	936	1551	2975	4263	501	-20.0	200	1	1	416.1563	1	1	
67	0	418.9172	0	936	1551	2975	4263	509	-17.8	200	1	1	420.2709	1	0	
68	0	424.1807	0	936	1551	2975	4263	511	-20.0	200	1	1	424.9932	1	5	
69	0	427.5094	0	936	1551	2975	4263	504	-17.8	200	1	1	428.2245	1	2	
70	0	431.2836	1	936	1551	2975	4263	508	-13.3	200	1	1	433.1753	1	1	
71	0	436.7275	0	936	1551	2975	4263	506	-17.8	200	1	0	437.7336	0	1	
72	1	439.5669	1	936	1551	2975	4263	506	-17.8	200	1	1	442.4914	1	1	
73	0	445.6877	1	437	2761	2975	4263	510	-12.8	200	0	1	448.2855	0	3	
74	1	450.7924	1	437	2761	2975	4263	510	-12.8	200	0	0	453.5135	1	3	
75	0	458.8664	1	936	1551	2975	4263	503	-11.0	200	1	1	462.0029	1	5	
76	0	464.6941	1	437	2761	2975	4263	506	-8.3	200	0	0	468.5604	1	2	
77	0	471.7894	1	936	1551	2975	4263	501	-17.8	200	1	1	475.3159	1	3	
78	0	478.4204	1	437	2761	2975	4263	504	-12.8	200	0	1	480.5495	0	1	
79	1	490.5075	1	437	2761	2975	4263	504	-12.8	200	0	1	492.6876	0	1	
80	1	497.0268	1	437	2761	2975	4263	504	-12.8	200	0	0	499.2006	1	1	
81	0	502.8356	1	936	1551	2975	4263	503	-15.5	200	1	1	503.7951	1	2	
82	0	506.7952	0	437	2761	2975	4263	502	-10.5	200	0	0	510.2814	1	3	
83	0	518.9024	1	437	2761	2975	4263	505	-12.8	200	0	0	521.0276	1	5	
84	0	523.3589	1	936	1551	2975	4263	510	-13.3	200	1	1	524.1237	1	3	
85	0	527.4433	1	437	2761	2975	4263	507	-6.0	200	0	1	531.4519	0	4	
86	1	564.1311	1	437	2761	2975	4263	507	-6.0	200	0	0	564.5309	1	4	
87	0	567.9567	1	936	1551	2975	4263	508	-15.5	200	1	1	571.3049	1	4	
88	0	573.7257	1	437	2761	2975	4263	509	-6.0	200	0	0	589.0338	1	0	
89	0	591.9265	0	936	1551	2975	4263	504	-15.5	200	1	1	592.5465	1	5	
90	0	595.8221	0	936	1551	2975	4263	506	-13.3	200	1	1	596.5409	1	5	
91	0	599.3876	0	437	2761	2975	4263	507	-12.8	200	0	1	599.9007	0	1	
