Trial	CorrectionTrial?	StartTime	CenterReward?	F1	F2	F3	F4	HoldTime	Atten	Pitch	Side	Response	RespTime	Correct	SpatialMask	Mask	
1	0	85.0531	0	936	1551	2975	4263	503	-15.5	200	1	0	88.8026	0	2	
2	1	90.7165	0	936	1551	2975	4263	503	-15.5	200	1	1	99.7204	1	2	
3	0	101.6182	0	936	1551	2975	4263	510	-13.3	200	1	1	108.4375	1	2	
4	0	110.8407	0	437	2761	2975	4263	505	-8.3	200	0	0	112.4579	1	1	
5	0	117.7251	1	936	1551	2975	4263	508	-20.0	200	1	1	121.6257	1	2	
6	0	133.5527	0	936	1551	2975	4263	504	-15.5	200	1	0	135.2774	0	0	
7	1	137.2077	1	936	1551	2975	4263	504	-15.5	200	1	1	144.9449	1	0	
8	0	148.2066	1	936	1551	2975	4263	507	-13.3	200	1	1	154.4553	1	1	
9	0	158.4801	1	437	2761	2975	4263	506	-12.8	200	0	1	163.7804	0	2	
10	1	171.4246	0	437	2761	2975	4263	506	-12.8	200	0	1	173.7834	0	2	
11	1	191.3248	1	437	2761	2975	4263	506	-12.8	200	0	0	191.9629	1	2	
12	0	194.0162	1	936	1551	2975	4263	502	-20.0	200	1	1	202.8172	1	3	
13	0	205.7014	1	437	2761	2975	4263	511	-8.3	200	0	0	210.0343	1	3	
14	0	214.1860	0	936	1551	2975	4263	501	-11.0	200	1	0	215.8387	0	3	
15	1	217.7396	1	936	1551	2975	4263	501	-11.0	200	1	1	222.0081	1	3	
16	0	225.7700	0	437	2761	2975	4263	509	-8.3	200	0	1	227.1772	0	0	
17	1	230.4194	0	437	2761	2975	4263	509	-8.3	200	0	1	236.4816	0	0	
18	1	238.2391	1	437	2761	2975	4263	509	-8.3	200	0	1	244.6454	0	0	
19	1	249.9527	1	437	2761	2975	4263	509	-8.3	200	0	0	264.0391	1	0	
20	0	268.8045	0	437	2761	2975	4263	507	-6.0	200	0	0	275.1514	1	1	
21	0	281.1130	0	936	1551	2975	4263	504	-17.8	200	1	0	282.2187	0	0	
22	1	283.8390	1	936	1551	2975	4263	504	-17.8	200	1	1	288.0515	1	0	
23	0	303.2656	0	936	1551	2975	4263	503	-15.5	200	1	0	306.8460	0	3	
24	1	313.0164	0	936	1551	2975	4263	503	-15.5	200	1	1	313.9315	1	3	
25	0	318.9436	0	437	2761	2975	4263	502	-15.0	200	0	1	320.0289	0	1	
26	1	329.0536	1	437	2761	2975	4263	502	-15.0	200	0	0	335.5669	1	1	
27	0	339.8223	1	437	2761	2975	4263	506	-10.5	200	0	1	346.6626	0	3	
28	1	348.3107	0	437	2761	2975	4263	506	-10.5	200	0	1	349.5449	0	3	
29	1	351.3446	0	437	2761	2975	4263	506	-10.5	200	0	0	352.1907	1	3	
30	0	357.0868	0	437	2761	2975	4263	501	-6.0	200	0	0	359.0904	1	2	
31	0	365.6087	1	936	1551	2975	4263	510	-13.3	200	1	1	367.6022	1	0	
32	0	372.2134	1	437	2761	2975	4263	508	-15.0	200	0	1	378.5717	0	3	
33	1	380.2385	1	437	2761	2975	4263	508	-15.0	200	0	0	380.8240	1	3	
34	0	385.1441	0	936	1551	2975	4263	505	-11.0	200	1	0	390.4969	0	0	
35	1	393.5208	1	936	1551	2975	4263	505	-11.0	200	1	0	401.1254	0	0	
36	1	402.8969	0	936	1551	2975	4263	505	-11.0	200	1	0	406.5644	0	0	
37	1	408.5909	1	936	1551	2975	4263	505	-11.0	200	1	1	418.7526	1	0	
38	0	430.0101	1	936	1551	2975	4263	502	-13.3	200	1	1	435.5798	1	3	
39	0	439.8770	1	437	2761	2975	4263	505	-15.0	200	0	0	443.1563	1	0	
40	0	447.9274	0	936	1551	2975	4263	504	-15.5	200	1	0	449.0606	0	1	
41	1	450.6449	0	936	1551	2975	4263	504	-15.5	200	1	1	452.3004	1	1	
42	0	464.9032	1	936	1551	2975	4263	507	-20.0	200	1	1	473.7066	1	0	
43	0	477.8497	1	936	1551	2975	4263	511	-11.0	200	1	1	481.8962	1	2	
44	0	486.6422	1	437	2761	2975	4263	501	-10.5	200	0	1	487.5370	0	1	
45	1	489.2142	0	437	2761	2975	4263	501	-10.5	200	0	0	493.8600	1	1	
46	0	497.6434	1	437	2761	2975	4263	509	-8.3	200	0	0	507.5107	1	2	
47	0	512.2832	1	936	1551	2975	4263	510	-11.0	200	1	1	513.8151	1	1	
48	0	517.5854	1	936	1551	2975	4263	506	-17.8	200	1	1	524.1301	1	2	
49	0	528.5179	1	437	2761	2975	4263	508	-12.8	200	0	0	531.9157	1	0	
50	0	536.6753	0	437	2761	2975	4263	504	-12.8	200	0	1	537.5086	0	1	
51	1	550.4532	1	437	2761	2975	4263	504	-12.8	200	0	0	550.9818	1	1	
52	0	555.6753	0	437	2761	2975	4263	505	-10.5	200	0	0	562.2959	1	0	
53	0	565.5678	0	437	2761	2975	4263	507	-6.0	200	0	1	566.6130	0	0	
54	1	568.2650	1	437	2761	2975	4263	507	-6.0	200	0	1	571.2273	0	0	
55	1	577.6434	0	437	2761	2975	4263	507	-6.0	200	0	0	579.1676	1	0	
56	0	584.3330	0	936	1551	2975	4263	502	-17.8	200	1	0	585.2056	0	1	
57	1	586.8817	1	936	1551	2975	4263	502	-17.8	200	1	1	587.8893	1	1	
58	0	593.4889	0	936	1551	2975	4263	509	-17.8	200	1	1	595.9134	1	3	
59	0	599.8807	0	437	2761	2975	4263	506	-6.0	200	0	1	601.0080	0	3	
60	1	611.9148	0	437	2761	2975	4263	506	-6.0	200	0	1	615.8118	0	3	
61	1	619.2304	0	437	2761	2975	4263	506	-6.0	200	0	1	620.4081	0	3	
62	1	622.0665	1	437	2761	2975	4263	506	-6.0	200	0	1	629.9675	0	3	
63	1	631.8882	0	437	2761	2975	4263	506	-6.0	200	0	0	632.8801	1	3	
64	0	645.6972	1	437	2761	2975	4263	501	-15.0	200	0	0	653.0263	1	2	
65	0	657.1072	0	437	2761	2975	4263	510	-10.5	200	0	1	658.3266	0	2	
66	1	660.2630	0	437	2761	2975	4263	510	-10.5	200	0	1	661.2331	0	2	
67	1	663.4272	1	437	2761	2975	4263	510	-10.5	200	0	0	671.1640	1	2	
68	0	675.5260	0	936	1551	2975	4263	503	-20.0	200	1	0	679.0516	0	1	
69	1	683.6082	0	936	1551	2975	4263	503	-20.0	200	1	1	684.8175	1	1	
70	0	716.8831	1	437	2761	2975	4263	511	-12.8	200	0	1	725.0028	0	3	
71	1	726.7969	0	437	2761	2975	4263	511	-12.8	200	0	0	727.5075	1	3	
72	0	731.7991	1	936	1551	2975	4263	505	-20.0	200	1	0	737.0145	0	2	
73	1	751.3971	1	936	1551	2975	4263	505	-20.0	200	1	1	757.9768	1	2	
74	0	762.2504	0	936	1551	2975	4263	507	-11.0	200	1	1	763.4500	1	0	
75	0	768.6160	1	437	2761	2975	4263	503	-8.3	200	0	1	769.2825	0	1	
76	1	786.2389	1	437	2761	2975	4263	503	-8.3	200	0	1	791.8398	0	1	
77	1	794.2994	0	437	2761	2975	4263	503	-8.3	200	0	1	796.2436	0	1	
78	1	797.9821	0	437	2761	2975	4263	503	-8.3	200	0	1	799.2263	0	1	
79	1	804.0596	0	437	2761	2975	4263	503	-8.3	200	0	0	804.7216	1	1	
80	0	811.5090	0	437	2761	2975	4263	508	-15.0	200	0	1	813.5143	0	2	
81	1	815.4880	0	437	2761	2975	4263	508	-15.0	200	0	0	816.0444	1	2	
82	0	827.9844	1	936	1551	2975	4263	511	-15.5	200	1	0	828.6711	0	0	
83	1	832.2538	1	936	1551	2975	4263	511	-15.5	200	1	0	839.0002	0	0	
84	1	841.0109	1	936	1551	2975	4263	511	-15.5	200	1	1	841.6164	1	0	
85	0	859.4707	1	936	1551	2975	4263	509	-13.3	200	1	1	867.4511	1	1	
86	0	870.5947	1	437	2761	2975	4263	504	-15.0	200	0	1	873.2844	0	1	
87	1	902.3172	0	437	2761	2975	4263	504	-15.0	200	0	0	906.1194	1	1	
88	0	909.9904	0	936	1551	2975	4263	506	-11.0	200	1	0	910.6704	0	1	
89	1	934.1811	0	936	1551	2975	4263	506	-11.0	200	1	1	937.8587	1	1	
90	0	941.2451	0	936	1551	2975	4263	510	-15.5	200	1	1	942.1677	1	1	
91	0	960.8077	0	437	2761	2975	4263	502	-12.8	200	0	1	963.7396	0	3	
92	1	965.5239	1	437	2761	2975	4263	502	-12.8	200	0	0	966.2357	1	3	
93	0	971.2330	0	936	1551	2975	4263	509	-13.3	200	1	1	973.0330	1	3	
94	0	989.7510	0	437	2761	2975	4263	507	-6.0	200	0	1	992.1737	0	3	
95	1	1001.3132	1	437	2761	2975	4263	507	-6.0	200	0	1	1004.6036	0	3	
96	1	1008.7503	0	437	2761	2975	4263	507	-6.0	200	0	0	1009.9243	1	3	
97	0	1014.0998	0	936	1551	2975	4263	504	-13.3	200	1	1	1015.0077	1	0	
98	0	1041.9062	1	936	1551	2975	4263	510	-20.0	200	1	1	1046.4521	1	3	
99	0	1053.8255	0	936	1551	2975	4263	508	-20.0	200	1	1	1055.0812	1	0	
100	0	1075.9349	1	437	2761	2975	4263	511	-10.5	200	0	1	1080.6899	0	2	
101	1	1085.6121	0	437	2761	2975	4263	511	-10.5	200	0	0	1086.5478	1	2	
102	0	1091.6758	1	936	1551	2975	4263	502	-15.5	200	1	0	1096.4547	0	3	
103	1	1098.1516	0	936	1551	2975	4263	502	-15.5	200	1	1	1098.9012	1	3	
104	0	1109.7774	0	437	2761	2975	4263	501	-8.3	200	0	1	1112.0252	0	2	
105	1	1115.5677	1	437	2761	2975	4263	501	-8.3	200	0	1	1118.7121	0	2	
106	1	1126.5758	1	437	2761	2975	4263	501	-8.3	200	0	1	1130.1129	0	2	
107	1	1138.8822	0	437	2761	2975	4263	501	-8.3	200	0	1	1139.7674	0	2	
108	1	1144.6245	1	437	2761	2975	4263	501	-8.3	200	0	1	1146.3972	0	2	
109	1	1148.0735	0	437	2761	2975	4263	501	-8.3	200	0	0	1148.7121	1	2	
110	0	1155.4523	0	437	2761	2975	4263	505	-12.8	200	0	0	1156.8085	1	2	
111	0	1162.0076	0	437	2761	2975	4263	506	-8.3	200	0	1	1163.1864	0	0	
112	1	1170.0335	1	437	2761	2975	4263	506	-8.3	200	0	0	1170.5054	1	0	
113	0	1212.5536	0	437	2761	2975	4263	508	-15.0	200	0	1	1213.8847	0	3	
114	1	1277.4236	1	437	2761	2975	4263	508	-15.0	200	0	1	1281.6431	0	3	
115	1	1283.6377	0	437	2761	2975	4263	508	-15.0	200	0	1	1285.0425	0	3	
116	1	1308.4570	0	437	2761	2975	4263	508	-15.0	200	0	0	1309.3139	1	3	
117	0	1314.3027	1	437	2761	2975	4263	504	-10.5	200	0	0	1315.0665	1	3	
