Trial	CorrectionTrial?	StartTime	CenterReward?	F1	F2	F3	F4	HoldTime	Atten	Pitch	Side	Response	RespTime	Correct	SpatialMask	Mask	
1	0	12.6355	0	437	2761	2975	4263	502	-15.0	200	0	0	13.6016	1	2	
2	0	19.3516	0	437	2761	2975	4263	507	-10.5	200	0	0	19.8083	1	3	
3	0	25.4696	0	437	2761	2975	4263	501	-12.8	200	0	0	26.0477	1	2	
4	0	29.6466	1	936	1551	2975	4263	508	-12.8	200	1	0	30.7324	0	2	
5	1	32.6653	0	936	1551	2975	4263	508	-12.8	200	1	0	33.7271	0	2	
6	1	36.7406	0	936	1551	2975	4263	508	-12.8	200	1	1	38.1036	1	2	
7	0	41.7348	0	437	2761	2975	4263	505	-12.8	200	0	0	42.3711	1	5	
8	0	48.9210	1	437	2761	2975	4263	504	-12.8	200	0	0	49.2887	1	1	
9	0	53.9193	1	936	1551	2975	4263	510	-10.5	200	1	0	57.1226	0	2	
10	1	59.0752	0	936	1551	2975	4263	510	-10.5	200	1	1	61.0736	1	2	
11	0	63.5710	1	437	2761	2975	4263	509	-6.0	200	0	0	67.0860	1	1	
12	0	70.9918	1	936	1551	2975	4263	503	-15.0	200	1	0	73.6235	0	5	
13	1	75.4912	0	936	1551	2975	4263	503	-15.0	200	1	1	77.2339	1	5	
14	0	81.0452	0	437	2761	2975	4263	506	-8.3	200	0	0	82.4856	1	4	
15	0	85.8953	1	437	2761	2975	4263	509	-12.8	200	0	0	88.1832	1	3	
16	0	91.9707	0	936	1551	2975	4263	504	-15.0	200	1	1	94.1905	1	2	
17	0	98.0630	0	437	2761	2975	4263	501	-10.5	200	0	0	99.3411	1	2	
18	0	102.6044	1	437	2761	2975	4263	502	-12.8	200	0	0	104.7981	1	4	
19	0	107.8874	1	437	2761	2975	4263	505	-6.0	200	0	0	110.0501	1	4	
20	0	113.1372	1	437	2761	2975	4263	507	-15.0	200	0	0	115.5557	1	4	
21	0	123.4054	0	936	1551	2975	4263	508	-10.5	200	1	0	124.9623	0	5	
22	1	127.6699	1	936	1551	2975	4263	508	-10.5	200	1	0	130.4334	0	5	
23	1	135.3831	0	936	1551	2975	4263	508	-10.5	200	1	0	136.2683	0	5	
24	1	138.8440	0	936	1551	2975	4263	508	-10.5	200	1	1	140.8544	1	5	
25	0	144.9273	1	437	2761	2975	4263	511	-6.0	200	0	0	147.3304	1	0	
26	0	150.6046	1	936	1551	2975	4263	510	-8.3	200	1	0	152.9543	0	0	
27	1	154.7634	0	936	1551	2975	4263	510	-8.3	200	1	1	156.4132	1	0	
28	0	159.7485	0	936	1551	2975	4263	503	-12.8	200	1	0	161.0292	0	0	
29	1	165.9744	1	936	1551	2975	4263	503	-12.8	200	1	1	168.7551	1	0	
30	0	171.8400	1	936	1551	2975	4263	511	-6.0	200	1	1	174.2185	1	2	
31	0	177.3423	1	936	1551	2975	4263	505	-15.0	200	1	1	181.1000	1	0	
32	0	184.8349	1	936	1551	2975	4263	504	-6.0	200	1	0	186.7586	0	0	
33	1	188.8976	0	936	1551	2975	4263	504	-6.0	200	1	1	190.5040	1	0	
34	0	193.7030	1	936	1551	2975	4263	501	-8.3	200	1	1	196.8398	1	5	
35	0	200.7699	1	437	2761	2975	4263	508	-8.3	200	0	0	203.3399	1	5	
36	0	206.5530	1	936	1551	2975	4263	506	-15.0	200	1	1	209.2817	1	4	
37	0	211.7638	1	437	2761	2975	4263	509	-10.5	200	0	0	214.5098	1	5	
38	0	217.7128	0	936	1551	2975	4263	507	-12.8	200	1	1	219.4949	1	4	
39	0	222.7618	1	437	2761	2975	4263	510	-6.0	200	0	1	225.1942	0	3	
40	1	230.5112	0	437	2761	2975	4263	510	-6.0	200	0	1	231.5041	0	3	
41	1	233.9855	0	437	2761	2975	4263	510	-6.0	200	0	1	235.6461	0	3	
42	1	240.1602	0	437	2761	2975	4263	510	-6.0	200	0	0	240.7722	1	3	
43	0	244.2020	1	437	2761	2975	4263	502	-8.3	200	0	0	246.4681	1	3	
44	0	249.8635	0	437	2761	2975	4263	511	-15.0	200	0	0	251.0718	1	0	
45	0	254.2179	1	437	2761	2975	4263	509	-8.3	200	0	0	256.3198	1	1	
46	0	259.4597	0	936	1551	2975	4263	502	-6.0	200	1	1	261.3348	1	5	
47	0	267.5519	0	437	2761	2975	4263	503	-10.5	200	0	0	268.5290	1	4	
48	0	273.1617	1	437	2761	2975	4263	501	-8.3	200	0	0	274.6769	1	2	
49	0	276.9728	0	936	1551	2975	4263	507	-6.0	200	1	1	278.6867	1	4	
50	0	282.7840	1	936	1551	2975	4263	506	-6.0	200	1	0	285.2338	0	1	
51	1	288.2196	1	936	1551	2975	4263	506	-6.0	200	1	0	297.7038	0	1	
52	1	299.9407	0	936	1551	2975	4263	506	-6.0	200	1	0	300.5659	0	1	
53	1	302.2439	0	936	1551	2975	4263	506	-6.0	200	1	1	303.6893	1	1	
54	0	307.3855	0	437	2761	2975	4263	504	-15.0	200	0	0	308.5396	1	1	
55	0	312.2711	1	936	1551	2975	4263	510	-10.5	200	1	0	313.9759	0	4	
56	1	320.5825	0	936	1551	2975	4263	510	-10.5	200	1	1	321.7689	1	4	
57	0	325.0909	0	936	1551	2975	4263	505	-15.0	200	1	0	326.3901	0	3	
58	1	328.7114	0	936	1551	2975	4263	505	-15.0	200	1	0	329.6841	0	3	
59	1	333.7326	0	936	1551	2975	4263	505	-15.0	200	1	1	335.2160	1	3	
60	0	338.6453	0	437	2761	2975	4263	504	-15.0	200	0	1	339.8997	0	3	
61	1	342.9051	1	437	2761	2975	4263	504	-15.0	200	0	0	343.5918	1	3	
62	0	347.5615	1	936	1551	2975	4263	508	-8.3	200	1	1	351.4003	1	4	
63	0	354.3140	0	936	1551	2975	4263	505	-6.0	200	1	0	355.4948	0	3	
64	1	359.7061	0	936	1551	2975	4263	505	-6.0	200	1	1	361.5246	1	3	
65	0	367.3570	0	437	2761	2975	4263	506	-10.5	200	0	0	368.4405	1	1	
66	0	371.9252	0	437	2761	2975	4263	507	-8.3	200	0	0	372.7295	1	0	
67	0	376.7730	1	936	1551	2975	4263	502	-8.3	200	1	0	378.7158	0	2	
68	1	381.1078	1	936	1551	2975	4263	502	-8.3	200	1	1	383.5260	1	2	
69	0	386.6621	0	437	2761	2975	4263	511	-15.0	200	0	0	387.9399	1	5	
70	0	391.5463	0	437	2761	2975	4263	501	-10.5	200	0	0	392.5098	1	0	
71	0	395.6023	0	936	1551	2975	4263	503	-8.3	200	1	0	396.6101	0	1	
72	1	400.1189	0	936	1551	2975	4263	503	-8.3	200	1	1	402.0470	1	1	
73	0	406.2494	0	936	1551	2975	4263	510	-12.8	200	1	0	407.2291	0	3	
74	1	412.9213	0	936	1551	2975	4263	510	-12.8	200	1	0	414.1206	0	3	
75	1	415.7414	1	936	1551	2975	4263	510	-12.8	200	1	1	418.3477	1	3	
76	0	422.8672	0	936	1551	2975	4263	509	-10.5	200	1	0	424.9249	0	3	
77	1	429.2271	1	936	1551	2975	4263	509	-10.5	200	1	1	432.5986	1	3	
78	0	436.1330	0	936	1551	2975	4263	510	-10.5	200	1	0	437.3740	0	0	
79	1	439.5049	1	936	1551	2975	4263	510	-10.5	200	1	1	442.0840	1	0	
80	0	445.6979	0	437	2761	2975	4263	511	-12.8	200	0	0	447.5268	1	0	
81	0	450.2914	1	936	1551	2975	4263	507	-10.5	200	1	0	452.1306	0	1	
82	1	454.2649	1	936	1551	2975	4263	507	-10.5	200	1	1	457.9347	1	1	
83	0	460.5682	0	936	1551	2975	4263	501	-8.3	200	1	0	462.0168	0	3	
84	1	463.8148	0	936	1551	2975	4263	501	-8.3	200	1	1	465.1174	1	3	
85	0	468.6352	1	437	2761	2975	4263	502	-6.0	200	0	1	472.5335	0	5	
86	1	474.4915	1	437	2761	2975	4263	502	-6.0	200	0	0	477.3552	1	5	
87	0	481.3525	0	936	1551	2975	4263	508	-12.8	200	1	1	482.5425	1	5	
88	0	485.5804	1	936	1551	2975	4263	503	-15.0	200	1	0	488.1957	0	1	
89	1	494.2450	1	936	1551	2975	4263	503	-15.0	200	1	1	497.9441	1	1	
90	0	500.6433	0	437	2761	2975	4263	504	-6.0	200	0	0	502.3146	1	2	
91	0	506.8297	0	936	1551	2975	4263	505	-12.8	200	1	1	508.0870	1	1	
92	0	511.2593	0	936	1551	2975	4263	510	-12.8	200	1	1	512.9672	1	3	
93	0	515.8349	1	437	2761	2975	4263	507	-12.8	200	0	0	518.0388	1	5	
94	0	522.0455	1	936	1551	2975	4263	502	-15.0	200	1	1	525.8552	1	5	
95	0	528.6731	0	936	1551	2975	4263	509	-12.8	200	1	0	530.4304	0	0	
96	1	535.0343	1	936	1551	2975	4263	509	-12.8	200	1	1	537.5373	1	0	
97	0	540.4631	1	437	2761	2975	4263	503	-8.3	200	0	0	542.6700	1	5	
98	0	546.2069	0	437	2761	2975	4263	506	-12.8	200	0	0	547.5676	1	2	
99	0	551.0389	0	437	2761	2975	4263	508	-8.3	200	0	0	552.7890	1	2	
100	0	556.7474	0	936	1551	2975	4263	511	-8.3	200	1	1	557.9363	1	2	
101	0	560.5497	0	437	2761	2975	4263	505	-6.0	200	0	0	562.3487	1	5	
102	0	565.8363	1	437	2761	2975	4263	504	-10.5	200	0	0	568.4621	1	1	
103	0	572.5046	0	936	1551	2975	4263	501	-15.0	200	1	1	574.4862	1	0	
104	0	578.0611	1	936	1551	2975	4263	507	-6.0	200	1	0	582.0804	0	5	
105	1	585.4527	0	936	1551	2975	4263	507	-6.0	200	1	1	586.6583	1	5	
106	0	594.2315	0	936	1551	2975	4263	504	-12.8	200	1	0	595.3614	0	4	
107	1	597.3641	1	936	1551	2975	4263	504	-12.8	200	1	0	600.2590	0	4	
108	1	605.1906	1	936	1551	2975	4263	504	-12.8	200	1	1	607.6928	1	4	
109	0	610.5352	1	936	1551	2975	4263	511	-6.0	200	1	0	613.1122	0	4	
110	1	614.8260	0	936	1551	2975	4263	511	-6.0	200	1	1	616.2878	1	4	
111	0	619.3981	0	936	1551	2975	4263	508	-6.0	200	1	0	621.0846	0	2	
112	1	636.0068	0	936	1551	2975	4263	508	-6.0	200	1	0	638.0823	0	2	
113	1	640.7819	0	936	1551	2975	4263	508	-6.0	200	1	1	642.5815	1	2	
114	0	646.1000	1	437	2761	2975	4263	505	-15.0	200	0	0	648.0824	1	0	
115	0	652.2298	1	437	2761	2975	4263	503	-6.0	200	0	1	654.9077	0	1	
