Trial	CorrectionTrial?	StartTime	CenterReward?	F1	F2	F3	F4	HoldTime	Atten	Pitch	Side	Response	RespTime	Correct	noiseAtten	opto	laserOnset	laserOffset	
1	0	29.040	0	460	1105	2857	4205	801	-3.3	200	0	8	29.926	1	10	1	-150	100	
2	0	47.226	0	730	2058	2857	4205	1001	0.0	200	1	8	48.089	0	10	1	-150	100	
3	1	53.220	0	730	2058	2857	4205	1001	0.0	200	1	8	54.362	0	10	0	-150	100	
4	1	58.855	0	730	2058	2857	4205	1001	0.0	200	1	2	60.040	1	10	0	-150	100	
5	0	71.489	0	730	2058	2857	4205	701	6.7	200	1	8	73.347	0	10	1	-150	100	
6	1	81.489	0	730	2058	2857	4205	701	6.7	200	1	8	83.169	0	10	0	-150	100	
7	1	86.900	0	730	2058	2857	4205	701	6.7	200	1	2	88.579	1	10	0	-150	100	
8	0	101.192	0	730	2058	2857	4205	501	3.3	200	1	2	102.311	1	10	0	-150	100	
9	0	112.894	0	460	1105	2857	4205	901	-6.7	200	0	8	113.973	1	10	0	-150	100	
10	0	124.786	0	730	2058	2857	4205	901	10.0	200	1	2	125.677	1	10	0	-150	100	
11	0	140.791	0	460	1105	2857	4205	701	10.0	200	0	2	141.915	0	10	1	-150	100	
12	1	155.840	0	460	1105	2857	4205	701	10.0	200	0	2	163.220	0	10	0	-150	100	
13	1	167.007	0	460	1105	2857	4205	701	10.0	200	0	2	168.517	0	10	0	-150	100	
14	1	173.071	0	460	1105	2857	4205	701	10.0	200	0	8	174.453	1	10	0	-150	100	
15	0	193.981	0	460	1105	2857	4205	801	-10.0	200	0	2	195.982	0	10	0	-150	100	
16	1	203.334	0	460	1105	2857	4205	801	-10.0	200	0	8	204.241	1	10	0	-150	100	
17	0	220.002	0	730	2058	2857	4205	601	-3.3	200	1	2	220.884	1	10	0	-150	100	
18	0	234.992	0	730	2058	2857	4205	1001	3.3	200	1	2	235.671	1	10	1	-150	100	
19	0	248.126	0	460	1105	2857	4205	801	-6.7	200	0	8	248.857	1	10	1	-150	100	
20	0	266.990	0	460	1105	2857	4205	1001	6.7	200	0	8	268.256	1	10	1	-150	100	
21	0	282.170	0	730	2058	2857	4205	601	-3.3	200	1	2	283.244	1	10	0	-150	100	
22	0	300.551	0	460	1105	2857	4205	901	0.0	200	0	8	301.715	1	10	0	-150	100	
23	0	333.984	0	460	1105	2857	4205	701	3.3	200	0	8	334.844	1	10	0	-150	100	
24	0	344.774	0	730	2058	2857	4205	1001	-10.0	200	1	2	346.355	1	10	1	-150	100	
25	0	354.758	0	460	1105	2857	4205	501	-6.7	200	0	8	355.787	1	10	1	-150	100	
26	0	371.382	0	460	1105	2857	4205	901	10.0	200	0	2	372.316	0	10	0	-150	100	
27	1	379.083	0	460	1105	2857	4205	901	10.0	200	0	8	380.263	1	10	0	-150	100	
28	0	393.287	0	730	2058	2857	4205	701	3.3	200	1	2	394.200	1	10	1	-150	100	
29	0	404.709	0	730	2058	2857	4205	801	0.0	200	1	2	405.489	1	10	0	-150	100	
30	0	415.727	0	730	2058	2857	4205	1001	10.0	200	1	2	416.387	1	10	0	-150	100	
31	0	426.899	0	460	1105	2857	4205	501	-10.0	200	0	8	427.697	1	10	0	-150	100	
32	0	443.644	0	460	1105	2857	4205	701	-6.7	200	0	8	444.525	1	10	1	-150	100	
33	0	456.395	0	730	2058	2857	4205	901	6.7	200	1	2	457.283	1	10	1	-150	100	
34	0	467.166	0	460	1105	2857	4205	601	-10.0	200	0	2	468.019	0	10	1	-150	100	
35	1	474.323	0	460	1105	2857	4205	601	-10.0	200	0	8	475.638	1	10	0	-150	100	
36	0	491.412	0	460	1105	2857	4205	901	6.7	200	0	8	492.722	1	10	0	-150	100	
37	0	506.636	0	730	2058	2857	4205	801	-6.7	200	1	2	507.497	1	10	1	-150	100	
38	0	518.297	0	730	2058	2857	4205	1001	10.0	200	1	2	519.117	1	10	0	-150	100	
39	0	527.841	0	730	2058	2857	4205	601	0.0	200	1	2	528.795	1	10	1	-150	100	
40	0	538.690	0	460	1105	2857	4205	501	3.3	200	0	2	539.789	0	10	1	-150	100	
41	1	547.070	0	460	1105	2857	4205	501	3.3	200	0	2	549.587	0	10	0	-150	100	
42	1	555.804	0	460	1105	2857	4205	501	3.3	200	0	8	556.906	1	10	0	-150	100	
43	0	573.563	0	730	2058	2857	4205	1001	-6.7	200	1	2	574.337	1	10	0	-150	100	
44	0	586.006	0	460	1105	2857	4205	701	10.0	200	0	2	586.743	0	10	0	-150	100	
45	1	593.192	0	460	1105	2857	4205	701	10.0	200	0	8	594.171	1	10	0	-150	100	
46	0	606.147	0	730	2058	2857	4205	501	-10.0	200	1	8	606.941	0	10	1	-150	100	
47	1	613.658	0	730	2058	2857	4205	501	-10.0	200	1	2	614.660	1	10	0	-150	100	
48	0	624.859	0	460	1105	2857	4205	601	0.0	200	0	2	625.744	0	10	0	-150	100	
49	1	629.925	0	460	1105	2857	4205	601	0.0	200	0	8	632.513	1	10	0	-150	100	
50	0	647.900	0	730	2058	2857	4205	801	-3.3	200	1	2	648.590	1	10	0	-150	100	
51	0	658.898	0	460	1105	2857	4205	601	6.7	200	0	2	659.735	0	10	0	-150	100	
52	1	672.503	0	460	1105	2857	4205	601	6.7	200	0	8	673.323	1	10	0	-150	100	
53	0	692.520	0	460	1105	2857	4205	1001	0.0	200	0	2	693.232	0	10	1	-150	100	
54	1	700.579	0	460	1105	2857	4205	1001	0.0	200	0	8	701.579	1	10	0	-150	100	
55	0	712.323	0	730	2058	2857	4205	701	3.3	200	1	2	713.465	1	10	1	-150	100	
56	0	723.577	0	460	1105	2857	4205	801	10.0	200	0	2	724.379	0	10	1	-150	100	
57	1	732.238	0	460	1105	2857	4205	801	10.0	200	0	8	732.914	1	10	0	-150	100	
58	0	745.861	0	730	2058	2857	4205	901	6.7	200	1	2	746.474	1	10	0	-150	100	
59	0	761.217	0	730	2058	2857	4205	801	-6.7	200	1	8	762.044	0	10	1	-150	100	
60	1	766.377	0	730	2058	2857	4205	801	-6.7	200	1	8	767.072	0	10	0	-150	100	
61	1	770.920	0	730	2058	2857	4205	801	-6.7	200	1	2	771.633	1	10	0	-150	100	
62	0	780.865	0	460	1105	2857	4205	601	-10.0	200	0	8	781.591	1	10	1	-150	100	
63	0	795.179	0	460	1105	2857	4205	701	3.3	200	0	8	796.085	1	10	0	-150	100	
64	0	807.805	0	460	1105	2857	4205	901	-10.0	200	0	8	808.349	1	10	1	-150	100	
65	0	822.904	0	460	1105	2857	4205	1001	-3.3	200	0	8	823.587	1	10	0	-150	100	
66	0	833.336	0	730	2058	2857	4205	501	6.7	200	1	2	834.410	1	10	0	-150	100	
67	0	845.303	0	730	2058	2857	4205	601	0.0	200	1	2	846.105	1	10	1	-150	100	
68	0	859.548	0	730	2058	2857	4205	801	-6.7	200	1	2	860.240	1	10	0	-150	100	
69	0	869.618	0	730	2058	2857	4205	1001	0.0	200	1	2	870.302	1	10	1	-150	100	
70	0	879.563	0	460	1105	2857	4205	701	3.3	200	0	2	880.390	0	10	1	-150	100	
71	1	884.114	0	460	1105	2857	4205	701	3.3	200	0	2	885.023	0	10	0	-150	100	
72	1	894.603	0	460	1105	2857	4205	701	3.3	200	0	8	895.443	1	10	0	-150	100	
73	0	908.586	0	730	2058	2857	4205	801	-6.7	200	1	2	909.456	1	10	0	-150	100	
74	0	923.289	0	730	2058	2857	4205	1001	-10.0	200	1	2	924.117	1	10	0	-150	100	
75	0	932.548	0	460	1105	2857	4205	701	6.7	200	0	8	933.177	1	10	0	-150	100	
76	0	942.925	0	460	1105	2857	4205	501	10.0	200	0	8	943.910	1	10	1	-150	100	
77	0	952.111	0	460	1105	2857	4205	601	6.7	200	0	8	952.903	1	10	0	-150	100	
78	0	973.166	0	730	2058	2857	4205	701	-10.0	200	1	2	973.861	1	10	1	-150	100	
79	0	981.431	0	460	1105	2857	4205	501	-6.7	200	0	8	982.307	1	10	0	-150	100	
80	0	990.464	0	730	2058	2857	4205	601	0.0	200	1	8	991.300	0	10	1	-150	100	
81	1	998.053	0	730	2058	2857	4205	601	0.0	200	1	2	999.015	1	10	0	-150	100	
82	0	1007.836	0	460	1105	2857	4205	1001	10.0	200	0	2	1008.788	0	10	0	-150	100	
83	1	1017.640	0	460	1105	2857	4205	1001	10.0	200	0	2	1018.345	0	10	0	-150	100	
84	1	1025.319	0	460	1105	2857	4205	1001	10.0	200	0	8	1026.162	1	10	0	-150	100	
85	0	1035.851	0	460	1105	2857	4205	801	3.3	200	0	8	1036.635	1	10	1	-150	100	
86	0	1044.457	0	730	2058	2857	4205	601	10.0	200	1	2	1045.523	1	10	1	-150	100	
87	0	1057.379	0	730	2058	2857	4205	701	-6.7	200	1	8	1058.197	0	10	0	-150	100	
88	1	1065.299	0	730	2058	2857	4205	701	-6.7	200	1	2	1066.190	1	10	0	-150	100	
89	0	1078.743	0	730	2058	2857	4205	801	3.3	200	1	8	1079.544	0	10	0	-150	100	
90	1	1084.931	0	730	2058	2857	4205	801	3.3	200	1	2	1086.034	1	10	0	-150	100	
91	0	1094.436	0	460	1105	2857	4205	901	-10.0	200	0	8	1095.045	1	10	1	-150	100	
92	0	1103.493	0	460	1105	2857	4205	501	6.7	200	0	8	1104.475	1	10	1	-150	100	
93	0	1122.554	0	730	2058	2857	4205	1001	0.0	200	1	2	1123.420	1	10	0	-150	100	
94	0	1131.756	0	730	2058	2857	4205	801	-10.0	200	1	2	1132.469	1	10	0	-150	100	
95	0	1143.859	0	730	2058	2857	4205	601	10.0	200	1	2	1144.830	1	10	1	-150	100	
96	0	1154.333	0	460	1105	2857	4205	501	6.7	200	0	8	1155.127	1	10	1	-150	100	
97	0	1170.408	0	460	1105	2857	4205	701	-6.7	200	0	8	1171.436	1	10	0	-150	100	
98	0	1181.128	0	460	1105	2857	4205	501	-3.3	200	0	8	1181.830	1	10	0	-150	100	
99	0	1191.219	0	730	2058	2857	4205	601	3.3	200	1	2	1192.189	1	10	1	-150	100	
100	0	1208.417	0	730	2058	2857	4205	901	-10.0	200	1	2	1209.239	1	10	1	-150	100	
101	0	1219.589	0	460	1105	2857	4205	801	0.0	200	0	8	1220.284	1	10	1	-150	100	
102	0	1231.997	0	730	2058	2857	4205	1001	10.0	200	1	2	1233.044	1	10	0	-150	100	
103	0	1246.811	0	460	1105	2857	4205	901	6.7	200	0	2	1247.627	0	10	0	-150	100	
104	1	1256.249	0	460	1105	2857	4205	901	6.7	200	0	2	1257.033	0	10	0	-150	100	
105	1	1261.019	0	460	1105	2857	4205	901	6.7	200	0	2	1261.787	0	10	0	-150	100	
106	1	1265.720	0	460	1105	2857	4205	901	6.7	200	0	2	1267.169	0	10	0	-150	100	
107	1	1271.149	0	460	1105	2857	4205	901	6.7	200	0	8	1271.851	1	10	0	-150	100	
108	0	1282.498	0	460	1105	2857	4205	701	3.3	200	0	8	1283.594	1	10	0	-150	100	
109	0	1298.469	0	730	2058	2857	4205	501	-6.7	200	1	8	1299.628	0	10	1	-150	100	
110	1	1303.580	0	730	2058	2857	4205	501	-6.7	200	1	8	1304.667	0	10	0	-150	100	
111	1	1308.261	0	730	2058	2857	4205	501	-6.7	200	1	2	1309.333	1	10	0	-150	100	
112	0	1316.487	0	460	1105	2857	4205	601	3.3	200	0	2	1317.512	0	10	1	-150	100	
113	1	1326.519	0	460	1105	2857	4205	601	3.3	200	0	8	1327.496	1	10	0	-150	100	
114	0	1334.775	0	730	2058	2857	4205	801	6.7	200	1	2	1335.708	1	10	0	-150	100	
115	0	1343.084	0	460	1105	2857	4205	701	-10.0	200	0	8	1343.882	1	10	0	-150	100	
116	0	1359.630	0	730	2058	2857	4205	801	-6.7	200	1	2	1360.382	1	10	0	-150	100	
117	0	1370.674	0	460	1105	2857	4205	501	-3.3	200	0	2	1371.738	0	10	1	-150	100	
118	1	1380.187	0	460	1105	2857	4205	501	-3.3	200	0	8	1381.121	1	10	0	-150	100	
119	0	1394.614	0	460	1105	2857	4205	901	0.0	200	0	8	1395.460	1	10	0	-150	100	
120	0	1403.392	0	460	1105	2857	4205	601	-3.3	200	0	8	1404.126	1	10	1	-150	100	
121	0	1413.574	0	730	2058	2857	4205	601	3.3	200	1	8	1414.666	0	10	1	-150	100	
122	1	1418.820	0	730	2058	2857	4205	601	3.3	200	1	2	1419.922	1	10	0	-150	100	
123	0	1441.581	0	730	2058	2857	4205	1001	-10.0	200	1	2	1442.410	1	10	0	-150	100	
124	0	1455.874	0	730	2058	2857	4205	701	0.0	200	1	2	1456.698	1	10	1	-150	100	
125	0	1466.604	0	460	1105	2857	4205	501	10.0	200	0	8	1467.518	1	10	0	-150	100	
126	0	1483.877	0	460	1105	2857	4205	901	6.7	200	0	2	1484.771	0	10	1	-150	100	
127	1	1519.037	0	460	1105	2857	4205	901	6.7	200	0	-1	-1.000	0	10	0	-150	100	
128	0	1542.688	0	730	2058	2857	4205	901	-10.0	200	1	8	1543.569	0	10	1	-150	100	
129	1	1559.045	0	730	2058	2857	4205	901	-10.0	200	1	2	1559.830	1	10	0	-150	100	
130	0	1568.624	0	460	1105	2857	4205	801	0.0	200	0	2	1569.406	0	10	0	-150	100	
131	1	1576.680	0	460	1105	2857	4205	801	0.0	200	0	8	1577.589	1	10	0	-150	100	
132	0	1590.501	0	730	2058	2857	4205	601	6.7	200	1	2	1591.412	1	10	1	-150	100	
133	0	1599.423	0	460	1105	2857	4205	501	3.3	200	0	8	1600.568	1	10	1	-150	100	
134	0	1610.842	0	730	2058	2857	4205	701	10.0	200	1	2	1611.659	1	10	0	-150	100	
135	0	1622.426	0	730	2058	2857	4205	1001	-3.3	200	1	2	1623.067	1	10	0	-150	100	
136	0	1634.814	0	730	2058	2857	4205	701	-6.7	200	1	2	1635.440	1	10	0	-150	100	
137	0	1647.285	0	730	2058	2857	4205	601	6.7	200	1	8	1648.165	0	10	1	-150	100	
138	1	1652.316	0	730	2058	2857	4205	601	6.7	200	1	2	1653.106	1	10	0	-150	100	
139	0	1663.491	0	460	1105	2857	4205	901	10.0	200	0	2	1664.165	0	10	0	-150	100	
140	1	1668.655	0	460	1105	2857	4205	901	10.0	200	0	2	1670.722	0	10	0	-150	100	
141	1	1674.635	0	460	1105	2857	4205	901	10.0	200	0	2	1675.398	0	10	0	-150	100	
142	1	1684.678	0	460	1105	2857	4205	901	10.0	200	0	8	1685.528	1	10	0	-150	100	
143	0	1698.886	0	460	1105	2857	4205	501	-3.3	200	0	8	1699.670	1	10	1	-150	100	
144	0	1708.142	0	460	1105	2857	4205	601	3.3	200	0	8	1709.169	1	10	0	-150	100	
145	0	1729.239	0	730	2058	2857	4205	1001	-10.0	200	1	2	1729.910	1	10	1	-150	100	
146	0	1743.109	0	730	2058	2857	4205	801	0.0	200	1	2	1743.942	1	10	0	-150	100	
147	0	1751.764	0	460	1105	2857	4205	701	-6.7	200	0	8	1752.353	1	10	1	-150	100	
148	0	1767.211	0	730	2058	2857	4205	901	3.3	200	1	2	1767.868	1	10	0	-150	100	
149	0	1802.105	0	460	1105	2857	4205	1001	-10.0	200	0	2	1802.865	0	10	1	-150	100	
150	1	1806.927	0	460	1105	2857	4205	1001	-10.0	200	0	2	1808.361	0	10	0	-150	100	
151	1	1821.334	0	460	1105	2857	4205	1001	-10.0	200	0	2	1822.351	0	10	0	-150	100	
152	1	1832.593	0	460	1105	2857	4205	1001	-10.0	200	0	8	1833.692	1	10	0	-150	100	
153	0	1844.300	0	460	1105	2857	4205	501	6.7	200	0	2	1845.241	0	10	1	-150	100	
154	1	1850.024	0	460	1105	2857	4205	501	6.7	200	0	2	1850.872	0	10	0	-150	100	
155	1	1860.486	0	460	1105	2857	4205	501	6.7	200	0	2	1861.282	0	10	0	-150	100	
156	1	1864.827	0	460	1105	2857	4205	501	6.7	200	0	2	1865.404	0	10	0	-150	100	
157	1	1868.932	0	460	1105	2857	4205	501	6.7	200	0	2	1869.601	0	10	0	-150	100	
158	1	1873.128	0	460	1105	2857	4205	501	6.7	200	0	2	1874.029	0	10	0	-150	100	
159	1	1877.627	0	460	1105	2857	4205	501	6.7	200	0	8	1878.472	1	10	0	-150	100	
160	0	1894.917	0	730	2058	2857	4205	901	-3.3	200	1	2	1895.612	1	10	1	-150	100	
161	0	1905.214	0	730	2058	2857	4205	701	-10.0	200	1	2	1906.016	1	10	1	-150	100	
162	0	1916.155	0	460	1105	2857	4205	801	-6.7	200	0	8	1916.879	1	10	0	-150	100	
163	0	1926.956	0	730	2058	2857	4205	601	0.0	200	1	2	1927.595	1	10	0	-150	100	
164	0	1942.120	0	460	1105	2857	4205	901	6.7	200	0	8	1943.126	1	10	0	-150	100	
165	0	1954.793	0	460	1105	2857	4205	501	3.3	200	0	2	1955.636	0	10	1	-150	100	
166	1	1962.688	0	460	1105	2857	4205	501	3.3	200	0	8	1963.607	1	10	0	-150	100	
167	0	1974.529	0	730	2058	2857	4205	701	10.0	200	1	2	1975.167	1	10	0	-150	100	
168	0	1984.078	0	730	2058	2857	4205	801	-3.3	200	1	2	1984.891	1	10	1	-150	100	
169	0	2005.427	0	460	1105	2857	4205	901	-6.7	200	0	2	2006.217	0	10	0	-150	100	
170	1	2023.780	0	460	1105	2857	4205	901	-6.7	200	0	8	2024.476	1	10	0	-150	100	
171	0	2036.746	0	730	2058	2857	4205	701	0.0	200	1	2	2037.509	1	10	0	-150	100	
172	0	2052.087	0	460	1105	2857	4205	801	3.3	200	0	8	2052.900	1	10	0	-150	100	
173	0	2063.147	0	460	1105	2857	4205	501	10.0	200	0	8	2064.069	1	10	1	-150	100	
174	0	2075.977	0	730	2058	2857	4205	601	6.7	200	1	2	2076.668	1	10	1	-150	100	
175	0	2088.793	0	460	1105	2857	4205	901	0.0	200	0	2	2090.527	0	10	0	-150	100	
176	1	2107.965	0	460	1105	2857	4205	901	0.0	200	0	2	2108.634	0	10	0	-150	100	
177	1	2115.720	0	460	1105	2857	4205	901	0.0	200	0	8	2116.694	1	10	0	-150	100	
178	0	2127.422	0	460	1105	2857	4205	601	6.7	200	0	8	2128.264	1	10	0	-150	100	
179	0	2135.255	0	730	2058	2857	4205	801	3.3	200	1	8	2136.320	0	10	0	-150	100	
180	1	2144.002	0	730	2058	2857	4205	801	3.3	200	1	2	2144.761	1	10	0	-150	100	
181	0	2155.770	0	730	2058	2857	4205	701	-3.3	200	1	2	2156.844	1	10	1	-150	100	
182	0	2173.726	0	730	2058	2857	4205	1001	-6.7	200	1	2	2174.620	1	10	0	-150	100	
183	0	2185.410	0	730	2058	2857	4205	901	10.0	200	1	2	2186.191	1	10	1	-150	100	
184	0	2206.759	0	460	1105	2857	4205	1001	10.0	200	0	2	2207.483	0	10	1	-150	100	
185	1	2213.112	0	460	1105	2857	4205	1001	10.0	200	0	8	2214.060	1	10	0	-150	100	
186	0	2223.129	0	460	1105	2857	4205	701	-10.0	200	0	8	2223.928	1	10	1	-150	100	
187	0	2234.928	0	730	2058	2857	4205	601	0.0	200	1	2	2235.525	1	10	0	-150	100	
188	0	2248.016	0	730	2058	2857	4205	801	3.3	200	1	2	2248.933	1	10	1	-150	100	
189	0	2264.343	0	460	1105	2857	4205	601	-3.3	200	0	8	2265.144	1	10	1	-150	100	
190	0	2279.820	0	460	1105	2857	4205	901	6.7	200	0	8	2280.711	1	10	0	-150	100	
191	0	2290.424	0	460	1105	2857	4205	701	-6.7	200	0	8	2291.127	1	10	1	-150	100	
192	0	2312.841	0	460	1105	2857	4205	1001	3.3	200	0	8	2313.864	1	10	0	-150	100	
193	0	2322.819	0	730	2058	2857	4205	801	6.7	200	1	2	2323.574	1	10	0	-150	100	
194	0	2331.504	0	730	2058	2857	4205	601	-3.3	200	1	2	2332.535	1	10	1	-150	100	
195	0	2352.083	0	460	1105	2857	4205	501	-10.0	200	0	8	2353.106	1	10	1	-150	100	
196	0	2368.370	0	460	1105	2857	4205	701	0.0	200	0	2	2369.368	0	10	1	-150	100	
197	1	2376.746	0	460	1105	2857	4205	701	0.0	200	0	8	2377.677	1	10	0	-150	100	
198	0	2391.230	0	730	2058	2857	4205	1001	-6.7	200	1	2	2391.852	1	10	1	-150	100	
199	0	2404.438	0	730	2058	2857	4205	901	-3.3	200	1	2	2405.120	1	10	1	-150	100	
200	0	2414.691	0	460	1105	2857	4205	501	3.3	200	0	8	2415.415	1	10	0	-150	100	
201	0	2425.587	0	730	2058	2857	4205	601	0.0	200	1	2	2426.540	1	10	0	-150	100	
202	0	2449.149	0	460	1105	2857	4205	901	6.7	200	0	8	2449.963	1	10	0	-150	100	
203	0	2459.856	0	730	2058	2857	4205	801	10.0	200	1	8	2460.929	0	10	0	-150	100	
204	1	2467.830	0	730	2058	2857	4205	801	10.0	200	1	2	2468.661	1	10	0	-150	100	
205	0	2476.249	0	460	1105	2857	4205	701	0.0	200	0	8	2477.009	1	10	1	-150	100	
206	0	2492.862	0	730	2058	2857	4205	801	-3.3	200	1	2	2493.563	1	10	0	-150	100	
207	0	2508.421	0	730	2058	2857	4205	701	-10.0	200	1	2	2509.050	1	10	1	-150	100	
208	0	2516.855	0	730	2058	2857	4205	501	3.3	200	1	2	2517.552	1	10	1	-150	100	
209	0	2525.726	0	730	2058	2857	4205	901	-6.7	200	1	8	2526.410	0	10	0	-150	100	
210	1	2533.401	0	730	2058	2857	4205	901	-6.7	200	1	2	2534.862	1	10	0	-150	100	
211	0	2543.179	0	460	1105	2857	4205	601	10.0	200	0	2	2544.050	0	10	1	-150	100	
212	1	2552.405	0	460	1105	2857	4205	601	10.0	200	0	8	2553.298	1	10	0	-150	100	
213	0	2573.590	0	460	1105	2857	4205	701	-6.7	200	0	2	2574.429	0	10	0	-150	100	
214	1	2618.576	0	460	1105	2857	4205	701	-6.7	200	0	8	2619.566	1	10	0	-150	100	
215	0	2641.512	0	460	1105	2857	4205	801	10.0	200	0	2	2643.452	0	10	0	-150	100	
216	1	2658.945	0	460	1105	2857	4205	801	10.0	200	0	2	2659.492	0	10	0	-150	100	
217	1	2668.106	0	460	1105	2857	4205	801	10.0	200	0	2	2668.997	0	10	0	-150	100	
218	1	2684.638	0	460	1105	2857	4205	801	10.0	200	0	2	2685.534	0	10	0	-150	100	
219	1	2700.607	0	460	1105	2857	4205	801	10.0	200	0	2	2701.383	0	10	0	-150	100	
220	1	2705.717	0	460	1105	2857	4205	801	10.0	200	0	8	2707.092	1	10	0	-150	100	
221	0	2726.865	0	730	2058	2857	4205	901	3.3	200	1	2	2727.672	1	10	0	-150	100	
222	0	2738.978	0	460	1105	2857	4205	1001	6.7	200	0	2	2740.539	0	10	0	-150	100	
