Trial	CorrectionTrial?	StartTime	CenterReward?	F1	F2	F3	F4	HoldTime	Atten	Pitch	Side	Response	RespTime	Correct	SpatialMask	Mask	
1	0	1056.2363	0	437	2761	2975	4263	511	-12.8	200	1	0	1057.3647	0	4	
2	1	1071.2239	1	437	2761	2975	4263	511	-12.8	200	1	0	1072.2358	0	4	
3	1	1087.8677	0	437	2761	2975	4263	511	-12.8	200	1	0	1109.0026	0	4	
4	1	1157.4966	0	437	2761	2975	4263	511	-12.8	200	1	1	1171.7874	1	4	
5	0	1189.0071	1	437	2761	2975	4263	503	-15.0	200	1	1	1194.7477	1	5	
6	0	1204.2760	1	437	2761	2975	4263	502	-6.0	200	1	0	1204.8305	0	4	
7	1	1206.7971	1	437	2761	2975	4263	502	-6.0	200	1	0	1211.2330	0	4	
8	1	1227.1551	1	437	2761	2975	4263	502	-6.0	200	1	1	1231.7658	1	4	
9	0	1234.4704	0	936	1551	2975	4263	504	-8.3	200	0	0	1235.2681	1	1	
10	0	1238.7086	1	936	1551	2975	4263	509	-10.5	200	0	0	1242.0674	1	3	
11	0	1245.4051	0	437	2761	2975	4263	510	-6.0	200	1	0	1246.4615	0	0	
12	1	1250.1871	0	437	2761	2975	4263	510	-6.0	200	1	1	1252.0690	1	0	
13	0	1268.4331	0	437	2761	2975	4263	501	-6.0	200	1	1	1269.3479	1	2	
14	0	1273.1086	1	936	1551	2975	4263	507	-8.3	200	0	0	1273.4092	1	2	
15	0	1276.7358	0	437	2761	2975	4263	505	-8.3	200	1	0	1282.0525	0	5	
16	1	1283.6570	0	437	2761	2975	4263	505	-8.3	200	1	1	1284.8264	1	5	
17	0	1294.8673	1	437	2761	2975	4263	508	-15.0	200	1	0	1295.5064	0	3	
18	1	1297.3183	1	437	2761	2975	4263	508	-15.0	200	1	1	1303.3171	1	3	
19	0	1305.7008	0	936	1551	2975	4263	504	-8.3	200	0	0	1306.6635	1	3	
20	0	1315.2358	0	936	1551	2975	4263	507	-6.0	200	0	0	1316.5791	1	3	
21	0	1322.5911	1	936	1551	2975	4263	501	-12.8	200	0	0	1324.8120	1	4	
22	0	1328.4161	0	936	1551	2975	4263	505	-6.0	200	0	0	1329.3118	1	0	
23	0	1332.6777	1	936	1551	2975	4263	503	-15.0	200	0	1	1337.4920	0	5	
24	1	1340.0738	1	936	1551	2975	4263	503	-15.0	200	0	0	1340.8625	1	5	
25	0	1344.0994	1	437	2761	2975	4263	511	-15.0	200	1	0	1350.5585	0	0	
26	1	1354.4772	1	437	2761	2975	4263	511	-15.0	200	1	1	1357.5339	1	0	
27	0	1360.5788	0	437	2761	2975	4263	502	-8.3	200	1	1	1361.9206	1	3	
28	0	1366.0802	1	437	2761	2975	4263	506	-8.3	200	1	1	1369.5995	1	1	
29	0	1384.8722	1	437	2761	2975	4263	510	-10.5	200	1	0	1387.0531	0	5	
30	1	1389.0689	0	437	2761	2975	4263	510	-10.5	200	1	1	1390.5107	1	5	
31	0	1392.8733	0	437	2761	2975	4263	508	-12.8	200	1	0	1393.7585	0	5	
32	1	1398.1286	0	437	2761	2975	4263	508	-12.8	200	1	1	1399.4618	1	5	
33	0	1402.0692	0	437	2761	2975	4263	501	-15.0	200	1	0	1403.0065	0	2	
34	1	1414.0585	1	437	2761	2975	4263	501	-15.0	200	1	1	1416.5510	1	2	
35	0	1419.3461	0	437	2761	2975	4263	506	-12.8	200	1	0	1420.4097	0	0	
36	1	1424.0240	1	437	2761	2975	4263	506	-12.8	200	1	1	1426.8650	1	0	
37	0	1430.4256	1	936	1551	2975	4263	502	-15.0	200	0	0	1433.1760	1	4	
38	0	1437.0069	0	437	2761	2975	4263	505	-6.0	200	1	0	1437.9429	0	1	
39	1	1441.2425	1	437	2761	2975	4263	505	-6.0	200	1	1	1443.4165	1	1	
40	0	1446.3001	1	936	1551	2975	4263	508	-6.0	200	0	0	1448.3590	1	4	
41	0	1452.2027	1	437	2761	2975	4263	511	-6.0	200	1	1	1458.0956	1	3	
42	0	1472.5561	0	437	2761	2975	4263	509	-10.5	200	1	0	1473.6997	0	1	
43	1	1475.7303	0	437	2761	2975	4263	509	-10.5	200	1	1	1476.8916	1	1	
44	0	1478.7550	1	437	2761	2975	4263	503	-10.5	200	1	0	1481.7136	0	3	
45	1	1489.8720	0	437	2761	2975	4263	503	-10.5	200	1	0	1490.8780	0	3	
46	1	1498.1420	1	437	2761	2975	4263	503	-10.5	200	1	0	1500.4144	0	3	
47	1	1502.0288	0	437	2761	2975	4263	503	-10.5	200	1	1	1503.5882	1	3	
48	0	1506.7770	0	437	2761	2975	4263	510	-12.8	200	1	1	1507.8816	1	1	
49	0	1511.7699	0	936	1551	2975	4263	507	-10.5	200	0	0	1512.7863	1	0	
50	0	1516.4396	1	936	1551	2975	4263	503	-6.0	200	0	0	1518.7611	1	5	
51	0	1522.7034	1	437	2761	2975	4263	501	-10.5	200	1	0	1526.1219	0	0	
52	1	1534.9290	0	437	2761	2975	4263	501	-10.5	200	1	0	1535.6497	0	0	
53	1	1542.3010	1	437	2761	2975	4263	501	-10.5	200	1	1	1545.8021	1	0	
54	0	1549.2665	0	936	1551	2975	4263	502	-10.5	200	0	0	1549.9893	1	4	
55	0	1553.4260	0	437	2761	2975	4263	505	-8.3	200	1	1	1554.9137	1	0	
56	0	1564.7960	1	936	1551	2975	4263	507	-8.3	200	0	0	1567.8715	1	0	
57	0	1571.3368	1	936	1551	2975	4263	510	-10.5	200	0	0	1574.2421	1	2	
58	0	1577.6793	1	936	1551	2975	4263	511	-15.0	200	0	0	1581.5793	1	3	
59	0	1592.8222	1	936	1551	2975	4263	506	-12.8	200	0	1	1596.9745	0	1	
60	1	1599.9151	1	936	1551	2975	4263	506	-12.8	200	0	1	1603.5055	0	1	
61	1	1621.8844	1	936	1551	2975	4263	506	-12.8	200	0	0	1623.8215	1	1	
62	0	1635.7497	1	437	2761	2975	4263	504	-10.5	200	1	0	1638.3305	0	4	
63	1	1640.2878	0	437	2761	2975	4263	504	-10.5	200	1	1	1641.7297	1	4	
64	0	1648.9026	1	437	2761	2975	4263	509	-15.0	200	1	1	1652.4845	1	1	
65	0	1663.7465	0	437	2761	2975	4263	501	-6.0	200	1	0	1664.6926	0	5	
66	1	1666.7301	0	437	2761	2975	4263	501	-6.0	200	1	1	1668.1355	1	5	
67	0	1674.1461	1	936	1551	2975	4263	510	-12.8	200	0	0	1676.1745	1	0	
68	0	1679.7318	1	936	1551	2975	4263	508	-8.3	200	0	0	1682.3978	1	5	
69	0	1685.8004	1	936	1551	2975	4263	507	-6.0	200	0	1	1692.4248	0	2	
70	1	1694.8317	1	936	1551	2975	4263	507	-6.0	200	0	0	1698.3851	1	2	
71	0	1701.8561	0	936	1551	2975	4263	509	-12.8	200	0	0	1702.9574	1	2	
72	0	1714.9338	1	936	1551	2975	4263	506	-10.5	200	0	0	1716.9629	1	5	
73	0	1720.9582	1	936	1551	2975	4263	505	-8.3	200	0	0	1724.0130	1	4	
74	0	1727.4533	0	437	2761	2975	4263	511	-8.3	200	1	1	1728.8148	1	4	
75	0	1731.2811	1	936	1551	2975	4263	503	-10.5	200	0	0	1732.1356	1	1	
76	0	1735.7852	0	936	1551	2975	4263	504	-12.8	200	0	0	1738.7255	1	5	
77	0	1754.4957	0	936	1551	2975	4263	510	-15.0	200	0	1	1755.2889	0	1	
78	1	1761.4489	0	936	1551	2975	4263	510	-15.0	200	0	0	1762.4805	1	1	
79	0	1768.6444	1	936	1551	2975	4263	503	-15.0	200	0	0	1770.8240	1	0	
80	0	1780.7399	0	437	2761	2975	4263	509	-15.0	200	1	1	1782.0121	1	4	
81	0	1797.2914	0	437	2761	2975	4263	511	-12.8	200	1	0	1798.1881	0	2	
82	1	1802.7259	1	437	2761	2975	4263	511	-12.8	200	1	1	1805.4803	1	2	
83	0	1808.1682	0	936	1551	2975	4263	504	-15.0	200	0	0	1809.3385	1	2	
84	0	1812.6609	0	437	2761	2975	4263	502	-12.8	200	1	0	1813.6446	0	3	
85	1	1817.8644	0	437	2761	2975	4263	502	-12.8	200	1	0	1818.6479	0	3	
86	1	1830.1665	1	437	2761	2975	4263	502	-12.8	200	1	1	1833.0752	1	3	
87	0	1839.6412	1	437	2761	2975	4263	508	-8.3	200	1	0	1843.5770	0	2	
88	1	1882.9635	0	437	2761	2975	4263	508	-8.3	200	1	1	1884.3039	1	2	
89	0	1927.9172	0	936	1551	2975	4263	507	-12.8	200	0	0	1929.2796	1	3	
