Trial	CorrectionTrial?	StartTime	CenterReward?	F1	F2	F3	F4	HoldTime	Atten	Pitch	Side	Response	RespTime	Correct	SpatialMask	Mask	
1	0	1.3338	1	936	1551	2975	4263	501	-6.0	200	0	0	2.8402	1	1	
2	0	6.5125	1	437	2761	2975	4263	511	-15.0	200	1	0	8.1107	0	4	
3	1	10.5977	1	437	2761	2975	4263	511	-15.0	200	1	0	14.3162	0	4	
4	1	16.3026	1	437	2761	2975	4263	511	-15.0	200	1	0	19.7373	0	4	
5	1	22.1525	0	437	2761	2975	4263	511	-15.0	200	1	1	23.3465	1	4	
6	0	25.2059	1	936	1551	2975	4263	505	-10.5	200	0	0	27.6957	1	3	
7	0	31.0949	0	936	1551	2975	4263	504	-8.3	200	0	0	32.0708	1	2	
8	0	35.1304	0	437	2761	2975	4263	510	-15.0	200	1	1	36.2431	1	1	
9	0	39.2023	0	437	2761	2975	4263	507	-6.0	200	1	1	40.4928	1	1	
10	0	43.4728	1	437	2761	2975	4263	506	-8.3	200	1	0	45.2446	0	0	
11	1	47.7174	1	437	2761	2975	4263	506	-8.3	200	1	1	50.8743	1	0	
12	0	58.7606	1	437	2761	2975	4263	502	-6.0	200	1	0	61.2022	0	0	
13	1	63.3367	1	437	2761	2975	4263	502	-6.0	200	1	1	65.6390	1	0	
14	0	69.7716	1	936	1551	2975	4263	503	-10.5	200	0	0	72.3504	1	4	
15	0	75.4772	0	936	1551	2975	4263	509	-12.8	200	0	0	76.3749	1	5	
16	0	79.4654	0	437	2761	2975	4263	507	-10.5	200	1	1	80.6489	1	5	
17	0	85.0842	1	437	2761	2975	4263	502	-10.5	200	1	0	87.8321	0	1	
18	1	90.0102	1	437	2761	2975	4263	502	-10.5	200	1	1	92.1088	1	1	
19	0	98.7901	1	437	2761	2975	4263	509	-15.0	200	1	0	103.2766	0	5	
20	1	105.5112	1	437	2761	2975	4263	509	-15.0	200	1	1	107.3215	1	5	
21	0	112.5479	0	437	2761	2975	4263	503	-15.0	200	1	1	113.7061	1	2	
22	0	119.5852	1	437	2761	2975	4263	508	-12.8	200	1	1	122.2074	1	4	
23	0	127.3704	0	936	1551	2975	4263	510	-10.5	200	0	0	128.3200	1	0	
24	0	131.2628	0	437	2761	2975	4263	501	-6.0	200	1	0	132.2913	0	5	
25	1	134.6815	0	437	2761	2975	4263	501	-6.0	200	1	1	135.9064	1	5	
26	0	141.6894	1	437	2761	2975	4263	511	-10.5	200	1	0	143.7646	0	0	
27	1	147.6267	1	437	2761	2975	4263	511	-10.5	200	1	1	150.3128	1	0	
28	0	155.2898	1	936	1551	2975	4263	504	-8.3	200	0	0	157.0075	1	4	
29	0	160.0658	0	437	2761	2975	4263	506	-12.8	200	1	0	161.0829	0	3	
30	1	163.3498	0	437	2761	2975	4263	506	-12.8	200	1	1	164.2858	1	3	
31	0	168.4914	0	936	1551	2975	4263	502	-15.0	200	0	0	169.4700	1	3	
32	0	172.6758	1	936	1551	2975	4263	508	-15.0	200	0	0	174.0251	1	1	
33	0	177.1767	0	437	2761	2975	4263	511	-6.0	200	1	0	178.2354	0	2	
34	1	180.6216	0	437	2761	2975	4263	511	-6.0	200	1	1	181.6583	1	2	
35	0	186.8034	0	936	1551	2975	4263	509	-12.8	200	0	0	187.5139	1	4	
36	0	190.7871	0	437	2761	2975	4263	506	-12.8	200	1	1	192.0184	1	5	
37	0	196.3295	1	936	1551	2975	4263	507	-12.8	200	0	0	197.3033	1	0	
38	0	200.3000	0	437	2761	2975	4263	503	-12.8	200	1	1	201.1086	1	1	
39	0	206.7244	1	437	2761	2975	4263	504	-8.3	200	1	1	210.1161	1	1	
40	0	213.8792	0	936	1551	2975	4263	505	-15.0	200	0	0	214.6246	1	4	
41	0	218.2901	0	936	1551	2975	4263	510	-10.5	200	0	0	219.1487	1	2	
42	0	222.2301	1	437	2761	2975	4263	504	-8.3	200	1	1	224.7938	1	5	
43	0	231.7402	0	437	2761	2975	4263	508	-10.5	200	1	1	233.0151	1	3	
44	0	239.0206	0	936	1551	2975	4263	511	-10.5	200	0	0	239.8901	1	5	
45	0	242.7493	1	437	2761	2975	4263	501	-10.5	200	1	0	245.3337	0	2	
46	1	247.0592	1	437	2761	2975	4263	501	-10.5	200	1	1	249.8835	1	2	
47	0	255.6031	0	936	1551	2975	4263	503	-15.0	200	0	0	256.6464	1	5	
48	0	259.9500	1	936	1551	2975	4263	509	-6.0	200	0	1	262.9100	0	3	
49	1	265.0308	0	936	1551	2975	4263	509	-6.0	200	0	0	265.9646	1	3	
50	0	269.0903	0	936	1551	2975	4263	510	-12.8	200	0	0	270.0491	1	3	
51	0	274.1581	0	936	1551	2975	4263	502	-8.3	200	0	0	274.9506	1	3	
52	0	278.2845	1	437	2761	2975	4263	507	-8.3	200	1	0	280.3460	0	2	
53	1	282.8365	1	437	2761	2975	4263	507	-8.3	200	1	1	285.2106	1	2	
54	0	290.1249	0	437	2761	2975	4263	505	-6.0	200	1	1	291.7004	1	4	
55	0	298.3128	1	936	1551	2975	4263	501	-8.3	200	0	0	301.2212	1	1	
56	0	304.4743	1	437	2761	2975	4263	508	-8.3	200	1	0	307.3888	0	4	
57	1	310.2561	0	437	2761	2975	4263	508	-8.3	200	1	1	311.6311	1	4	
58	0	317.1755	1	936	1551	2975	4263	506	-15.0	200	0	0	319.2011	1	0	
59	0	322.3944	0	936	1551	2975	4263	503	-6.0	200	0	0	323.9316	1	5	
60	0	327.2490	1	437	2761	2975	4263	502	-6.0	200	1	0	330.4013	0	3	
61	1	333.3125	0	437	2761	2975	4263	502	-6.0	200	1	1	334.3810	1	3	
62	0	339.3794	0	437	2761	2975	4263	504	-8.3	200	1	0	340.2343	0	3	
63	1	343.8733	1	437	2761	2975	4263	504	-8.3	200	1	1	346.7797	1	3	
64	0	352.6915	1	936	1551	2975	4263	511	-6.0	200	0	0	355.6759	1	0	
65	0	359.1227	0	936	1551	2975	4263	509	-12.8	200	0	1	360.5382	0	1	
66	1	362.2211	0	936	1551	2975	4263	509	-12.8	200	0	0	363.0875	1	1	
67	0	371.9472	1	936	1551	2975	4263	505	-15.0	200	0	0	373.6315	1	2	
68	0	376.5843	1	437	2761	2975	4263	510	-12.8	200	1	1	380.1172	1	0	
69	0	382.7125	0	936	1551	2975	4263	507	-8.3	200	0	0	383.5039	1	0	
70	0	386.3603	0	437	2761	2975	4263	508	-10.5	200	1	1	387.5357	1	4	
71	0	395.2087	0	936	1551	2975	4263	504	-12.8	200	0	0	396.0230	1	2	
72	0	399.0843	1	936	1551	2975	4263	506	-10.5	200	0	0	401.8776	1	1	
73	0	405.0626	0	936	1551	2975	4263	509	-6.0	200	0	0	406.0680	1	2	
74	0	408.8567	1	437	2761	2975	4263	503	-15.0	200	1	0	411.1143	0	0	
75	1	413.6308	0	437	2761	2975	4263	503	-15.0	200	1	1	414.8433	1	0	
76	0	420.1576	0	936	1551	2975	4263	511	-8.3	200	0	0	421.1370	1	5	
77	0	424.1887	0	936	1551	2975	4263	510	-6.0	200	0	0	425.1764	1	4	
78	0	428.1191	1	437	2761	2975	4263	501	-15.0	200	1	1	431.5369	1	3	
79	0	435.4950	0	437	2761	2975	4263	505	-12.8	200	1	1	436.8041	1	2	
80	0	442.7196	0	437	2761	2975	4263	509	-12.8	200	1	1	444.6703	1	2	
81	0	449.2292	0	437	2761	2975	4263	507	-6.0	200	1	1	450.5355	1	0	
82	0	456.2353	0	936	1551	2975	4263	511	-12.8	200	0	0	456.9669	1	4	
83	0	460.3544	0	936	1551	2975	4263	505	-10.5	200	0	0	461.1441	1	4	
84	0	464.2712	1	936	1551	2975	4263	508	-10.5	200	0	0	466.0346	1	3	
85	0	468.9342	1	437	2761	2975	4263	501	-8.3	200	1	1	473.0533	1	4	
86	0	477.7980	0	936	1551	2975	4263	502	-12.8	200	0	0	478.5480	1	5	
87	0	481.5940	0	936	1551	2975	4263	506	-15.0	200	0	0	482.6988	1	0	
88	0	485.8830	0	936	1551	2975	4263	510	-6.0	200	0	0	486.7743	1	4	
89	0	489.7160	1	437	2761	2975	4263	504	-15.0	200	1	0	492.9790	0	5	
90	1	495.1491	0	437	2761	2975	4263	504	-15.0	200	1	1	496.0862	1	5	
91	0	500.4116	0	437	2761	2975	4263	511	-10.5	200	1	1	501.6540	1	2	
92	0	508.2457	0	936	1551	2975	4263	505	-10.5	200	0	0	509.0600	1	1	
93	0	512.3070	1	437	2761	2975	4263	508	-10.5	200	1	1	515.0450	1	5	
94	0	520.9627	1	936	1551	2975	4263	501	-6.0	200	0	0	523.7916	1	1	
95	0	527.4838	0	437	2761	2975	4263	510	-15.0	200	1	1	528.6711	1	4	
96	0	534.0306	1	437	2761	2975	4263	503	-8.3	200	1	0	536.6760	0	3	
97	1	538.4601	0	437	2761	2975	4263	503	-8.3	200	1	1	539.5727	1	3	
98	0	545.7420	0	936	1551	2975	4263	507	-6.0	200	0	0	546.6717	1	5	
99	0	549.7798	0	437	2761	2975	4263	504	-12.8	200	1	1	551.0202	1	5	
100	0	557.2564	0	437	2761	2975	4263	502	-15.0	200	1	0	558.0204	0	3	
101	1	561.0618	1	437	2761	2975	4263	502	-15.0	200	1	1	564.3835	1	3	
102	0	569.9725	1	437	2761	2975	4263	506	-6.0	200	1	1	573.0690	1	4	
103	0	578.1914	0	936	1551	2975	4263	505	-6.0	200	0	0	579.1421	1	3	
104	0	582.0955	0	437	2761	2975	4263	502	-10.5	200	1	1	583.2326	1	3	
105	0	590.1158	0	437	2761	2975	4263	501	-12.8	200	1	1	591.2551	1	4	
106	0	598.8664	1	936	1551	2975	4263	508	-10.5	200	0	0	601.3632	1	2	
107	0	607.0840	1	936	1551	2975	4263	507	-12.8	200	0	0	610.5472	1	1	
108	0	613.7824	1	936	1551	2975	4263	511	-8.3	200	0	0	617.2385	1	2	
109	0	620.5731	1	437	2761	2975	4263	506	-10.5	200	1	1	624.8285	1	1	
110	0	627.7533	0	936	1551	2975	4263	510	-8.3	200	0	0	628.7090	1	3	
111	0	631.7672	0	437	2761	2975	4263	503	-8.3	200	1	0	632.5391	0	2	
112	1	634.2663	1	437	2761	2975	4263	503	-8.3	200	1	1	637.4063	1	2	
113	0	650.1784	0	936	1551	2975	4263	504	-12.8	200	0	0	651.0624	1	0	
114	0	653.8343	1	936	1551	2975	4263	503	-10.5	200	0	1	656.6670	0	5	
115	1	658.9728	1	936	1551	2975	4263	503	-10.5	200	0	1	661.5364	0	5	
116	1	663.3837	1	936	1551	2975	4263	503	-10.5	200	0	0	665.4910	1	5	
117	0	668.4828	1	437	2761	2975	4263	504	-15.0	200	1	1	671.9674	1	0	
118	0	677.1189	0	936	1551	2975	4263	502	-8.3	200	0	0	678.1842	1	4	
119	0	683.0601	0	936	1551	2975	4263	510	-10.5	200	0	0	683.9294	1	0	
120	0	686.8221	0	437	2761	2975	4263	507	-6.0	200	1	1	687.8669	1	2	
121	0	689.5925	1	437	2761	2975	4263	508	-6.0	200	1	1	691.7012	1	5	
122	0	698.2880	0	936	1551	2975	4263	501	-12.8	200	0	0	699.3836	1	3	
123	0	702.2174	0	437	2761	2975	4263	506	-8.3	200	1	1	703.2907	1	1	
124	0	707.6881	1	437	2761	2975	4263	511	-10.5	200	1	1	710.4857	1	4	
125	0	716.2580	0	437	2761	2975	4263	509	-15.0	200	1	1	717.6180	1	1	
126	0	723.4306	1	437	2761	2975	4263	508	-6.0	200	1	0	725.9223	0	1	
127	1	728.0044	1	437	2761	2975	4263	508	-6.0	200	1	0	732.1073	0	1	
128	1	735.4376	0	437	2761	2975	4263	508	-6.0	200	1	1	736.9789	1	1	
129	0	740.7791	1	936	1551	2975	4263	509	-8.3	200	0	0	742.7784	1	0	
130	0	746.0455	0	936	1551	2975	4263	510	-15.0	200	0	0	747.2425	1	5	
131	0	750.4537	1	936	1551	2975	4263	505	-15.0	200	0	0	752.7826	1	4	
132	0	755.8296	0	437	2761	2975	4263	506	-8.3	200	1	1	757.1344	1	5	
133	0	762.8898	1	936	1551	2975	4263	501	-6.0	200	0	0	765.4323	1	0	
134	0	768.7536	0	437	2761	2975	4263	511	-12.8	200	1	0	769.9124	0	0	
135	1	772.4515	0	437	2761	2975	4263	511	-12.8	200	1	1	773.6208	1	0	
136	0	780.2830	0	936	1551	2975	4263	503	-8.3	200	0	0	781.3733	1	1	
137	0	784.1739	0	936	1551	2975	4263	502	-6.0	200	0	0	785.1644	1	2	
138	0	788.2131	0	437	2761	2975	4263	507	-12.8	200	1	0	795.9572	0	3	
139	1	800.3915	1	437	2761	2975	4263	507	-12.8	200	1	1	802.6911	1	3	
140	0	805.1265	0	437	2761	2975	4263	511	-6.0	200	1	1	806.4471	1	3	
141	0	812.5927	0	936	1551	2975	4263	501	-15.0	200	0	0	813.4896	1	3	
142	0	816.0983	1	437	2761	2975	4263	504	-15.0	200	1	1	818.7587	1	2	
143	0	821.8780	0	437	2761	2975	4263	508	-10.5	200	1	1	823.0475	1	0	
144	0	829.1949	1	936	1551	2975	4263	509	-12.8	200	0	0	831.0301	1	2	
145	0	834.3412	0	936	1551	2975	4263	502	-8.3	200	0	0	835.3581	1	5	
146	0	838.2811	1	437	2761	2975	4263	505	-12.8	200	1	0	840.9460	0	1	
147	1	844.1150	1	437	2761	2975	4263	505	-12.8	200	1	0	849.8980	0	1	
148	1	852.0579	1	437	2761	2975	4263	505	-12.8	200	1	1	854.5797	1	1	
149	0	858.4483	1	437	2761	2975	4263	503	-8.3	200	1	1	861.6008	1	0	
150	0	866.0922	0	936	1551	2975	4263	510	-15.0	200	0	0	867.1571	1	1	
151	0	870.2805	1	936	1551	2975	4263	506	-15.0	200	0	0	872.6016	1	2	
152	0	875.5810	0	936	1551	2975	4263	509	-10.5	200	0	0	876.5401	1	4	
153	0	879.4971	0	437	2761	2975	4263	505	-6.0	200	1	1	880.5477	1	3	
154	0	886.2215	1	936	1551	2975	4263	504	-10.5	200	0	1	889.4106	0	3	
155	1	892.0139	1	936	1551	2975	4263	504	-10.5	200	0	0	894.8728	1	3	
156	0	897.8350	0	936	1551	2975	4263	510	-8.3	200	0	0	898.8701	1	2	
157	0	905.4082	1	936	1551	2975	4263	502	-15.0	200	0	1	908.3125	0	4	
158	1	910.4042	0	936	1551	2975	4263	502	-15.0	200	0	0	911.3675	1	4	
159	0	914.4110	1	936	1551	2975	4263	507	-15.0	200	0	0	916.6873	1	2	
160	0	919.3819	1	936	1551	2975	4263	506	-10.5	200	0	0	922.2691	1	5	
161	0	925.3929	0	437	2761	2975	4263	508	-8.3	200	1	1	926.6953	1	5	
162	0	928.5385	1	936	1551	2975	4263	501	-10.5	200	0	1	930.9490	0	1	
163	1	933.5902	0	936	1551	2975	4263	501	-10.5	200	0	0	934.7541	1	1	
164	0	937.2371	0	437	2761	2975	4263	511	-8.3	200	1	0	938.3008	0	1	
165	1	941.0151	0	437	2761	2975	4263	511	-8.3	200	1	1	941.9661	1	1	
166	0	948.7743	1	936	1551	2975	4263	504	-10.5	200	0	0	951.5744	1	2	
167	0	955.4259	1	936	1551	2975	4263	502	-12.8	200	0	0	957.2881	1	2	
168	0	960.4053	0	936	1551	2975	4263	506	-6.0	200	0	1	965.5117	0	1	
169	1	970.3516	0	936	1551	2975	4263	506	-6.0	200	0	1	971.3902	0	1	
170	1	973.5547	1	936	1551	2975	4263	506	-6.0	200	0	0	975.9017	1	1	
171	0	988.6798	1	936	1551	2975	4263	505	-12.8	200	0	0	990.5367	1	5	
172	0	993.6502	1	936	1551	2975	4263	510	-6.0	200	0	0	995.8138	1	4	
173	0	998.3247	1	437	2761	2975	4263	501	-6.0	200	1	1	1001.7220	1	1	
174	0	1016.0416	1	437	2761	2975	4263	511	-15.0	200	1	1	1018.1906	1	5	
175	0	1019.9857	0	936	1551	2975	4263	503	-8.3	200	0	0	1021.1368	1	3	
