Trial,StartTime,CenterReward,F1,F2,F3,F4,HoldTime,Atten,Pitch,Side,Response,RespTime,Correct,SpatialMask,originalFile,LeftTemperature,RightTemperature,fNum,vowel_level,SNR,day,treatment,SpatialCondition,VowelLocation
80,668.6321,0,460,1105.0,2857.0,4205.0,951.0,10.0,200.0,0.0,0.0,670.3649,1.0,0.0,27_11_2014 level23_spatial_F+V 10_50 Block7-31.txt,37,37,1201,47.0,-20.0,2014-11-27,False,colocated,left
144,1554.4939,0,460,1105.0,2857.0,4205.0,701.0,10.0,200.0,0.0,0.0,1555.9564,1.0,0.0,22_05_2015 level23_spatial_F+V 10_27 Block10-54.txt,37,37,1201,47.0,-20.0,2015-05-22,False,colocated,left
27,345.3263,0,460,1105.0,2857.0,4205.0,801.0,10.0,200.0,0.0,0.0,346.9077,1.0,0.0,12_08_2014 level23_spatial_F+V 10_04 Block6-61.txt,37,37,1201,47.0,-20.0,2014-08-12,False,colocated,left
45,445.6385,0,460,1105.0,2857.0,4205.0,951.0,10.0,200.0,0.0,1.0,446.5347,0.0,0.0,30_04_2015 level23_spatial_F+V 08_58 Block10-18.txt,37,37,1201,47.0,-20.0,2015-04-30,False,colocated,left
60,657.3866,0,460,1105.0,2857.0,4205.0,601.0,10.0,200.0,0.0,0.0,659.0942,1.0,0.0,01_04_2015 level23_spatial_F+V 14_35 Block9-7.txt,37,37,1201,47.0,-20.0,2015-04-01,False,colocated,left
97,817.6436,0,460,1105.0,2857.0,4205.0,951.0,10.0,200.0,0.0,0.0,819.1492,1.0,0.0,12_01_2015 level23_spatial_F+V 09_32 Block7-74.txt,37,37,1201,47.0,-20.0,2015-01-12,False,colocated,left
13,209.9321,0,460,1105.0,2857.0,4205.0,901.0,10.0,200.0,0.0,1.0,211.7405,0.0,0.0,22_05_2015 level23_spatial_F+V 10_27 Block10-54.txt,37,37,1201,47.0,-20.0,2015-05-22,False,colocated,left
4,28.6155,1,460,1105.0,2857.0,4205.0,551.0,10.0,200.0,0.0,0.0,29.4781,1.0,0.0,21_05_2015 level23_spatial_F+V 10_00 Block10-51.txt,37,37,1201,47.0,-20.0,2015-05-21,False,colocated,left
115,1455.7107,0,460,1105.0,2857.0,4205.0,951.0,10.0,200.0,0.0,1.0,1459.3597,0.0,0.0,14_10_2014 level23_spatial_F+V 10_43 Block7-3.txt,37,37,1201,47.0,-20.0,2014-10-14,False,colocated,left
8,85.1342,1,460,1105.0,2857.0,4205.0,501.0,10.0,200.0,0.0,0.0,86.503,1.0,0.0,09_01_2015 level23_spatial_F+V 09_25 Block7-70.txt,37,37,1201,47.0,-20.0,2015-01-09,False,colocated,left
150,1618.0485,0,460,1105.0,2857.0,4205.0,901.0,10.0,200.0,0.0,0.0,1619.0534,1.0,0.0,01_05_2015 level23_spatial_F+V 10_23 Block10-20.txt,37,37,1201,47.0,-20.0,2015-05-01,False,colocated,left
148,1585.6357,0,460,1105.0,2857.0,4205.0,1001.0,10.0,200.0,0.0,0.0,1587.1743,1.0,0.0,01_05_2015 level23_spatial_F+V 10_23 Block10-20.txt,37,37,1201,47.0,-20.0,2015-05-01,False,colocated,left
20,238.2219,1,460,1105.0,2857.0,4205.0,501.0,10.0,200.0,0.0,0.0,239.2952,1.0,0.0,14_10_2014 level23_spatial_F+V 10_43 Block7-3.txt,37,37,1201,47.0,-20.0,2014-10-14,False,colocated,left
96,918.0914,0,460,1105.0,2857.0,4205.0,1001.0,10.0,200.0,0.0,0.0,919.7053,1.0,0.0,30_04_2015 level23_spatial_F+V 08_58 Block10-18.txt,37,37,1201,47.0,-20.0,2015-04-30,False,colocated,left
61,515.9429,0,460,1105.0,2857.0,4205.0,501.0,10.0,200.0,0.0,0.0,517.6393,1.0,0.0,12_01_2015 level23_spatial_F+V 09_32 Block7-74.txt,37,37,1201,47.0,-20.0,2015-01-12,False,colocated,left
10,102.6484,0,460,1105.0,2857.0,4205.0,801.0,10.0,200.0,0.0,1.0,103.8428,0.0,0.0,12_01_2015 level23_spatial_F+V 09_32 Block7-74.txt,37,37,1201,47.0,-20.0,2015-01-12,False,colocated,left
33,313.304,0,460,1105.0,2857.0,4205.0,751.0,10.0,200.0,0.0,0.0,314.4912,1.0,0.0,01_05_2015 level23_spatial_F+V 10_23 Block10-20.txt,37,37,1201,47.0,-20.0,2015-05-01,False,colocated,left
90,1051.3786,0,460,1105.0,2857.0,4205.0,751.0,10.0,200.0,0.0,0.0,1053.8737,1.0,0.0,12_08_2014 level23_spatial_F+V 10_04 Block6-61.txt,37,37,1201,47.0,-20.0,2014-08-12,False,colocated,left
15,186.8159,0,460,1105.0,2857.0,4205.0,801.0,10.0,200.0,0.0,1.0,188.2663,0.0,0.0,21_05_2015 level23_spatial_F+V 10_00 Block10-51.txt,37,37,1201,47.0,-20.0,2015-05-21,False,colocated,left
9,77.6747,0,460,1105.0,2857.0,4205.0,1001.0,10.0,200.0,0.0,0.0,78.2283,1.0,0.0,20_03_2015 level23_spatial_F+V 08_27 Block9-1.txt,37,37,1201,47.0,-20.0,2015-03-20,False,colocated,left
82,730.7901,0,460,1105.0,2857.0,4205.0,801.0,10.0,200.0,0.0,0.0,732.3956,1.0,0.0,09_01_2015 level23_spatial_F+V 09_25 Block7-70.txt,37,37,1201,47.0,-20.0,2015-01-09,False,colocated,left
194,2191.2291,0,460,1105.0,2857.0,4205.0,1001.0,10.0,200.0,0.0,0.0,2192.9953,1.0,0.0,22_05_2015 level23_spatial_F+V 10_27 Block10-54.txt,37,37,1201,47.0,-20.0,2015-05-22,False,colocated,left
16,233.1889,0,460,1105.0,2857.0,4205.0,701.0,10.0,200.0,0.0,0.0,234.1704,1.0,0.0,22_05_2015 level23_spatial_F+V 10_27 Block10-54.txt,37,37,1201,47.0,-20.0,2015-05-22,False,colocated,left
47,545.4421,0,460,1105.0,2857.0,4205.0,951.0,10.0,200.0,0.0,0.0,546.5353,1.0,0.0,01_04_2015 level23_spatial_F+V 14_35 Block9-7.txt,37,37,1201,47.0,-20.0,2015-04-01,False,colocated,left
96,785.1492,0,460,1105.0,2857.0,4205.0,701.0,10.0,200.0,0.0,1.0,787.5331,0.0,0.0,27_11_2014 level23_spatial_F+V 10_50 Block7-31.txt,37,37,1201,47.0,-20.0,2014-11-27,False,colocated,left
78,746.2688,0,460,1105.0,2857.0,4205.0,851.0,10.0,200.0,0.0,0.0,747.3556,1.0,0.0,02_02_2015 level23_spatial_F+V 09_07 Block8-23.txt,37,37,1201,47.0,-20.0,2015-02-02,False,colocated,left
69,662.8852,0,460,1105.0,2857.0,4205.0,601.0,10.0,200.0,0.0,0.0,664.3563,1.0,0.0,02_02_2015 level23_spatial_F+V 09_07 Block8-23.txt,37,37,1201,47.0,-20.0,2015-02-02,False,colocated,left
42,524.7589,0,460,1105.0,2857.0,4205.0,501.0,10.0,200.0,0.0,0.0,526.3131,1.0,0.0,14_10_2014 level23_spatial_F+V 10_43 Block7-3.txt,37,37,1201,47.0,-20.0,2014-10-14,False,colocated,left
65,833.6558,0,460,1105.0,2857.0,4205.0,601.0,10.0,200.0,0.0,0.0,835.0994,1.0,0.0,14_10_2014 level23_spatial_F+V 10_43 Block7-3.txt,37,37,1201,47.0,-20.0,2014-10-14,False,colocated,left
4,35.4594,1,460,1105.0,2857.0,4205.0,701.0,10.0,200.0,0.0,0.0,36.3281,1.0,0.0,09_12_2014 level23_spatial_F+V 15_44 Block7-45.txt,37,37,1201,47.0,-20.0,2014-12-09,False,colocated,left
108,1178.5193,0,460,1105.0,2857.0,4205.0,1001.0,10.0,200.0,0.0,1.0,1178.6241,0.0,0.0,22_05_2015 level23_spatial_F+V 10_27 Block10-54.txt,37,37,1201,47.0,-20.0,2015-05-22,False,colocated,left
20,203.2357,0,460,1105.0,2857.0,4205.0,801.0,10.0,200.0,0.0,0.0,203.9799,1.0,0.0,30_04_2015 level23_spatial_F+V 08_58 Block10-18.txt,37,37,1201,47.0,-20.0,2015-04-30,False,colocated,left
75,944.0458,0,460,1105.0,2857.0,4205.0,951.0,10.0,200.0,0.0,0.0,946.2202,1.0,0.0,20_03_2015 level23_spatial_F+V 13_34 Block9-2.txt,37,37,1201,47.0,-20.0,2015-03-20,False,colocated,left
90,1051.3786,0,460,1105.0,2857.0,4205.0,751.0,10.0,200.0,0.0,0.0,1053.8737,1.0,0.0,12_08_2014 level23_spatial_F+V 10_04 Block6-61.txt,37,37,1201,47.0,-20.0,2014-08-12,False,colocated,left
2,21.0177,0,460,1105.0,2857.0,4205.0,701.0,10.0,200.0,0.0,0.0,21.8001,1.0,0.0,09_01_2015 level23_spatial_F+V 09_25 Block7-70.txt,37,37,1201,47.0,-20.0,2015-01-09,False,colocated,left
14,435.9031,0,460,1105.0,2857.0,4205.0,951.0,10.0,200.0,0.0,1.0,436.5596,0.0,0.0,11_08_2014 level23_spatial_F+V 09_23 Block6-60.txt,37,37,1201,47.0,-20.0,2014-08-11,False,colocated,left
124,1148.1013,0,460,1105.0,2857.0,4205.0,701.0,10.0,200.0,0.0,0.0,1150.3201,1.0,0.0,09_01_2015 level23_spatial_F+V 09_25 Block7-70.txt,37,37,1201,47.0,-20.0,2015-01-09,False,colocated,left
48,454.0567,0,460,1105.0,2857.0,4205.0,951.0,10.0,200.0,0.0,0.0,455.8254,1.0,0.0,02_02_2015 level23_spatial_F+V 09_07 Block8-23.txt,37,37,1201,47.0,-20.0,2015-02-02,False,colocated,left
5,47.2804,0,460,1105.0,2857.0,4205.0,1001.0,10.0,200.0,0.0,0.0,48.1513,1.0,0.0,30_10_2014 level23_spatial_F+V 09_02 Block7-17.txt,37,37,1201,47.0,-20.0,2014-10-30,False,colocated,left
108,1009.7842,0,460,1105.0,2857.0,4205.0,501.0,10.0,200.0,0.0,0.0,1012.5377,1.0,0.0,30_04_2015 level23_spatial_F+V 08_58 Block10-18.txt,37,37,1201,47.0,-20.0,2015-04-30,False,colocated,left
20,238.2219,1,460,1105.0,2857.0,4205.0,501.0,10.0,200.0,0.0,0.0,239.2952,1.0,0.0,14_10_2014 level23_spatial_F+V 10_43 Block7-3.txt,37,37,1201,47.0,-20.0,2014-10-14,False,colocated,left
111,1415.7498,0,460,1105.0,2857.0,4205.0,901.0,10.0,200.0,0.0,1.0,1417.1472,0.0,0.0,14_10_2014 level23_spatial_F+V 10_43 Block7-3.txt,37,37,1201,47.0,-20.0,2014-10-14,False,colocated,left
76,806.6734,0,460,1105.0,2857.0,4205.0,851.0,10.0,200.0,0.0,0.0,807.4007,1.0,0.0,01_04_2015 level23_spatial_F+V 09_24 Block9-8.txt,37,37,1201,47.0,-20.0,2015-04-01,False,colocated,left
72,645.4392,0,460,1105.0,2857.0,4205.0,501.0,10.0,200.0,0.0,1.0,646.9254,0.0,0.0,30_09_2014 level23_spatial_F+V 10_53 Block6-93.txt,37,37,1201,47.0,-20.0,2014-09-30,False,colocated,left
108,1009.7842,0,460,1105.0,2857.0,4205.0,501.0,10.0,200.0,0.0,0.0,1012.5377,1.0,0.0,30_04_2015 level23_spatial_F+V 08_58 Block10-18.txt,37,37,1201,47.0,-20.0,2015-04-30,False,colocated,left
32,360.9856,0,460,1105.0,2857.0,4205.0,901.0,10.0,200.0,0.0,0.0,362.0254,1.0,0.0,21_05_2015 level23_spatial_F+V 10_00 Block10-51.txt,37,37,1201,47.0,-20.0,2015-05-21,False,colocated,left
194,2191.2291,0,460,1105.0,2857.0,4205.0,1001.0,10.0,200.0,0.0,0.0,2192.9953,1.0,0.0,22_05_2015 level23_spatial_F+V 10_27 Block10-54.txt,37,37,1201,47.0,-20.0,2015-05-22,False,colocated,left
41,401.5817,0,460,1105.0,2857.0,4205.0,801.0,10.0,200.0,0.0,0.0,403.0128,1.0,0.0,02_02_2015 level23_spatial_F+V 09_07 Block8-23.txt,37,37,1201,47.0,-20.0,2015-02-02,False,colocated,left
150,1618.0485,0,460,1105.0,2857.0,4205.0,901.0,10.0,200.0,0.0,0.0,1619.0534,1.0,0.0,01_05_2015 level23_spatial_F+V 10_23 Block10-20.txt,37,37,1201,47.0,-20.0,2015-05-01,False,colocated,left
20,203.2357,0,460,1105.0,2857.0,4205.0,801.0,10.0,200.0,0.0,0.0,203.9799,1.0,0.0,30_04_2015 level23_spatial_F+V 08_58 Block10-18.txt,37,37,1201,47.0,-20.0,2015-04-30,False,colocated,left
18,179.6934,0,460,1105.0,2857.0,4205.0,701.0,10.0,200.0,0.0,0.0,180.9013,1.0,0.0,09_01_2015 level23_spatial_F+V 09_25 Block7-70.txt,37,37,1201,47.0,-20.0,2015-01-09,False,colocated,left
2,21.0177,0,460,1105.0,2857.0,4205.0,701.0,10.0,200.0,0.0,0.0,21.8001,1.0,0.0,09_01_2015 level23_spatial_F+V 09_25 Block7-70.txt,37,37,1201,47.0,-20.0,2015-01-09,False,colocated,left
100,1160.1197,0,460,1105.0,2857.0,4205.0,751.0,10.0,200.0,0.0,0.0,1161.4178,1.0,0.0,12_08_2014 level23_spatial_F+V 10_04 Block6-61.txt,37,37,1201,47.0,-20.0,2014-08-12,False,colocated,left
16,156.1768,0,460,1105.0,2857.0,4205.0,951.0,10.0,200.0,0.0,0.0,157.1626,1.0,0.0,10_12_2014 level23_spatial_F+V 15_26 Block7-48.txt,37,37,1201,47.0,-20.0,2014-12-10,False,colocated,left
2,21.0177,0,460,1105.0,2857.0,4205.0,701.0,10.0,200.0,0.0,0.0,21.8001,1.0,0.0,09_01_2015 level23_spatial_F+V 09_25 Block7-70.txt,37,37,1201,47.0,-20.0,2015-01-09,False,colocated,left
10,90.3466,0,460,1105.0,2857.0,4205.0,801.0,10.0,200.0,0.0,0.0,91.0969,1.0,0.0,20_03_2015 level23_spatial_F+V 08_27 Block9-1.txt,37,37,1201,47.0,-20.0,2015-03-20,False,colocated,left
4,35.4594,1,460,1105.0,2857.0,4205.0,701.0,10.0,200.0,0.0,0.0,36.3281,1.0,0.0,09_12_2014 level23_spatial_F+V 15_44 Block7-45.txt,37,37,1201,47.0,-20.0,2014-12-09,False,colocated,left
33,290.5236,0,460,1105.0,2857.0,4205.0,751.0,10.0,200.0,0.0,1.0,291.5036,0.0,0.0,30_09_2014 level23_spatial_F+V 10_53 Block6-93.txt,37,37,1201,47.0,-20.0,2014-09-30,False,colocated,left
53,522.0241,0,460,1105.0,2857.0,4205.0,501.0,10.0,200.0,0.0,0.0,523.0406,1.0,0.0,30_04_2015 level23_spatial_F+V 08_58 Block10-18.txt,37,37,1201,47.0,-20.0,2015-04-30,False,colocated,left
68,1302.4494,0,460,1105.0,2857.0,4205.0,601.0,10.0,200.0,0.0,1.0,1303.2545,0.0,0.0,02_02_2015 level23_spatial_F+V 14_40 Block8-24.txt,37,37,1201,47.0,-20.0,2015-02-02,False,colocated,left
64,678.3475,0,460,1105.0,2857.0,4205.0,951.0,10.0,200.0,0.0,1.0,679.8294,0.0,0.0,21_05_2015 level23_spatial_F+V 10_00 Block10-51.txt,37,37,1201,47.0,-20.0,2015-05-21,False,colocated,left
43,534.865,0,460,1105.0,2857.0,4205.0,951.0,10.0,200.0,0.0,0.0,536.4065,1.0,0.0,09_12_2014 level23_spatial_F+V 15_44 Block7-45.txt,37,37,1201,47.0,-20.0,2014-12-09,False,colocated,left
67,561.7476,0,460,1105.0,2857.0,4205.0,1001.0,10.0,200.0,0.0,0.0,562.7127,1.0,0.0,27_11_2014 level23_spatial_F+V 10_50 Block7-31.txt,37,37,1201,47.0,-20.0,2014-11-27,False,colocated,left
63,653.2452,0,460,1105.0,2857.0,4205.0,551.0,10.0,200.0,0.0,0.0,654.2224,1.0,0.0,01_05_2015 level23_spatial_F+V 10_23 Block10-20.txt,37,37,1201,47.0,-20.0,2015-05-01,False,colocated,left
42,373.3185,0,460,1105.0,2857.0,4205.0,801.0,10.0,200.0,0.0,1.0,374.2689,0.0,0.0,12_01_2015 level23_spatial_F+V 09_32 Block7-74.txt,37,37,1201,47.0,-20.0,2015-01-12,False,colocated,left
111,1415.7498,0,460,1105.0,2857.0,4205.0,901.0,10.0,200.0,0.0,1.0,1417.1472,0.0,0.0,14_10_2014 level23_spatial_F+V 10_43 Block7-3.txt,37,37,1201,47.0,-20.0,2014-10-14,False,colocated,left
90,1051.3786,0,460,1105.0,2857.0,4205.0,751.0,10.0,200.0,0.0,0.0,1053.8737,1.0,0.0,12_08_2014 level23_spatial_F+V 10_04 Block6-61.txt,37,37,1201,47.0,-20.0,2014-08-12,False,colocated,left
91,938.5869,1,460,1105.0,2857.0,4205.0,601.0,10.0,200.0,0.0,0.0,939.4894,1.0,0.0,21_05_2015 level23_spatial_F+V 10_00 Block10-51.txt,37,37,1201,47.0,-20.0,2015-05-21,False,colocated,left
99,1973.1358,0,460,1105.0,2857.0,4205.0,801.0,10.0,200.0,0.0,0.0,1973.8691,1.0,0.0,02_02_2015 level23_spatial_F+V 14_40 Block8-24.txt,37,37,1201,47.0,-20.0,2015-02-02,False,colocated,left
73,914.5384,0,460,1105.0,2857.0,4205.0,601.0,10.0,200.0,0.0,0.0,916.644,1.0,0.0,09_12_2014 level23_spatial_F+V 15_44 Block7-45.txt,37,37,1201,47.0,-20.0,2014-12-09,False,colocated,left
102,1259.6264,0,460,1105.0,2857.0,4205.0,601.0,10.0,200.0,0.0,1.0,1261.2552,0.0,0.0,30_10_2014 level23_spatial_F+V 09_02 Block7-17.txt,37,37,1201,47.0,-20.0,2014-10-30,False,colocated,left
46,394.0807,0,460,1105.0,2857.0,4205.0,901.0,10.0,200.0,0.0,0.0,395.3623,1.0,0.0,27_11_2014 level23_spatial_F+V 10_50 Block7-31.txt,37,37,1201,47.0,-20.0,2014-11-27,False,colocated,left
187,2089.8469,0,460,1105.0,2857.0,4205.0,551.0,10.0,200.0,0.0,1.0,2089.8272,0.0,0.0,22_05_2015 level23_spatial_F+V 10_27 Block10-54.txt,37,37,1201,47.0,-20.0,2015-05-22,False,colocated,left
15,159.1386,0,460,1105.0,2857.0,4205.0,751.0,10.0,200.0,0.0,0.0,160.0379,1.0,0.0,30_04_2015 level23_spatial_F+V 08_58 Block10-18.txt,37,37,1201,47.0,-20.0,2015-04-30,False,colocated,left
14,435.9031,0,460,1105.0,2857.0,4205.0,951.0,10.0,200.0,0.0,1.0,436.5596,0.0,0.0,11_08_2014 level23_spatial_F+V 09_23 Block6-60.txt,37,37,1201,47.0,-20.0,2014-08-11,False,colocated,left
91,938.5869,1,460,1105.0,2857.0,4205.0,601.0,10.0,200.0,0.0,0.0,939.4894,1.0,0.0,21_05_2015 level23_spatial_F+V 10_00 Block10-51.txt,37,37,1201,47.0,-20.0,2015-05-21,False,colocated,left
41,484.9039,0,460,1105.0,2857.0,4205.0,951.0,10.0,200.0,0.0,0.0,486.2321,1.0,0.0,01_04_2015 level23_spatial_F+V 14_35 Block9-7.txt,37,37,1201,47.0,-20.0,2015-04-01,False,colocated,left
1,21.4805,0,460,1105.0,2857.0,4205.0,501.0,10.0,200.0,0.0,1.0,23.2972,0.0,0.0,11_08_2014 level23_spatial_F+V 09_23 Block6-60.txt,37,37,1201,47.0,-20.0,2014-08-11,False,colocated,left
75,765.5022,0,460,1105.0,2857.0,4205.0,501.0,10.0,200.0,0.0,0.0,767.2571,1.0,0.0,20_03_2015 level23_spatial_F+V 08_27 Block9-1.txt,37,37,1201,47.0,-20.0,2015-03-20,False,colocated,left
27,345.3263,0,460,1105.0,2857.0,4205.0,801.0,10.0,200.0,0.0,0.0,346.9077,1.0,0.0,12_08_2014 level23_spatial_F+V 10_04 Block6-61.txt,37,37,1201,47.0,-20.0,2014-08-12,False,colocated,left
95,974.6593,0,460,1105.0,2857.0,4205.0,501.0,10.0,200.0,0.0,1.0,975.9533,0.0,0.0,20_03_2015 level23_spatial_F+V 08_27 Block9-1.txt,37,37,1201,47.0,-20.0,2015-03-20,False,colocated,left
6,68.8637,0,460,1105.0,2857.0,4205.0,551.0,10.0,200.0,0.0,1.0,70.5188,0.0,0.0,09_12_2014 level23_spatial_F+V 15_44 Block7-45.txt,37,37,1201,47.0,-20.0,2014-12-09,False,colocated,left
10,102.6484,0,460,1105.0,2857.0,4205.0,801.0,10.0,200.0,0.0,1.0,103.8428,0.0,0.0,12_01_2015 level23_spatial_F+V 09_32 Block7-74.txt,37,37,1201,47.0,-20.0,2015-01-12,False,colocated,left
124,1148.1013,0,460,1105.0,2857.0,4205.0,701.0,10.0,200.0,0.0,0.0,1150.3201,1.0,0.0,09_01_2015 level23_spatial_F+V 09_25 Block7-70.txt,37,37,1201,47.0,-20.0,2015-01-09,False,colocated,left
80,668.6321,0,460,1105.0,2857.0,4205.0,951.0,10.0,200.0,0.0,0.0,670.3649,1.0,0.0,27_11_2014 level23_spatial_F+V 10_50 Block7-31.txt,37,37,1201,47.0,-20.0,2014-11-27,False,colocated,left
102,1259.6264,0,460,1105.0,2857.0,4205.0,601.0,10.0,200.0,0.0,1.0,1261.2552,0.0,0.0,30_10_2014 level23_spatial_F+V 09_02 Block7-17.txt,37,37,1201,47.0,-20.0,2014-10-30,False,colocated,left
16,233.1889,0,460,1105.0,2857.0,4205.0,701.0,10.0,200.0,0.0,0.0,234.1704,1.0,0.0,22_05_2015 level23_spatial_F+V 10_27 Block10-54.txt,37,37,1201,47.0,-20.0,2015-05-22,False,colocated,left
111,1415.7498,0,460,1105.0,2857.0,4205.0,901.0,10.0,200.0,0.0,1.0,1417.1472,0.0,0.0,14_10_2014 level23_spatial_F+V 10_43 Block7-3.txt,37,37,1201,47.0,-20.0,2014-10-14,False,colocated,left
63,653.2452,0,460,1105.0,2857.0,4205.0,551.0,10.0,200.0,0.0,0.0,654.2224,1.0,0.0,01_05_2015 level23_spatial_F+V 10_23 Block10-20.txt,37,37,1201,47.0,-20.0,2015-05-01,False,colocated,left
14,435.9031,0,460,1105.0,2857.0,4205.0,951.0,10.0,200.0,0.0,1.0,436.5596,0.0,0.0,11_08_2014 level23_spatial_F+V 09_23 Block6-60.txt,37,37,1201,47.0,-20.0,2014-08-11,False,colocated,left
68,576.1828,0,460,1105.0,2857.0,4205.0,701.0,10.0,200.0,0.0,0.0,577.2185,1.0,0.0,12_01_2015 level23_spatial_F+V 09_32 Block7-74.txt,37,37,1201,47.0,-20.0,2015-01-12,False,colocated,left
88,787.9749,0,460,1105.0,2857.0,4205.0,901.0,10.0,200.0,0.0,1.0,789.8641,0.0,0.0,30_09_2014 level23_spatial_F+V 10_53 Block6-93.txt,37,37,1201,47.0,-20.0,2014-09-30,False,colocated,left
1,21.4805,0,460,1105.0,2857.0,4205.0,501.0,10.0,200.0,0.0,1.0,23.2972,0.0,0.0,11_08_2014 level23_spatial_F+V 09_23 Block6-60.txt,37,37,1201,47.0,-20.0,2014-08-11,False,colocated,left
52,451.7553,1,460,1105.0,2857.0,4205.0,651.0,10.0,200.0,0.0,0.0,452.8512,1.0,0.0,12_01_2015 level23_spatial_F+V 09_32 Block7-74.txt,37,37,1201,47.0,-20.0,2015-01-12,False,colocated,left
35,307.9384,0,460,1105.0,2857.0,4205.0,651.0,10.0,200.0,0.0,0.0,308.8343,1.0,0.0,27_11_2014 level23_spatial_F+V 10_50 Block7-31.txt,37,37,1201,47.0,-20.0,2014-11-27,False,colocated,left
78,746.2688,0,460,1105.0,2857.0,4205.0,851.0,10.0,200.0,0.0,0.0,747.3556,1.0,0.0,02_02_2015 level23_spatial_F+V 09_07 Block8-23.txt,37,37,1201,47.0,-20.0,2015-02-02,False,colocated,left
15,305.4776,0,460,1105.0,2857.0,4205.0,801.0,10.0,200.0,0.0,1.0,306.1804,0.0,0.0,02_02_2015 level23_spatial_F+V 14_40 Block8-24.txt,37,37,1201,47.0,-20.0,2015-02-02,False,colocated,left
78,739.8802,1,460,1105.0,2857.0,4205.0,551.0,10.0,200.0,0.0,0.0,743.4209,1.0,0.0,10_12_2014 level23_spatial_F+V 15_26 Block7-48.txt,37,37,1201,47.0,-20.0,2014-12-10,False,colocated,left
187,2089.8469,0,460,1105.0,2857.0,4205.0,551.0,10.0,200.0,0.0,1.0,2089.8272,0.0,0.0,22_05_2015 level23_spatial_F+V 10_27 Block10-54.txt,37,37,1201,47.0,-20.0,2015-05-22,False,colocated,left
1,15.2899,1,460,1105.0,2857.0,4205.0,951.0,10.0,200.0,0.0,0.0,16.1164,1.0,0.0,12_08_2014 level23_spatial_F+V 10_04 Block6-61.txt,37,37,1201,47.0,-20.0,2014-08-12,False,colocated,left
43,534.865,0,460,1105.0,2857.0,4205.0,951.0,10.0,200.0,0.0,0.0,536.4065,1.0,0.0,09_12_2014 level23_spatial_F+V 15_44 Block7-45.txt,37,37,1201,47.0,-20.0,2014-12-09,False,colocated,left
13,128.4655,0,460,1105.0,2857.0,4205.0,751.0,10.0,200.0,0.0,0.0,129.133,1.0,0.0,20_03_2015 level23_spatial_F+V 08_27 Block9-1.txt,37,37,1201,47.0,-20.0,2015-03-20,False,colocated,left
44,528.0667,0,460,1105.0,2857.0,4205.0,551.0,10.0,200.0,0.0,0.0,530.3262,1.0,0.0,30_10_2014 level23_spatial_F+V 09_02 Block7-17.txt,37,37,1201,47.0,-20.0,2014-10-30,False,colocated,left
8,85.1342,1,460,1105.0,2857.0,4205.0,501.0,10.0,200.0,0.0,0.0,86.503,1.0,0.0,09_01_2015 level23_spatial_F+V 09_25 Block7-70.txt,37,37,1201,47.0,-20.0,2015-01-09,False,colocated,left
41,484.9039,0,460,1105.0,2857.0,4205.0,951.0,10.0,200.0,0.0,0.0,486.2321,1.0,0.0,01_04_2015 level23_spatial_F+V 14_35 Block9-7.txt,37,37,1201,47.0,-20.0,2015-04-01,False,colocated,left
21,179.4207,0,460,1105.0,2857.0,4205.0,851.0,10.0,200.0,0.0,1.0,183.5947,0.0,0.0,01_05_2015 level23_spatial_F+V 10_23 Block10-20.txt,37,37,1201,47.0,-20.0,2015-05-01,False,colocated,left
76,685.0125,0,460,1105.0,2857.0,4205.0,1001.0,10.0,200.0,0.0,1.0,686.0602,0.0,0.0,30_09_2014 level23_spatial_F+V 10_53 Block6-93.txt,37,37,1201,47.0,-20.0,2014-09-30,False,colocated,left
57,712.2656,0,460,1105.0,2857.0,4205.0,651.0,10.0,200.0,0.0,0.0,713.9389,1.0,0.0,20_03_2015 level23_spatial_F+V 13_34 Block9-2.txt,37,37,1201,47.0,-20.0,2015-03-20,False,colocated,left
91,1117.5263,1,460,1105.0,2857.0,4205.0,751.0,10.0,200.0,0.0,1.0,1124.4503,0.0,0.0,30_10_2014 level23_spatial_F+V 09_02 Block7-17.txt,37,37,1201,47.0,-20.0,2014-10-30,False,colocated,left
81,988.2608,0,460,1105.0,2857.0,4205.0,851.0,10.0,200.0,0.0,1.0,989.7847,0.0,0.0,30_10_2014 level23_spatial_F+V 09_02 Block7-17.txt,37,37,1201,47.0,-20.0,2014-10-30,False,colocated,left
115,1455.7107,0,460,1105.0,2857.0,4205.0,951.0,10.0,200.0,0.0,1.0,1459.3597,0.0,0.0,14_10_2014 level23_spatial_F+V 10_43 Block7-3.txt,37,37,1201,47.0,-20.0,2014-10-14,False,colocated,left
150,1618.0485,0,460,1105.0,2857.0,4205.0,901.0,10.0,200.0,0.0,0.0,1619.0534,1.0,0.0,01_05_2015 level23_spatial_F+V 10_23 Block10-20.txt,37,37,1201,47.0,-20.0,2015-05-01,False,colocated,left
78,739.8802,1,460,1105.0,2857.0,4205.0,551.0,10.0,200.0,0.0,0.0,743.4209,1.0,0.0,10_12_2014 level23_spatial_F+V 15_26 Block7-48.txt,37,37,1201,47.0,-20.0,2014-12-10,False,colocated,left
13,209.9321,0,460,1105.0,2857.0,4205.0,901.0,10.0,200.0,0.0,1.0,211.7405,0.0,0.0,22_05_2015 level23_spatial_F+V 10_27 Block10-54.txt,37,37,1201,47.0,-20.0,2015-05-22,False,colocated,left
15,184.571,0,460,1105.0,2857.0,4205.0,601.0,10.0,200.0,0.0,0.0,186.0542,1.0,0.0,01_04_2015 level23_spatial_F+V 14_35 Block9-7.txt,37,37,1201,47.0,-20.0,2015-04-01,False,colocated,left
56,500.7163,0,460,1105.0,2857.0,4205.0,751.0,10.0,200.0,0.0,0.0,501.6741,1.0,0.0,09_01_2015 level23_spatial_F+V 09_25 Block7-70.txt,37,37,1201,47.0,-20.0,2015-01-09,False,colocated,left
9,77.6747,0,460,1105.0,2857.0,4205.0,1001.0,10.0,200.0,0.0,0.0,78.2283,1.0,0.0,20_03_2015 level23_spatial_F+V 08_27 Block9-1.txt,37,37,1201,47.0,-20.0,2015-03-20,False,colocated,left
81,677.6814,0,730,2058.0,2857.0,4205.0,701.0,10.0,200.0,1.0,0.0,678.7812,0.0,0.0,12_01_2015 level23_spatial_F+V 09_32 Block7-74.txt,37,37,1201,47.0,-20.0,2015-01-12,False,colocated,left
97,990.9182,1,730,2058.0,2857.0,4205.0,801.0,10.0,200.0,1.0,0.0,996.7672,0.0,0.0,20_03_2015 level23_spatial_F+V 08_27 Block9-1.txt,37,37,1201,47.0,-20.0,2015-03-20,False,colocated,left
113,1012.3758,0,730,2058.0,2857.0,4205.0,901.0,10.0,200.0,1.0,1.0,1014.3774,1.0,0.0,30_09_2014 level23_spatial_F+V 10_53 Block6-93.txt,37,37,1201,47.0,-20.0,2014-09-30,False,colocated,left
76,771.5753,0,730,2058.0,2857.0,4205.0,751.0,10.0,200.0,1.0,0.0,773.2466,0.0,0.0,20_03_2015 level23_spatial_F+V 08_27 Block9-1.txt,37,37,1201,47.0,-20.0,2015-03-20,False,colocated,left
52,495.9505,0,730,2058.0,2857.0,4205.0,851.0,10.0,200.0,1.0,1.0,498.3378,1.0,0.0,02_02_2015 level23_spatial_F+V 09_07 Block8-23.txt,37,37,1201,47.0,-20.0,2015-02-02,False,colocated,left
39,460.8193,0,730,2058.0,2857.0,4205.0,651.0,10.0,200.0,1.0,0.0,462.1885,0.0,0.0,01_04_2015 level23_spatial_F+V 14_35 Block9-7.txt,37,37,1201,47.0,-20.0,2015-04-01,False,colocated,left
48,456.9982,0,730,2058.0,2857.0,4205.0,751.0,10.0,200.0,1.0,0.0,458.0973,0.0,0.0,10_12_2014 level23_spatial_F+V 15_26 Block7-48.txt,37,37,1201,47.0,-20.0,2014-12-10,False,colocated,left
35,441.2675,0,730,2058.0,2857.0,4205.0,551.0,10.0,200.0,1.0,0.0,442.7361,0.0,0.0,14_10_2014 level23_spatial_F+V 10_43 Block7-3.txt,37,37,1201,47.0,-20.0,2014-10-14,False,colocated,left
32,414.8061,0,730,2058.0,2857.0,4205.0,801.0,10.0,200.0,1.0,1.0,416.0153,1.0,0.0,12_08_2014 level23_spatial_F+V 10_04 Block6-61.txt,37,37,1201,47.0,-20.0,2014-08-12,False,colocated,left
62,790.9763,0,730,2058.0,2857.0,4205.0,751.0,10.0,200.0,1.0,0.0,792.6731,0.0,0.0,14_10_2014 level23_spatial_F+V 10_43 Block7-3.txt,37,37,1201,47.0,-20.0,2014-10-14,False,colocated,left
36,321.3237,0,730,2058.0,2857.0,4205.0,951.0,10.0,200.0,1.0,0.0,322.5294,0.0,0.0,12_01_2015 level23_spatial_F+V 09_32 Block7-74.txt,37,37,1201,47.0,-20.0,2015-01-12,False,colocated,left
11,96.2108,0,730,2058.0,2857.0,4205.0,651.0,10.0,200.0,1.0,1.0,97.3381,1.0,0.0,20_03_2015 level23_spatial_F+V 08_27 Block9-1.txt,37,37,1201,47.0,-20.0,2015-03-20,False,colocated,left
85,859.7662,0,730,2058.0,2857.0,4205.0,901.0,10.0,200.0,1.0,0.0,860.8356,0.0,0.0,02_02_2015 level23_spatial_F+V 09_07 Block8-23.txt,37,37,1201,47.0,-20.0,2015-02-02,False,colocated,left
119,1101.575,0,730,2058.0,2857.0,4205.0,1001.0,10.0,200.0,1.0,0.0,1103.2563,0.0,0.0,09_01_2015 level23_spatial_F+V 09_25 Block7-70.txt,37,37,1201,47.0,-20.0,2015-01-09,False,colocated,left
79,786.9766,0,730,2058.0,2857.0,4205.0,801.0,10.0,200.0,1.0,1.0,789.7245,1.0,0.0,30_04_2015 level23_spatial_F+V 08_58 Block10-18.txt,37,37,1201,47.0,-20.0,2015-04-30,False,colocated,left
65,709.9035,0,730,2058.0,2857.0,4205.0,551.0,10.0,200.0,1.0,0.0,711.2526,0.0,0.0,22_05_2015 level23_spatial_F+V 10_27 Block10-54.txt,37,37,1201,47.0,-20.0,2015-05-22,False,colocated,left
53,595.6743,1,730,2058.0,2857.0,4205.0,1001.0,10.0,200.0,1.0,0.0,596.7499,0.0,0.0,01_04_2015 level23_spatial_F+V 14_35 Block9-7.txt,37,37,1201,47.0,-20.0,2015-04-01,False,colocated,left
55,539.1587,0,730,2058.0,2857.0,4205.0,501.0,10.0,200.0,1.0,0.0,540.8659,0.0,0.0,10_12_2014 level23_spatial_F+V 15_26 Block7-48.txt,37,37,1201,47.0,-20.0,2014-12-10,False,colocated,left
39,460.8193,0,730,2058.0,2857.0,4205.0,651.0,10.0,200.0,1.0,0.0,462.1885,0.0,0.0,01_04_2015 level23_spatial_F+V 14_35 Block9-7.txt,37,37,1201,47.0,-20.0,2015-04-01,False,colocated,left
80,712.8181,0,730,2058.0,2857.0,4205.0,901.0,10.0,200.0,1.0,0.0,714.0594,0.0,0.0,09_01_2015 level23_spatial_F+V 09_25 Block7-70.txt,37,37,1201,47.0,-20.0,2015-01-09,False,colocated,left
32,406.6587,1,730,2058.0,2857.0,4205.0,901.0,10.0,200.0,1.0,0.0,411.1625,0.0,0.0,14_10_2014 level23_spatial_F+V 10_43 Block7-3.txt,37,37,1201,47.0,-20.0,2014-10-14,False,colocated,left
93,1795.4433,0,730,2058.0,2857.0,4205.0,851.0,10.0,200.0,1.0,1.0,1796.2421,1.0,0.0,02_02_2015 level23_spatial_F+V 14_40 Block8-24.txt,37,37,1201,47.0,-20.0,2015-02-02,False,colocated,left
17,165.1262,0,730,2058.0,2857.0,4205.0,501.0,10.0,200.0,1.0,1.0,166.3696,1.0,0.0,20_03_2015 level23_spatial_F+V 08_27 Block9-1.txt,37,37,1201,47.0,-20.0,2015-03-20,False,colocated,left
147,1416.4582,0,730,2058.0,2857.0,4205.0,601.0,10.0,200.0,1.0,0.0,1418.9224,0.0,0.0,30_04_2015 level23_spatial_F+V 08_58 Block10-18.txt,37,37,1201,47.0,-20.0,2015-04-30,False,colocated,left
62,790.9763,0,730,2058.0,2857.0,4205.0,751.0,10.0,200.0,1.0,0.0,792.6731,0.0,0.0,14_10_2014 level23_spatial_F+V 10_43 Block7-3.txt,37,37,1201,47.0,-20.0,2014-10-14,False,colocated,left
93,1795.4433,0,730,2058.0,2857.0,4205.0,851.0,10.0,200.0,1.0,1.0,1796.2421,1.0,0.0,02_02_2015 level23_spatial_F+V 14_40 Block8-24.txt,37,37,1201,47.0,-20.0,2015-02-02,False,colocated,left
66,812.6665,0,730,2058.0,2857.0,4205.0,851.0,10.0,200.0,1.0,0.0,814.8541,0.0,0.0,20_03_2015 level23_spatial_F+V 13_34 Block9-2.txt,37,37,1201,47.0,-20.0,2015-03-20,False,colocated,left
150,1388.5624,0,730,2058.0,2857.0,4205.0,951.0,10.0,200.0,1.0,0.0,1389.8319,0.0,0.0,09_01_2015 level23_spatial_F+V 09_25 Block7-70.txt,37,37,1201,47.0,-20.0,2015-01-09,False,colocated,left
69,730.9361,0,730,2058.0,2857.0,4205.0,901.0,10.0,200.0,1.0,0.0,731.8675,0.0,0.0,01_04_2015 level23_spatial_F+V 09_24 Block9-8.txt,37,37,1201,47.0,-20.0,2015-04-01,False,colocated,left
65,662.6985,0,730,2058.0,2857.0,4205.0,501.0,10.0,200.0,1.0,0.0,664.6872,0.0,0.0,01_05_2015 level23_spatial_F+V 10_23 Block10-20.txt,37,37,1201,47.0,-20.0,2015-05-01,False,colocated,left
72,636.4006,0,730,2058.0,2857.0,4205.0,601.0,10.0,200.0,1.0,0.0,637.3706,0.0,0.0,09_01_2015 level23_spatial_F+V 09_25 Block7-70.txt,37,37,1201,47.0,-20.0,2015-01-09,False,colocated,left
39,460.8193,0,730,2058.0,2857.0,4205.0,651.0,10.0,200.0,1.0,0.0,462.1885,0.0,0.0,01_04_2015 level23_spatial_F+V 14_35 Block9-7.txt,37,37,1201,47.0,-20.0,2015-04-01,False,colocated,left
36,373.4793,0,730,2058.0,2857.0,4205.0,551.0,10.0,200.0,1.0,1.0,374.749,1.0,0.0,01_04_2015 level23_spatial_F+V 09_24 Block9-8.txt,37,37,1201,47.0,-20.0,2015-04-01,False,colocated,left
98,1026.4764,0,730,2058.0,2857.0,4205.0,801.0,10.0,200.0,1.0,0.0,1027.8165,0.0,0.0,01_05_2015 level23_spatial_F+V 10_23 Block10-20.txt,37,37,1201,47.0,-20.0,2015-05-01,False,colocated,left
29,354.5057,1,730,2058.0,2857.0,4205.0,751.0,10.0,200.0,1.0,1.0,358.2489,1.0,0.0,22_05_2015 level23_spatial_F+V 10_27 Block10-54.txt,37,37,1201,47.0,-20.0,2015-05-22,False,colocated,left
98,1026.4764,0,730,2058.0,2857.0,4205.0,801.0,10.0,200.0,1.0,0.0,1027.8165,0.0,0.0,01_05_2015 level23_spatial_F+V 10_23 Block10-20.txt,37,37,1201,47.0,-20.0,2015-05-01,False,colocated,left
136,1488.7558,0,730,2058.0,2857.0,4205.0,651.0,10.0,200.0,1.0,0.0,1489.9277,0.0,0.0,02_02_2015 level23_spatial_F+V 09_07 Block8-23.txt,37,37,1201,47.0,-20.0,2015-02-02,False,colocated,left
52,461.1105,0,730,2058.0,2857.0,4205.0,1001.0,10.0,200.0,1.0,0.0,461.8797,0.0,0.0,30_09_2014 level23_spatial_F+V 10_53 Block6-93.txt,37,37,1201,47.0,-20.0,2014-09-30,False,colocated,left
11,96.2108,0,730,2058.0,2857.0,4205.0,651.0,10.0,200.0,1.0,1.0,97.3381,1.0,0.0,20_03_2015 level23_spatial_F+V 08_27 Block9-1.txt,37,37,1201,47.0,-20.0,2015-03-20,False,colocated,left
77,857.3982,0,730,2058.0,2857.0,4205.0,851.0,10.0,200.0,1.0,0.0,858.7685,0.0,0.0,22_05_2015 level23_spatial_F+V 10_27 Block10-54.txt,37,37,1201,47.0,-20.0,2015-05-22,False,colocated,left
44,392.7922,0,730,2058.0,2857.0,4205.0,501.0,10.0,200.0,1.0,1.0,394.2583,1.0,0.0,09_01_2015 level23_spatial_F+V 09_25 Block7-70.txt,37,37,1201,47.0,-20.0,2015-01-09,False,colocated,left
52,495.9505,0,730,2058.0,2857.0,4205.0,851.0,10.0,200.0,1.0,1.0,498.3378,1.0,0.0,02_02_2015 level23_spatial_F+V 09_07 Block8-23.txt,37,37,1201,47.0,-20.0,2015-02-02,False,colocated,left
55,539.1587,0,730,2058.0,2857.0,4205.0,501.0,10.0,200.0,1.0,0.0,540.8659,0.0,0.0,10_12_2014 level23_spatial_F+V 15_26 Block7-48.txt,37,37,1201,47.0,-20.0,2014-12-10,False,colocated,left
84,743.7301,0,730,2058.0,2857.0,4205.0,651.0,10.0,200.0,1.0,0.0,744.8224,0.0,0.0,09_01_2015 level23_spatial_F+V 09_25 Block7-70.txt,37,37,1201,47.0,-20.0,2015-01-09,False,colocated,left
68,618.0238,0,730,2058.0,2857.0,4205.0,751.0,10.0,200.0,1.0,0.0,619.7075,0.0,0.0,30_09_2014 level23_spatial_F+V 10_53 Block6-93.txt,37,37,1201,47.0,-20.0,2014-09-30,False,colocated,left
88,1087.3395,0,730,2058.0,2857.0,4205.0,751.0,10.0,200.0,1.0,0.0,1089.4212,0.0,0.0,20_03_2015 level23_spatial_F+V 13_34 Block9-2.txt,37,37,1201,47.0,-20.0,2015-03-20,False,colocated,left
69,730.9361,0,730,2058.0,2857.0,4205.0,901.0,10.0,200.0,1.0,0.0,731.8675,0.0,0.0,01_04_2015 level23_spatial_F+V 09_24 Block9-8.txt,37,37,1201,47.0,-20.0,2015-04-01,False,colocated,left
138,1651.2339,0,730,2058.0,2857.0,4205.0,551.0,10.0,200.0,1.0,0.0,1653.2896,0.0,0.0,12_08_2014 level23_spatial_F+V 10_04 Block6-61.txt,37,37,1201,47.0,-20.0,2014-08-12,False,colocated,left
69,869.5185,0,730,2058.0,2857.0,4205.0,801.0,10.0,200.0,1.0,0.0,870.4827,0.0,0.0,09_12_2014 level23_spatial_F+V 15_44 Block7-45.txt,37,37,1201,47.0,-20.0,2014-12-09,False,colocated,left
32,414.8061,0,730,2058.0,2857.0,4205.0,801.0,10.0,200.0,1.0,1.0,416.0153,1.0,0.0,12_08_2014 level23_spatial_F+V 10_04 Block6-61.txt,37,37,1201,47.0,-20.0,2014-08-12,False,colocated,left
86,1648.0818,0,730,2058.0,2857.0,4205.0,801.0,10.0,200.0,1.0,0.0,1648.8899,0.0,0.0,02_02_2015 level23_spatial_F+V 14_40 Block8-24.txt,37,37,1201,47.0,-20.0,2015-02-02,False,colocated,left
49,459.2219,0,730,2058.0,2857.0,4205.0,601.0,10.0,200.0,1.0,1.0,462.7918,1.0,0.0,02_02_2015 level23_spatial_F+V 09_07 Block8-23.txt,37,37,1201,47.0,-20.0,2015-02-02,False,colocated,left
138,1397.0597,0,730,2058.0,2857.0,4205.0,701.0,10.0,200.0,1.0,0.0,1398.2314,0.0,0.0,20_03_2015 level23_spatial_F+V 08_27 Block9-1.txt,37,37,1201,47.0,-20.0,2015-03-20,False,colocated,left
34,343.886,0,730,2058.0,2857.0,4205.0,751.0,10.0,200.0,1.0,0.0,345.0524,0.0,0.0,01_04_2015 level23_spatial_F+V 09_24 Block9-8.txt,37,37,1201,47.0,-20.0,2015-04-01,False,colocated,left
44,392.7922,0,730,2058.0,2857.0,4205.0,501.0,10.0,200.0,1.0,1.0,394.2583,1.0,0.0,09_01_2015 level23_spatial_F+V 09_25 Block7-70.txt,37,37,1201,47.0,-20.0,2015-01-09,False,colocated,left
102,1020.3978,0,730,2058.0,2857.0,4205.0,951.0,10.0,200.0,1.0,0.0,1021.5958,0.0,0.0,02_02_2015 level23_spatial_F+V 09_07 Block8-23.txt,37,37,1201,47.0,-20.0,2015-02-02,False,colocated,left
55,539.1587,0,730,2058.0,2857.0,4205.0,501.0,10.0,200.0,1.0,0.0,540.8659,0.0,0.0,10_12_2014 level23_spatial_F+V 15_26 Block7-48.txt,37,37,1201,47.0,-20.0,2014-12-10,False,colocated,left
24,218.021,1,730,2058.0,2857.0,4205.0,801.0,10.0,200.0,1.0,0.0,219.235,0.0,0.0,27_11_2014 level23_spatial_F+V 10_50 Block7-31.txt,37,37,1201,47.0,-20.0,2014-11-27,False,colocated,left
98,1026.4764,0,730,2058.0,2857.0,4205.0,801.0,10.0,200.0,1.0,0.0,1027.8165,0.0,0.0,01_05_2015 level23_spatial_F+V 10_23 Block10-20.txt,37,37,1201,47.0,-20.0,2015-05-01,False,colocated,left
149,1515.9242,0,730,2058.0,2857.0,4205.0,501.0,10.0,200.0,1.0,0.0,1517.9509,0.0,0.0,20_03_2015 level23_spatial_F+V 08_27 Block9-1.txt,37,37,1201,47.0,-20.0,2015-03-20,False,colocated,left
159,1759.301,0,730,2058.0,2857.0,4205.0,801.0,10.0,200.0,1.0,1.0,1760.6214,1.0,0.0,22_05_2015 level23_spatial_F+V 10_27 Block10-54.txt,37,37,1201,47.0,-20.0,2015-05-22,False,colocated,left
100,1206.0944,0,730,2058.0,2857.0,4205.0,551.0,10.0,200.0,1.0,0.0,1208.4592,0.0,0.0,20_03_2015 level23_spatial_F+V 13_34 Block9-2.txt,37,37,1201,47.0,-20.0,2015-03-20,False,colocated,left
200,2238.7471,1,730,2058.0,2857.0,4205.0,501.0,10.0,200.0,1.0,0.0,2244.6008,0.0,0.0,22_05_2015 level23_spatial_F+V 10_27 Block10-54.txt,37,37,1201,47.0,-20.0,2015-05-22,False,colocated,left
66,1258.9888,0,730,2058.0,2857.0,4205.0,651.0,10.0,200.0,1.0,1.0,1260.9404,1.0,0.0,02_02_2015 level23_spatial_F+V 14_40 Block8-24.txt,37,37,1201,47.0,-20.0,2015-02-02,False,colocated,left
30,294.0501,0,730,2058.0,2857.0,4205.0,1001.0,10.0,200.0,1.0,0.0,295.0513,0.0,0.0,10_12_2014 level23_spatial_F+V 15_26 Block7-48.txt,37,37,1201,47.0,-20.0,2014-12-10,False,colocated,left
67,640.1839,0,730,2058.0,2857.0,4205.0,1001.0,10.0,200.0,1.0,0.0,641.3348,0.0,0.0,02_02_2015 level23_spatial_F+V 09_07 Block8-23.txt,37,37,1201,47.0,-20.0,2015-02-02,False,colocated,left
102,924.0647,0,730,2058.0,2857.0,4205.0,951.0,10.0,200.0,1.0,1.0,924.8663,1.0,0.0,30_09_2014 level23_spatial_F+V 10_53 Block6-93.txt,37,37,1201,47.0,-20.0,2014-09-30,False,colocated,left
25,305.399,0,730,2058.0,2857.0,4205.0,501.0,10.0,200.0,1.0,0.0,306.66,0.0,0.0,01_04_2015 level23_spatial_F+V 14_35 Block9-7.txt,37,37,1201,47.0,-20.0,2015-04-01,False,colocated,left
138,1651.2339,0,730,2058.0,2857.0,4205.0,551.0,10.0,200.0,1.0,0.0,1653.2896,0.0,0.0,12_08_2014 level23_spatial_F+V 10_04 Block6-61.txt,37,37,1201,47.0,-20.0,2014-08-12,False,colocated,left
37,355.8375,0,730,2058.0,2857.0,4205.0,501.0,10.0,200.0,1.0,0.0,357.3968,0.0,0.0,01_05_2015 level23_spatial_F+V 10_23 Block10-20.txt,37,37,1201,47.0,-20.0,2015-05-01,False,colocated,left
114,1074.9723,0,730,2058.0,2857.0,4205.0,601.0,10.0,200.0,1.0,1.0,1076.806,1.0,0.0,30_04_2015 level23_spatial_F+V 08_58 Block10-18.txt,37,37,1201,47.0,-20.0,2015-04-30,False,colocated,left
5,51.2379,0,730,2058.0,2857.0,4205.0,951.0,10.0,200.0,1.0,1.0,51.937,1.0,0.0,30_09_2014 level23_spatial_F+V 10_53 Block6-93.txt,37,37,1201,47.0,-20.0,2014-09-30,False,colocated,left
147,1416.4582,0,730,2058.0,2857.0,4205.0,601.0,10.0,200.0,1.0,0.0,1418.9224,0.0,0.0,30_04_2015 level23_spatial_F+V 08_58 Block10-18.txt,37,37,1201,47.0,-20.0,2015-04-30,False,colocated,left
83,994.5566,1,730,2058.0,2857.0,4205.0,651.0,10.0,200.0,1.0,1.0,999.1432,1.0,0.0,12_08_2014 level23_spatial_F+V 10_04 Block6-61.txt,37,37,1201,47.0,-20.0,2014-08-12,False,colocated,left
90,920.5744,1,730,2058.0,2857.0,4205.0,701.0,10.0,200.0,1.0,1.0,926.1331,1.0,0.0,21_05_2015 level23_spatial_F+V 10_00 Block10-51.txt,37,37,1201,47.0,-20.0,2015-05-21,False,colocated,left
62,764.5847,0,730,2058.0,2857.0,4205.0,551.0,10.0,200.0,1.0,1.0,767.8321,1.0,0.0,20_03_2015 level23_spatial_F+V 13_34 Block9-2.txt,37,37,1201,47.0,-20.0,2015-03-20,False,colocated,left
22,275.0003,0,730,2058.0,2857.0,4205.0,701.0,10.0,200.0,1.0,1.0,275.7247,1.0,0.0,12_08_2014 level23_spatial_F+V 10_04 Block6-61.txt,37,37,1201,47.0,-20.0,2014-08-12,False,colocated,left
34,343.886,0,730,2058.0,2857.0,4205.0,751.0,10.0,200.0,1.0,0.0,345.0524,0.0,0.0,01_04_2015 level23_spatial_F+V 09_24 Block9-8.txt,37,37,1201,47.0,-20.0,2015-04-01,False,colocated,left
109,1267.0293,0,730,2058.0,2857.0,4205.0,1001.0,10.0,200.0,1.0,0.0,1269.2739,0.0,0.0,12_08_2014 level23_spatial_F+V 10_04 Block6-61.txt,37,37,1201,47.0,-20.0,2014-08-12,False,colocated,left
8,138.4292,0,730,2058.0,2857.0,4205.0,551.0,10.0,200.0,1.0,1.0,139.8161,1.0,0.0,02_02_2015 level23_spatial_F+V 14_40 Block8-24.txt,37,37,1201,47.0,-20.0,2015-02-02,False,colocated,left
65,662.6985,0,730,2058.0,2857.0,4205.0,501.0,10.0,200.0,1.0,0.0,664.6872,0.0,0.0,01_05_2015 level23_spatial_F+V 10_23 Block10-20.txt,37,37,1201,47.0,-20.0,2015-05-01,False,colocated,left
39,460.8193,0,730,2058.0,2857.0,4205.0,651.0,10.0,200.0,1.0,0.0,462.1885,0.0,0.0,01_04_2015 level23_spatial_F+V 14_35 Block9-7.txt,37,37,1201,47.0,-20.0,2015-04-01,False,colocated,left
44,431.2893,0,730,2058.0,2857.0,4205.0,601.0,10.0,200.0,1.0,1.0,431.6351,1.0,0.0,20_03_2015 level23_spatial_F+V 08_27 Block9-1.txt,37,37,1201,47.0,-20.0,2015-03-20,False,colocated,left
88,722.9234,1,730,2058.0,2857.0,4205.0,1001.0,10.0,200.0,1.0,0.0,725.7507,0.0,0.0,27_11_2014 level23_spatial_F+V 10_50 Block7-31.txt,37,37,1201,47.0,-20.0,2014-11-27,False,colocated,left
111,1114.5446,0,730,2058.0,2857.0,4205.0,551.0,10.0,200.0,1.0,0.0,1115.7434,0.0,0.0,02_02_2015 level23_spatial_F+V 09_07 Block8-23.txt,37,37,1201,47.0,-20.0,2015-02-02,False,colocated,left
32,414.8061,0,730,2058.0,2857.0,4205.0,801.0,10.0,200.0,1.0,1.0,416.0153,1.0,0.0,12_08_2014 level23_spatial_F+V 10_04 Block6-61.txt,37,37,1201,47.0,-20.0,2014-08-12,False,colocated,left
56,602.4858,0,730,2058.0,2857.0,4205.0,501.0,10.0,200.0,1.0,1.0,603.8527,1.0,0.0,01_05_2015 level23_spatial_F+V 10_23 Block10-20.txt,37,37,1201,47.0,-20.0,2015-05-01,False,colocated,left
66,812.6665,0,730,2058.0,2857.0,4205.0,851.0,10.0,200.0,1.0,0.0,814.8541,0.0,0.0,20_03_2015 level23_spatial_F+V 13_34 Block9-2.txt,37,37,1201,47.0,-20.0,2015-03-20,False,colocated,left
114,1074.9723,0,730,2058.0,2857.0,4205.0,601.0,10.0,200.0,1.0,1.0,1076.806,1.0,0.0,30_04_2015 level23_spatial_F+V 08_58 Block10-18.txt,37,37,1201,47.0,-20.0,2015-04-30,False,colocated,left
66,812.6665,0,730,2058.0,2857.0,4205.0,851.0,10.0,200.0,1.0,0.0,814.8541,0.0,0.0,20_03_2015 level23_spatial_F+V 13_34 Block9-2.txt,37,37,1201,47.0,-20.0,2015-03-20,False,colocated,left
102,1020.3978,0,730,2058.0,2857.0,4205.0,951.0,10.0,200.0,1.0,0.0,1021.5958,0.0,0.0,02_02_2015 level23_spatial_F+V 09_07 Block8-23.txt,37,37,1201,47.0,-20.0,2015-02-02,False,colocated,left
53,595.6743,1,730,2058.0,2857.0,4205.0,1001.0,10.0,200.0,1.0,0.0,596.7499,0.0,0.0,01_04_2015 level23_spatial_F+V 14_35 Block9-7.txt,37,37,1201,47.0,-20.0,2015-04-01,False,colocated,left
35,441.2675,0,730,2058.0,2857.0,4205.0,551.0,10.0,200.0,1.0,0.0,442.7361,0.0,0.0,14_10_2014 level23_spatial_F+V 10_43 Block7-3.txt,37,37,1201,47.0,-20.0,2014-10-14,False,colocated,left
86,879.647,1,730,2058.0,2857.0,4205.0,651.0,10.0,200.0,1.0,0.0,883.6102,0.0,0.0,21_05_2015 level23_spatial_F+V 10_00 Block10-51.txt,37,37,1201,47.0,-20.0,2015-05-21,False,colocated,left
138,1651.2339,0,730,2058.0,2857.0,4205.0,551.0,10.0,200.0,1.0,0.0,1653.2896,0.0,0.0,12_08_2014 level23_spatial_F+V 10_04 Block6-61.txt,37,37,1201,47.0,-20.0,2014-08-12,False,colocated,left
100,1206.0944,0,730,2058.0,2857.0,4205.0,551.0,10.0,200.0,1.0,0.0,1208.4592,0.0,0.0,20_03_2015 level23_spatial_F+V 13_34 Block9-2.txt,37,37,1201,47.0,-20.0,2015-03-20,False,colocated,left
35,334.8848,0,730,2058.0,2857.0,4205.0,901.0,10.0,200.0,1.0,0.0,336.2658,0.0,0.0,02_02_2015 level23_spatial_F+V 09_07 Block8-23.txt,37,37,1201,47.0,-20.0,2015-02-02,False,colocated,left
69,730.9361,0,730,2058.0,2857.0,4205.0,901.0,10.0,200.0,1.0,0.0,731.8675,0.0,0.0,01_04_2015 level23_spatial_F+V 09_24 Block9-8.txt,37,37,1201,47.0,-20.0,2015-04-01,False,colocated,left
150,1388.5624,0,730,2058.0,2857.0,4205.0,951.0,10.0,200.0,1.0,0.0,1389.8319,0.0,0.0,09_01_2015 level23_spatial_F+V 09_25 Block7-70.txt,37,37,1201,47.0,-20.0,2015-01-09,False,colocated,left
111,1014.0197,0,730,2058.0,2857.0,4205.0,651.0,10.0,200.0,1.0,0.0,1015.5908,0.0,0.0,09_01_2015 level23_spatial_F+V 09_25 Block7-70.txt,37,37,1201,47.0,-20.0,2015-01-09,False,colocated,left
180,1989.0631,1,730,2058.0,2857.0,4205.0,901.0,10.0,200.0,1.0,1.0,1989.1161,1.0,0.0,22_05_2015 level23_spatial_F+V 10_27 Block10-54.txt,37,37,1201,47.0,-20.0,2015-05-22,False,colocated,left
111,1114.5446,0,730,2058.0,2857.0,4205.0,551.0,10.0,200.0,1.0,0.0,1115.7434,0.0,0.0,02_02_2015 level23_spatial_F+V 09_07 Block8-23.txt,37,37,1201,47.0,-20.0,2015-02-02,False,colocated,left
97,1921.4429,0,730,2058.0,2857.0,4205.0,901.0,10.0,200.0,1.0,0.0,1923.2796,0.0,0.0,02_02_2015 level23_spatial_F+V 14_40 Block8-24.txt,37,37,1201,47.0,-20.0,2015-02-02,False,colocated,left
6,53.466,0,730,2058.0,2857.0,4205.0,601.0,10.0,200.0,1.0,0.0,54.1755,0.0,0.0,30_04_2015 level23_spatial_F+V 08_58 Block10-18.txt,37,37,1201,47.0,-20.0,2015-04-30,False,colocated,left
17,165.1262,0,730,2058.0,2857.0,4205.0,501.0,10.0,200.0,1.0,1.0,166.3696,1.0,0.0,20_03_2015 level23_spatial_F+V 08_27 Block9-1.txt,37,37,1201,47.0,-20.0,2015-03-20,False,colocated,left
78,802.4701,0,730,2058.0,2857.0,4205.0,701.0,10.0,200.0,1.0,1.0,804.0517,1.0,0.0,21_05_2015 level23_spatial_F+V 10_00 Block10-51.txt,37,37,1201,47.0,-20.0,2015-05-21,False,colocated,left
109,1016.503,0,730,2058.0,2857.0,4205.0,951.0,10.0,200.0,1.0,0.0,1017.7492,0.0,0.0,30_04_2015 level23_spatial_F+V 08_58 Block10-18.txt,37,37,1201,47.0,-20.0,2015-04-30,False,colocated,left
77,857.3982,0,730,2058.0,2857.0,4205.0,851.0,10.0,200.0,1.0,0.0,858.7685,0.0,0.0,22_05_2015 level23_spatial_F+V 10_27 Block10-54.txt,37,37,1201,47.0,-20.0,2015-05-22,False,colocated,left
66,1258.9888,0,730,2058.0,2857.0,4205.0,651.0,10.0,200.0,1.0,1.0,1260.9404,1.0,0.0,02_02_2015 level23_spatial_F+V 14_40 Block8-24.txt,37,37,1201,47.0,-20.0,2015-02-02,False,colocated,left
90,920.5744,1,730,2058.0,2857.0,4205.0,701.0,10.0,200.0,1.0,1.0,926.1331,1.0,0.0,21_05_2015 level23_spatial_F+V 10_00 Block10-51.txt,37,37,1201,47.0,-20.0,2015-05-21,False,colocated,left
22,275.0003,0,730,2058.0,2857.0,4205.0,701.0,10.0,200.0,1.0,1.0,275.7247,1.0,0.0,12_08_2014 level23_spatial_F+V 10_04 Block6-61.txt,37,37,1201,47.0,-20.0,2014-08-12,False,colocated,left
66,1258.9888,0,730,2058.0,2857.0,4205.0,651.0,10.0,200.0,1.0,1.0,1260.9404,1.0,0.0,02_02_2015 level23_spatial_F+V 14_40 Block8-24.txt,37,37,1201,47.0,-20.0,2015-02-02,False,colocated,left
8,138.4292,0,730,2058.0,2857.0,4205.0,551.0,10.0,200.0,1.0,1.0,139.8161,1.0,0.0,02_02_2015 level23_spatial_F+V 14_40 Block8-24.txt,37,37,1201,47.0,-20.0,2015-02-02,False,colocated,left
15,187.7323,0,730,2058.0,2857.0,4205.0,1001.0,10.0,200.0,1.0,1.0,188.5577,1.0,0.0,09_12_2014 level23_spatial_F+V 15_44 Block7-45.txt,37,37,1201,47.0,-20.0,2014-12-09,False,colocated,left
18,243.8343,0,730,2058.0,2857.0,4205.0,851.0,10.0,200.0,1.0,0.0,245.3348,0.0,0.0,22_05_2015 level23_spatial_F+V 10_27 Block10-54.txt,37,37,1201,47.0,-20.0,2015-05-22,False,colocated,left
35,441.2675,0,730,2058.0,2857.0,4205.0,551.0,10.0,200.0,1.0,0.0,442.7361,0.0,0.0,14_10_2014 level23_spatial_F+V 10_43 Block7-3.txt,37,37,1201,47.0,-20.0,2014-10-14,False,colocated,left
69,869.5185,0,730,2058.0,2857.0,4205.0,801.0,10.0,200.0,1.0,0.0,870.4827,0.0,0.0,09_12_2014 level23_spatial_F+V 15_44 Block7-45.txt,37,37,1201,47.0,-20.0,2014-12-09,False,colocated,left
127,1379.6799,1,460,1105.0,2857.0,4205.0,801.0,10.0,200.0,0.0,1.0,1379.8138,0.0,1.0,22_05_2015 level23_spatial_F+V 10_27 Block10-54.txt,37,37,1201,47.0,-20.0,2015-05-22,False,colocated,right
23,225.6546,1,460,1105.0,2857.0,4205.0,701.0,10.0,200.0,0.0,0.0,226.3952,1.0,1.0,30_04_2015 level23_spatial_F+V 08_58 Block10-18.txt,37,37,1201,47.0,-20.0,2015-04-30,False,colocated,right
128,1299.7793,0,460,1105.0,2857.0,4205.0,901.0,10.0,200.0,0.0,0.0,1300.6353,1.0,1.0,20_03_2015 level23_spatial_F+V 08_27 Block9-1.txt,37,37,1201,47.0,-20.0,2015-03-20,False,colocated,right
128,1299.7793,0,460,1105.0,2857.0,4205.0,901.0,10.0,200.0,0.0,0.0,1300.6353,1.0,1.0,20_03_2015 level23_spatial_F+V 08_27 Block9-1.txt,37,37,1201,47.0,-20.0,2015-03-20,False,colocated,right
74,789.311,0,460,1105.0,2857.0,4205.0,951.0,10.0,200.0,0.0,0.0,790.8603,1.0,1.0,01_04_2015 level23_spatial_F+V 09_24 Block9-8.txt,37,37,1201,47.0,-20.0,2015-04-01,False,colocated,right
27,302.9494,0,460,1105.0,2857.0,4205.0,751.0,10.0,200.0,0.0,0.0,304.2841,1.0,1.0,21_05_2015 level23_spatial_F+V 10_00 Block10-51.txt,37,37,1201,47.0,-20.0,2015-05-21,False,colocated,right
43,505.5328,0,460,1105.0,2857.0,4205.0,701.0,10.0,200.0,0.0,0.0,506.5977,1.0,1.0,01_04_2015 level23_spatial_F+V 14_35 Block9-7.txt,37,37,1201,47.0,-20.0,2015-04-01,False,colocated,right
166,1832.7219,0,460,1105.0,2857.0,4205.0,751.0,10.0,200.0,0.0,0.0,1834.6494,1.0,1.0,22_05_2015 level23_spatial_F+V 10_27 Block10-54.txt,37,37,1201,47.0,-20.0,2015-05-22,False,colocated,right
1,5.4487,0,460,1105.0,2857.0,4205.0,701.0,10.0,200.0,0.0,0.0,11.5967,1.0,1.0,30_10_2014 level23_spatial_F+V 09_02 Block7-17.txt,37,37,1201,47.0,-20.0,2014-10-30,False,colocated,right
65,629.0611,0,460,1105.0,2857.0,4205.0,601.0,10.0,200.0,0.0,0.0,630.6737,1.0,1.0,10_12_2014 level23_spatial_F+V 15_26 Block7-48.txt,37,37,1201,47.0,-20.0,2014-12-10,False,colocated,right
30,296.5465,1,460,1105.0,2857.0,4205.0,701.0,10.0,200.0,0.0,0.0,297.5236,1.0,1.0,30_04_2015 level23_spatial_F+V 08_58 Block10-18.txt,37,37,1201,47.0,-20.0,2015-04-30,False,colocated,right
82,1023.4907,0,460,1105.0,2857.0,4205.0,501.0,10.0,200.0,0.0,0.0,1026.3568,1.0,1.0,20_03_2015 level23_spatial_F+V 13_34 Block9-2.txt,37,37,1201,47.0,-20.0,2015-03-20,False,colocated,right
121,1120.8969,0,460,1105.0,2857.0,4205.0,601.0,10.0,200.0,0.0,0.0,1122.5281,1.0,1.0,09_01_2015 level23_spatial_F+V 09_25 Block7-70.txt,37,37,1201,47.0,-20.0,2015-01-09,False,colocated,right
92,1777.991,0,460,1105.0,2857.0,4205.0,751.0,10.0,200.0,0.0,0.0,1780.9164,1.0,1.0,02_02_2015 level23_spatial_F+V 14_40 Block8-24.txt,37,37,1201,47.0,-20.0,2015-02-02,False,colocated,right
98,990.9257,0,460,1105.0,2857.0,4205.0,701.0,10.0,200.0,0.0,0.0,991.6762,1.0,1.0,02_02_2015 level23_spatial_F+V 09_07 Block8-23.txt,37,37,1201,47.0,-20.0,2015-02-02,False,colocated,right
82,1023.4907,0,460,1105.0,2857.0,4205.0,501.0,10.0,200.0,0.0,0.0,1026.3568,1.0,1.0,20_03_2015 level23_spatial_F+V 13_34 Block9-2.txt,37,37,1201,47.0,-20.0,2015-03-20,False,colocated,right
59,503.1294,0,460,1105.0,2857.0,4205.0,751.0,10.0,200.0,0.0,0.0,504.5545,1.0,1.0,12_01_2015 level23_spatial_F+V 09_32 Block7-74.txt,37,37,1201,47.0,-20.0,2015-01-12,False,colocated,right
1,7.4907,1,460,1105.0,2857.0,4205.0,801.0,10.0,200.0,0.0,0.0,8.4258,1.0,1.0,01_04_2015 level23_spatial_F+V 09_24 Block9-8.txt,37,37,1201,47.0,-20.0,2015-04-01,False,colocated,right
197,2220.8483,0,460,1105.0,2857.0,4205.0,951.0,10.0,200.0,0.0,0.0,2221.5647,1.0,1.0,22_05_2015 level23_spatial_F+V 10_27 Block10-54.txt,37,37,1201,47.0,-20.0,2015-05-22,False,colocated,right
17,238.3827,0,460,1105.0,2857.0,4205.0,601.0,10.0,200.0,0.0,0.0,239.5279,1.0,1.0,22_05_2015 level23_spatial_F+V 10_27 Block10-54.txt,37,37,1201,47.0,-20.0,2015-05-22,False,colocated,right
57,674.3943,0,460,1105.0,2857.0,4205.0,1001.0,10.0,200.0,0.0,1.0,675.5537,0.0,1.0,30_10_2014 level23_spatial_F+V 09_02 Block7-17.txt,37,37,1201,47.0,-20.0,2014-10-30,False,colocated,right
47,602.8259,0,460,1105.0,2857.0,4205.0,801.0,10.0,200.0,0.0,1.0,603.609,0.0,1.0,12_08_2014 level23_spatial_F+V 10_04 Block6-61.txt,37,37,1201,47.0,-20.0,2014-08-12,False,colocated,right
22,293.8556,0,460,1105.0,2857.0,4205.0,751.0,10.0,200.0,0.0,0.0,295.2747,1.0,1.0,09_12_2014 level23_spatial_F+V 15_44 Block7-45.txt,37,37,1201,47.0,-20.0,2014-12-09,False,colocated,right
66,555.061,0,460,1105.0,2857.0,4205.0,551.0,10.0,200.0,0.0,0.0,556.6808,1.0,1.0,27_11_2014 level23_spatial_F+V 10_50 Block7-31.txt,37,37,1201,47.0,-20.0,2014-11-27,False,colocated,right
4,51.1955,0,460,1105.0,2857.0,4205.0,851.0,10.0,200.0,0.0,0.0,52.1487,1.0,1.0,01_04_2015 level23_spatial_F+V 14_35 Block9-7.txt,37,37,1201,47.0,-20.0,2015-04-01,False,colocated,right
166,1832.7219,0,460,1105.0,2857.0,4205.0,751.0,10.0,200.0,0.0,0.0,1834.6494,1.0,1.0,22_05_2015 level23_spatial_F+V 10_27 Block10-54.txt,37,37,1201,47.0,-20.0,2015-05-22,False,colocated,right
40,353.5468,0,460,1105.0,2857.0,4205.0,501.0,10.0,200.0,0.0,0.0,355.3546,1.0,1.0,30_09_2014 level23_spatial_F+V 10_53 Block6-93.txt,37,37,1201,47.0,-20.0,2014-09-30,False,colocated,right
47,448.3925,0,460,1105.0,2857.0,4205.0,651.0,10.0,200.0,0.0,0.0,449.2855,1.0,1.0,02_02_2015 level23_spatial_F+V 09_07 Block8-23.txt,37,37,1201,47.0,-20.0,2015-02-02,False,colocated,right
105,853.7036,0,460,1105.0,2857.0,4205.0,501.0,10.0,200.0,0.0,0.0,855.8487,1.0,1.0,27_11_2014 level23_spatial_F+V 10_50 Block7-31.txt,37,37,1201,47.0,-20.0,2014-11-27,False,colocated,right
121,1143.8374,0,460,1105.0,2857.0,4205.0,701.0,10.0,200.0,0.0,0.0,1145.0167,1.0,1.0,30_04_2015 level23_spatial_F+V 08_58 Block10-18.txt,37,37,1201,47.0,-20.0,2015-04-30,False,colocated,right
40,363.5637,0,460,1105.0,2857.0,4205.0,851.0,10.0,200.0,0.0,0.0,364.6277,1.0,1.0,09_01_2015 level23_spatial_F+V 09_25 Block7-70.txt,37,37,1201,47.0,-20.0,2015-01-09,False,colocated,right
15,147.6339,0,460,1105.0,2857.0,4205.0,651.0,10.0,200.0,0.0,1.0,149.5526,0.0,1.0,30_09_2014 level23_spatial_F+V 10_53 Block6-93.txt,37,37,1201,47.0,-20.0,2014-09-30,False,colocated,right
7,60.9328,0,460,1105.0,2857.0,4205.0,751.0,10.0,200.0,0.0,0.0,62.4906,1.0,1.0,27_11_2014 level23_spatial_F+V 10_50 Block7-31.txt,37,37,1201,47.0,-20.0,2014-11-27,False,colocated,right
21,408.1181,0,460,1105.0,2857.0,4205.0,901.0,10.0,200.0,0.0,0.0,409.1349,1.0,1.0,02_02_2015 level23_spatial_F+V 14_40 Block8-24.txt,37,37,1201,47.0,-20.0,2015-02-02,False,colocated,right
40,353.5468,0,460,1105.0,2857.0,4205.0,501.0,10.0,200.0,0.0,0.0,355.3546,1.0,1.0,30_09_2014 level23_spatial_F+V 10_53 Block6-93.txt,37,37,1201,47.0,-20.0,2014-09-30,False,colocated,right
7,57.6618,0,460,1105.0,2857.0,4205.0,501.0,10.0,200.0,0.0,1.0,59.8936,0.0,1.0,20_03_2015 level23_spatial_F+V 08_27 Block9-1.txt,37,37,1201,47.0,-20.0,2015-03-20,False,colocated,right
59,732.3848,0,460,1105.0,2857.0,4205.0,601.0,10.0,200.0,0.0,0.0,734.2439,1.0,1.0,20_03_2015 level23_spatial_F+V 13_34 Block9-2.txt,37,37,1201,47.0,-20.0,2015-03-20,False,colocated,right
9,104.6416,0,460,1105.0,2857.0,4205.0,901.0,10.0,200.0,0.0,0.0,106.2883,1.0,1.0,30_10_2014 level23_spatial_F+V 09_02 Block7-17.txt,37,37,1201,47.0,-20.0,2014-10-30,False,colocated,right
94,1161.5825,0,460,1105.0,2857.0,4205.0,501.0,10.0,200.0,0.0,0.0,1163.846,1.0,1.0,30_10_2014 level23_spatial_F+V 09_02 Block7-17.txt,37,37,1201,47.0,-20.0,2014-10-30,False,colocated,right
17,238.3827,0,460,1105.0,2857.0,4205.0,601.0,10.0,200.0,0.0,0.0,239.5279,1.0,1.0,22_05_2015 level23_spatial_F+V 10_27 Block10-54.txt,37,37,1201,47.0,-20.0,2015-05-22,False,colocated,right
10,178.0871,0,460,1105.0,2857.0,4205.0,651.0,10.0,200.0,0.0,1.0,178.9866,0.0,1.0,22_05_2015 level23_spatial_F+V 10_27 Block10-54.txt,37,37,1201,47.0,-20.0,2015-05-22,False,colocated,right
66,657.613,0,460,1105.0,2857.0,4205.0,551.0,10.0,200.0,0.0,0.0,659.1654,1.0,1.0,30_04_2015 level23_spatial_F+V 08_58 Block10-18.txt,37,37,1201,47.0,-20.0,2015-04-30,False,colocated,right
27,302.9494,0,460,1105.0,2857.0,4205.0,751.0,10.0,200.0,0.0,0.0,304.2841,1.0,1.0,21_05_2015 level23_spatial_F+V 10_00 Block10-51.txt,37,37,1201,47.0,-20.0,2015-05-21,False,colocated,right
55,494.7993,0,460,1105.0,2857.0,4205.0,951.0,10.0,200.0,0.0,0.0,495.7848,1.0,1.0,09_01_2015 level23_spatial_F+V 09_25 Block7-70.txt,37,37,1201,47.0,-20.0,2015-01-09,False,colocated,right
55,649.5781,0,460,1105.0,2857.0,4205.0,901.0,10.0,200.0,0.0,1.0,650.8138,0.0,1.0,30_10_2014 level23_spatial_F+V 09_02 Block7-17.txt,37,37,1201,47.0,-20.0,2014-10-30,False,colocated,right
82,1023.4907,0,460,1105.0,2857.0,4205.0,501.0,10.0,200.0,0.0,0.0,1026.3568,1.0,1.0,20_03_2015 level23_spatial_F+V 13_34 Block9-2.txt,37,37,1201,47.0,-20.0,2015-03-20,False,colocated,right
85,1066.9399,0,460,1105.0,2857.0,4205.0,951.0,10.0,200.0,0.0,0.0,1068.8171,1.0,1.0,20_03_2015 level23_spatial_F+V 13_34 Block9-2.txt,37,37,1201,47.0,-20.0,2015-03-20,False,colocated,right
1,10.6156,0,460,1105.0,2857.0,4205.0,901.0,10.0,200.0,0.0,0.0,11.7564,1.0,1.0,30_04_2015 level23_spatial_F+V 08_58 Block10-18.txt,37,37,1201,47.0,-20.0,2015-04-30,False,colocated,right
123,1439.242,0,460,1105.0,2857.0,4205.0,701.0,10.0,200.0,0.0,1.0,1440.3066,0.0,1.0,12_08_2014 level23_spatial_F+V 10_04 Block6-61.txt,37,37,1201,47.0,-20.0,2014-08-12,False,colocated,right
79,1459.6643,0,460,1105.0,2857.0,4205.0,651.0,10.0,200.0,0.0,0.0,1461.1572,1.0,1.0,02_02_2015 level23_spatial_F+V 14_40 Block8-24.txt,37,37,1201,47.0,-20.0,2015-02-02,False,colocated,right
43,505.5328,0,460,1105.0,2857.0,4205.0,701.0,10.0,200.0,0.0,0.0,506.5977,1.0,1.0,01_04_2015 level23_spatial_F+V 14_35 Block9-7.txt,37,37,1201,47.0,-20.0,2015-04-01,False,colocated,right
166,1832.7219,0,460,1105.0,2857.0,4205.0,751.0,10.0,200.0,0.0,0.0,1834.6494,1.0,1.0,22_05_2015 level23_spatial_F+V 10_27 Block10-54.txt,37,37,1201,47.0,-20.0,2015-05-22,False,colocated,right
74,698.1258,1,460,1105.0,2857.0,4205.0,901.0,10.0,200.0,0.0,0.0,699.1576,1.0,1.0,02_02_2015 level23_spatial_F+V 09_07 Block8-23.txt,37,37,1201,47.0,-20.0,2015-02-02,False,colocated,right
1,7.4907,1,460,1105.0,2857.0,4205.0,801.0,10.0,200.0,0.0,0.0,8.4258,1.0,1.0,01_04_2015 level23_spatial_F+V 09_24 Block9-8.txt,37,37,1201,47.0,-20.0,2015-04-01,False,colocated,right
99,903.9002,0,460,1105.0,2857.0,4205.0,501.0,10.0,200.0,0.0,0.0,905.3676,1.0,1.0,09_01_2015 level23_spatial_F+V 09_25 Block7-70.txt,37,37,1201,47.0,-20.0,2015-01-09,False,colocated,right
22,293.8556,0,460,1105.0,2857.0,4205.0,751.0,10.0,200.0,0.0,0.0,295.2747,1.0,1.0,09_12_2014 level23_spatial_F+V 15_44 Block7-45.txt,37,37,1201,47.0,-20.0,2014-12-09,False,colocated,right
146,1567.106,0,460,1105.0,2857.0,4205.0,501.0,10.0,200.0,0.0,1.0,1571.7356,0.0,1.0,01_05_2015 level23_spatial_F+V 10_23 Block10-20.txt,37,37,1201,47.0,-20.0,2015-05-01,False,colocated,right
97,1179.3157,0,460,1105.0,2857.0,4205.0,1001.0,10.0,200.0,0.0,0.0,1180.4082,1.0,1.0,20_03_2015 level23_spatial_F+V 13_34 Block9-2.txt,37,37,1201,47.0,-20.0,2015-03-20,False,colocated,right
27,240.4105,0,460,1105.0,2857.0,4205.0,851.0,10.0,200.0,0.0,0.0,241.9703,1.0,1.0,27_11_2014 level23_spatial_F+V 10_50 Block7-31.txt,37,37,1201,47.0,-20.0,2014-11-27,False,colocated,right
55,494.7993,0,460,1105.0,2857.0,4205.0,951.0,10.0,200.0,0.0,0.0,495.7848,1.0,1.0,09_01_2015 level23_spatial_F+V 09_25 Block7-70.txt,37,37,1201,47.0,-20.0,2015-01-09,False,colocated,right
59,503.1294,0,460,1105.0,2857.0,4205.0,751.0,10.0,200.0,0.0,0.0,504.5545,1.0,1.0,12_01_2015 level23_spatial_F+V 09_32 Block7-74.txt,37,37,1201,47.0,-20.0,2015-01-12,False,colocated,right
17,138.6332,0,460,1105.0,2857.0,4205.0,501.0,10.0,200.0,0.0,0.0,139.5069,1.0,1.0,01_05_2015 level23_spatial_F+V 10_23 Block10-20.txt,37,37,1201,47.0,-20.0,2015-05-01,False,colocated,right
73,696.2052,0,460,1105.0,2857.0,4205.0,1001.0,10.0,200.0,0.0,0.0,697.4752,1.0,1.0,10_12_2014 level23_spatial_F+V 15_26 Block7-48.txt,37,37,1201,47.0,-20.0,2014-12-10,False,colocated,right
118,1123.7951,0,460,1105.0,2857.0,4205.0,551.0,10.0,200.0,0.0,0.0,1125.2766,1.0,1.0,30_04_2015 level23_spatial_F+V 08_58 Block10-18.txt,37,37,1201,47.0,-20.0,2015-04-30,False,colocated,right
51,450.1397,1,460,1105.0,2857.0,4205.0,601.0,10.0,200.0,0.0,0.0,453.6282,1.0,1.0,30_09_2014 level23_spatial_F+V 10_53 Block6-93.txt,37,37,1201,47.0,-20.0,2014-09-30,False,colocated,right
21,210.4933,0,460,1105.0,2857.0,4205.0,801.0,10.0,200.0,0.0,1.0,212.7545,0.0,1.0,02_02_2015 level23_spatial_F+V 09_07 Block8-23.txt,37,37,1201,47.0,-20.0,2015-02-02,False,colocated,right
28,283.283,0,460,1105.0,2857.0,4205.0,801.0,10.0,200.0,0.0,0.0,284.4906,1.0,1.0,10_12_2014 level23_spatial_F+V 15_26 Block7-48.txt,37,37,1201,47.0,-20.0,2014-12-10,False,colocated,right
65,629.0611,0,460,1105.0,2857.0,4205.0,601.0,10.0,200.0,0.0,0.0,630.6737,1.0,1.0,10_12_2014 level23_spatial_F+V 15_26 Block7-48.txt,37,37,1201,47.0,-20.0,2014-12-10,False,colocated,right
17,238.3827,0,460,1105.0,2857.0,4205.0,601.0,10.0,200.0,0.0,0.0,239.5279,1.0,1.0,22_05_2015 level23_spatial_F+V 10_27 Block10-54.txt,37,37,1201,47.0,-20.0,2015-05-22,False,colocated,right
5,57.316,0,460,1105.0,2857.0,4205.0,651.0,10.0,200.0,0.0,0.0,58.7275,1.0,1.0,09_12_2014 level23_spatial_F+V 15_44 Block7-45.txt,37,37,1201,47.0,-20.0,2014-12-09,False,colocated,right
73,696.2052,0,460,1105.0,2857.0,4205.0,1001.0,10.0,200.0,0.0,0.0,697.4752,1.0,1.0,10_12_2014 level23_spatial_F+V 15_26 Block7-48.txt,37,37,1201,47.0,-20.0,2014-12-10,False,colocated,right
17,632.3911,1,460,1105.0,2857.0,4205.0,601.0,10.0,200.0,0.0,-1.0,-1.0,0.0,1.0,11_08_2014 level23_spatial_F+V 09_23 Block6-60.txt,37,37,1201,47.0,-20.0,2014-08-11,False,colocated,right
94,1161.5825,0,460,1105.0,2857.0,4205.0,501.0,10.0,200.0,0.0,0.0,1163.846,1.0,1.0,30_10_2014 level23_spatial_F+V 09_02 Block7-17.txt,37,37,1201,47.0,-20.0,2014-10-30,False,colocated,right
59,518.9275,0,460,1105.0,2857.0,4205.0,1001.0,10.0,200.0,0.0,0.0,519.9891,1.0,1.0,09_01_2015 level23_spatial_F+V 09_25 Block7-70.txt,37,37,1201,47.0,-20.0,2015-01-09,False,colocated,right
7,60.9328,0,460,1105.0,2857.0,4205.0,751.0,10.0,200.0,0.0,0.0,62.4906,1.0,1.0,27_11_2014 level23_spatial_F+V 10_50 Block7-31.txt,37,37,1201,47.0,-20.0,2014-11-27,False,colocated,right
21,210.4933,0,460,1105.0,2857.0,4205.0,801.0,10.0,200.0,0.0,1.0,212.7545,0.0,1.0,02_02_2015 level23_spatial_F+V 09_07 Block8-23.txt,37,37,1201,47.0,-20.0,2015-02-02,False,colocated,right
72,909.282,0,460,1105.0,2857.0,4205.0,1001.0,10.0,200.0,0.0,0.0,910.8834,1.0,1.0,09_12_2014 level23_spatial_F+V 15_44 Block7-45.txt,37,37,1201,47.0,-20.0,2014-12-09,False,colocated,right
74,621.525,0,460,1105.0,2857.0,4205.0,751.0,10.0,200.0,0.0,0.0,622.5962,1.0,1.0,12_01_2015 level23_spatial_F+V 09_32 Block7-74.txt,37,37,1201,47.0,-20.0,2015-01-12,False,colocated,right
84,840.631,0,460,1105.0,2857.0,4205.0,751.0,10.0,200.0,0.0,0.0,841.5509,1.0,1.0,30_04_2015 level23_spatial_F+V 08_58 Block10-18.txt,37,37,1201,47.0,-20.0,2015-04-30,False,colocated,right
3,25.1523,0,460,1105.0,2857.0,4205.0,751.0,10.0,200.0,0.0,0.0,28.0218,1.0,1.0,10_12_2014 level23_spatial_F+V 15_26 Block7-48.txt,37,37,1201,47.0,-20.0,2014-12-10,False,colocated,right
17,238.3827,0,460,1105.0,2857.0,4205.0,601.0,10.0,200.0,0.0,0.0,239.5279,1.0,1.0,22_05_2015 level23_spatial_F+V 10_27 Block10-54.txt,37,37,1201,47.0,-20.0,2015-05-22,False,colocated,right
1,5.4487,0,460,1105.0,2857.0,4205.0,701.0,10.0,200.0,0.0,0.0,11.5967,1.0,1.0,30_10_2014 level23_spatial_F+V 09_02 Block7-17.txt,37,37,1201,47.0,-20.0,2014-10-30,False,colocated,right
55,494.7993,0,460,1105.0,2857.0,4205.0,951.0,10.0,200.0,0.0,0.0,495.7848,1.0,1.0,09_01_2015 level23_spatial_F+V 09_25 Block7-70.txt,37,37,1201,47.0,-20.0,2015-01-09,False,colocated,right
59,503.1294,0,460,1105.0,2857.0,4205.0,751.0,10.0,200.0,0.0,0.0,504.5545,1.0,1.0,12_01_2015 level23_spatial_F+V 09_32 Block7-74.txt,37,37,1201,47.0,-20.0,2015-01-12,False,colocated,right
3,21.9663,0,460,1105.0,2857.0,4205.0,501.0,10.0,200.0,0.0,0.0,23.3625,1.0,1.0,14_10_2014 level23_spatial_F+V 10_43 Block7-3.txt,37,37,1201,47.0,-20.0,2014-10-14,False,colocated,right
28,283.283,0,460,1105.0,2857.0,4205.0,801.0,10.0,200.0,0.0,0.0,284.4906,1.0,1.0,10_12_2014 level23_spatial_F+V 15_26 Block7-48.txt,37,37,1201,47.0,-20.0,2014-12-10,False,colocated,right
17,138.6332,0,460,1105.0,2857.0,4205.0,501.0,10.0,200.0,0.0,0.0,139.5069,1.0,1.0,01_05_2015 level23_spatial_F+V 10_23 Block10-20.txt,37,37,1201,47.0,-20.0,2015-05-01,False,colocated,right
17,138.6332,0,460,1105.0,2857.0,4205.0,501.0,10.0,200.0,0.0,0.0,139.5069,1.0,1.0,01_05_2015 level23_spatial_F+V 10_23 Block10-20.txt,37,37,1201,47.0,-20.0,2015-05-01,False,colocated,right
39,516.1795,0,460,1105.0,2857.0,4205.0,901.0,10.0,200.0,0.0,0.0,517.3737,1.0,1.0,12_08_2014 level23_spatial_F+V 10_04 Block6-61.txt,37,37,1201,47.0,-20.0,2014-08-12,False,colocated,right
1,5.4487,0,460,1105.0,2857.0,4205.0,701.0,10.0,200.0,0.0,0.0,11.5967,1.0,1.0,30_10_2014 level23_spatial_F+V 09_02 Block7-17.txt,37,37,1201,47.0,-20.0,2014-10-30,False,colocated,right
49,434.675,0,460,1105.0,2857.0,4205.0,801.0,10.0,200.0,0.0,0.0,436.0758,1.0,1.0,12_01_2015 level23_spatial_F+V 09_32 Block7-74.txt,37,37,1201,47.0,-20.0,2015-01-12,False,colocated,right
82,1023.4907,0,460,1105.0,2857.0,4205.0,501.0,10.0,200.0,0.0,0.0,1026.3568,1.0,1.0,20_03_2015 level23_spatial_F+V 13_34 Block9-2.txt,37,37,1201,47.0,-20.0,2015-03-20,False,colocated,right
38,418.9638,0,460,1105.0,2857.0,4205.0,851.0,10.0,200.0,0.0,1.0,420.6815,0.0,1.0,21_05_2015 level23_spatial_F+V 10_00 Block10-51.txt,37,37,1201,47.0,-20.0,2015-05-21,False,colocated,right
9,104.6416,0,460,1105.0,2857.0,4205.0,901.0,10.0,200.0,0.0,0.0,106.2883,1.0,1.0,30_10_2014 level23_spatial_F+V 09_02 Block7-17.txt,37,37,1201,47.0,-20.0,2014-10-30,False,colocated,right
59,732.3848,0,460,1105.0,2857.0,4205.0,601.0,10.0,200.0,0.0,0.0,734.2439,1.0,1.0,20_03_2015 level23_spatial_F+V 13_34 Block9-2.txt,37,37,1201,47.0,-20.0,2015-03-20,False,colocated,right
53,1028.5511,0,460,1105.0,2857.0,4205.0,951.0,10.0,200.0,0.0,1.0,1029.3359,0.0,1.0,02_02_2015 level23_spatial_F+V 14_40 Block8-24.txt,37,37,1201,47.0,-20.0,2015-02-02,False,colocated,right
94,1161.5825,0,460,1105.0,2857.0,4205.0,501.0,10.0,200.0,0.0,0.0,1163.846,1.0,1.0,30_10_2014 level23_spatial_F+V 09_02 Block7-17.txt,37,37,1201,47.0,-20.0,2014-10-30,False,colocated,right
40,502.043,1,460,1105.0,2857.0,4205.0,501.0,10.0,200.0,0.0,0.0,505.6409,1.0,1.0,09_12_2014 level23_spatial_F+V 15_44 Block7-45.txt,37,37,1201,47.0,-20.0,2014-12-09,False,colocated,right
105,853.7036,0,460,1105.0,2857.0,4205.0,501.0,10.0,200.0,0.0,0.0,855.8487,1.0,1.0,27_11_2014 level23_spatial_F+V 10_50 Block7-31.txt,37,37,1201,47.0,-20.0,2014-11-27,False,colocated,right
43,505.5328,0,460,1105.0,2857.0,4205.0,701.0,10.0,200.0,0.0,0.0,506.5977,1.0,1.0,01_04_2015 level23_spatial_F+V 14_35 Block9-7.txt,37,37,1201,47.0,-20.0,2015-04-01,False,colocated,right
66,657.613,0,460,1105.0,2857.0,4205.0,551.0,10.0,200.0,0.0,0.0,659.1654,1.0,1.0,30_04_2015 level23_spatial_F+V 08_58 Block10-18.txt,37,37,1201,47.0,-20.0,2015-04-30,False,colocated,right
55,649.5781,0,460,1105.0,2857.0,4205.0,901.0,10.0,200.0,0.0,1.0,650.8138,0.0,1.0,30_10_2014 level23_spatial_F+V 09_02 Block7-17.txt,37,37,1201,47.0,-20.0,2014-10-30,False,colocated,right
98,990.9257,0,460,1105.0,2857.0,4205.0,701.0,10.0,200.0,0.0,0.0,991.6762,1.0,1.0,02_02_2015 level23_spatial_F+V 09_07 Block8-23.txt,37,37,1201,47.0,-20.0,2015-02-02,False,colocated,right
10,178.0871,0,460,1105.0,2857.0,4205.0,651.0,10.0,200.0,0.0,1.0,178.9866,0.0,1.0,22_05_2015 level23_spatial_F+V 10_27 Block10-54.txt,37,37,1201,47.0,-20.0,2015-05-22,False,colocated,right
86,707.9413,0,460,1105.0,2857.0,4205.0,501.0,10.0,200.0,0.0,0.0,709.9434,1.0,1.0,27_11_2014 level23_spatial_F+V 10_50 Block7-31.txt,37,37,1201,47.0,-20.0,2014-11-27,False,colocated,right
97,1179.3157,0,460,1105.0,2857.0,4205.0,1001.0,10.0,200.0,0.0,0.0,1180.4082,1.0,1.0,20_03_2015 level23_spatial_F+V 13_34 Block9-2.txt,37,37,1201,47.0,-20.0,2015-03-20,False,colocated,right
76,851.5709,0,460,1105.0,2857.0,4205.0,751.0,10.0,200.0,0.0,0.0,852.767,1.0,1.0,22_05_2015 level23_spatial_F+V 10_27 Block10-54.txt,37,37,1201,47.0,-20.0,2015-05-22,False,colocated,right
15,147.6339,0,460,1105.0,2857.0,4205.0,651.0,10.0,200.0,0.0,1.0,149.5526,0.0,1.0,30_09_2014 level23_spatial_F+V 10_53 Block6-93.txt,37,37,1201,47.0,-20.0,2014-09-30,False,colocated,right
16,160.2591,0,460,1105.0,2857.0,4205.0,651.0,10.0,200.0,0.0,0.0,160.645,1.0,1.0,20_03_2015 level23_spatial_F+V 08_27 Block9-1.txt,37,37,1201,47.0,-20.0,2015-03-20,False,colocated,right
103,842.0762,0,460,1105.0,2857.0,4205.0,651.0,10.0,200.0,0.0,0.0,843.1935,1.0,1.0,27_11_2014 level23_spatial_F+V 10_50 Block7-31.txt,37,37,1201,47.0,-20.0,2014-11-27,False,colocated,right
1,5.4487,0,460,1105.0,2857.0,4205.0,701.0,10.0,200.0,0.0,0.0,11.5967,1.0,1.0,30_10_2014 level23_spatial_F+V 09_02 Block7-17.txt,37,37,1201,47.0,-20.0,2014-10-30,False,colocated,right
71,886.6747,0,460,1105.0,2857.0,4205.0,951.0,10.0,200.0,0.0,0.0,888.0679,1.0,1.0,12_08_2014 level23_spatial_F+V 10_04 Block6-61.txt,37,37,1201,47.0,-20.0,2014-08-12,False,colocated,right
28,262.7509,0,460,1105.0,2857.0,4205.0,701.0,10.0,200.0,0.0,0.0,263.5931,1.0,1.0,20_03_2015 level23_spatial_F+V 08_27 Block9-1.txt,37,37,1201,47.0,-20.0,2015-03-20,False,colocated,right
85,1066.9399,0,460,1105.0,2857.0,4205.0,951.0,10.0,200.0,0.0,0.0,1068.8171,1.0,1.0,20_03_2015 level23_spatial_F+V 13_34 Block9-2.txt,37,37,1201,47.0,-20.0,2015-03-20,False,colocated,right
121,1143.8374,0,460,1105.0,2857.0,4205.0,701.0,10.0,200.0,0.0,0.0,1145.0167,1.0,1.0,30_04_2015 level23_spatial_F+V 08_58 Block10-18.txt,37,37,1201,47.0,-20.0,2015-04-30,False,colocated,right
103,2062.9696,0,460,1105.0,2857.0,4205.0,701.0,10.0,200.0,0.0,0.0,2064.034,1.0,1.0,02_02_2015 level23_spatial_F+V 14_40 Block8-24.txt,37,37,1201,47.0,-20.0,2015-02-02,False,colocated,right
116,1344.7679,0,460,1105.0,2857.0,4205.0,1001.0,10.0,200.0,0.0,1.0,1346.4979,0.0,1.0,12_08_2014 level23_spatial_F+V 10_04 Block6-61.txt,37,37,1201,47.0,-20.0,2014-08-12,False,colocated,right
37,450.7207,0,730,2058.0,2857.0,4205.0,701.0,10.0,200.0,1.0,1.0,452.5234,1.0,1.0,09_12_2014 level23_spatial_F+V 15_44 Block7-45.txt,37,37,1201,47.0,-20.0,2014-12-09,False,colocated,right
43,556.2999,0,730,2058.0,2857.0,4205.0,851.0,10.0,200.0,1.0,1.0,557.1111,1.0,1.0,12_08_2014 level23_spatial_F+V 10_04 Block6-61.txt,37,37,1201,47.0,-20.0,2014-08-12,False,colocated,right
4,36.5671,0,730,2058.0,2857.0,4205.0,951.0,10.0,200.0,1.0,0.0,37.9988,0.0,1.0,20_03_2015 level23_spatial_F+V 08_27 Block9-1.txt,37,37,1201,47.0,-20.0,2015-03-20,False,colocated,right
87,1028.5976,0,730,2058.0,2857.0,4205.0,601.0,10.0,200.0,1.0,0.0,1030.6503,0.0,1.0,12_08_2014 level23_spatial_F+V 10_04 Block6-61.txt,37,37,1201,47.0,-20.0,2014-08-12,False,colocated,right
89,918.4664,1,730,2058.0,2857.0,4205.0,651.0,10.0,200.0,1.0,0.0,920.5604,0.0,1.0,02_02_2015 level23_spatial_F+V 09_07 Block8-23.txt,37,37,1201,47.0,-20.0,2015-02-02,False,colocated,right
148,1620.0404,0,730,2058.0,2857.0,4205.0,751.0,10.0,200.0,1.0,0.0,1620.9148,0.0,1.0,22_05_2015 level23_spatial_F+V 10_27 Block10-54.txt,37,37,1201,47.0,-20.0,2015-05-22,False,colocated,right
76,715.7145,0,730,2058.0,2857.0,4205.0,801.0,10.0,200.0,1.0,0.0,716.8546,0.0,1.0,10_12_2014 level23_spatial_F+V 15_26 Block7-48.txt,37,37,1201,47.0,-20.0,2014-12-10,False,colocated,right
90,1104.3632,0,730,2058.0,2857.0,4205.0,601.0,10.0,200.0,1.0,1.0,1106.1852,1.0,1.0,30_10_2014 level23_spatial_F+V 09_02 Block7-17.txt,37,37,1201,47.0,-20.0,2014-10-30,False,colocated,right
24,269.717,0,730,2058.0,2857.0,4205.0,851.0,10.0,200.0,1.0,0.0,270.6111,0.0,1.0,21_05_2015 level23_spatial_F+V 10_00 Block10-51.txt,37,37,1201,47.0,-20.0,2015-05-21,False,colocated,right
101,1049.1159,0,730,2058.0,2857.0,4205.0,501.0,10.0,200.0,1.0,1.0,1050.2595,1.0,1.0,21_05_2015 level23_spatial_F+V 10_00 Block10-51.txt,37,37,1201,47.0,-20.0,2015-05-21,False,colocated,right
152,1637.3001,0,730,2058.0,2857.0,4205.0,501.0,10.0,200.0,1.0,0.0,1638.11,0.0,1.0,01_05_2015 level23_spatial_F+V 10_23 Block10-20.txt,37,37,1201,47.0,-20.0,2015-05-01,False,colocated,right
127,1362.6636,1,730,2058.0,2857.0,4205.0,751.0,10.0,200.0,1.0,0.0,1364.1348,0.0,1.0,01_05_2015 level23_spatial_F+V 10_23 Block10-20.txt,37,37,1201,47.0,-20.0,2015-05-01,False,colocated,right
66,695.7054,0,730,2058.0,2857.0,4205.0,751.0,10.0,200.0,1.0,0.0,696.4996,0.0,1.0,01_04_2015 level23_spatial_F+V 09_24 Block9-8.txt,37,37,1201,47.0,-20.0,2015-04-01,False,colocated,right
11,127.4097,0,730,2058.0,2857.0,4205.0,901.0,10.0,200.0,1.0,1.0,128.5749,1.0,1.0,09_12_2014 level23_spatial_F+V 15_44 Block7-45.txt,37,37,1201,47.0,-20.0,2014-12-09,False,colocated,right
85,933.8839,1,730,2058.0,2857.0,4205.0,1001.0,10.0,200.0,1.0,0.0,934.675,0.0,1.0,22_05_2015 level23_spatial_F+V 10_27 Block10-54.txt,37,37,1201,47.0,-20.0,2015-05-22,False,colocated,right
128,1209.972,1,730,2058.0,2857.0,4205.0,1001.0,10.0,200.0,1.0,0.0,1214.6642,0.0,1.0,30_04_2015 level23_spatial_F+V 08_58 Block10-18.txt,37,37,1201,47.0,-20.0,2015-04-30,False,colocated,right
11,127.4097,0,730,2058.0,2857.0,4205.0,901.0,10.0,200.0,1.0,1.0,128.5749,1.0,1.0,09_12_2014 level23_spatial_F+V 15_44 Block7-45.txt,37,37,1201,47.0,-20.0,2014-12-09,False,colocated,right
38,347.2801,0,730,2058.0,2857.0,4205.0,601.0,10.0,200.0,1.0,0.0,348.7031,0.0,1.0,09_01_2015 level23_spatial_F+V 09_25 Block7-70.txt,37,37,1201,47.0,-20.0,2015-01-09,False,colocated,right
37,450.7207,0,730,2058.0,2857.0,4205.0,701.0,10.0,200.0,1.0,1.0,452.5234,1.0,1.0,09_12_2014 level23_spatial_F+V 15_44 Block7-45.txt,37,37,1201,47.0,-20.0,2014-12-09,False,colocated,right
96,1188.0735,0,730,2058.0,2857.0,4205.0,801.0,10.0,200.0,1.0,1.0,1190.6344,1.0,1.0,30_10_2014 level23_spatial_F+V 09_02 Block7-17.txt,37,37,1201,47.0,-20.0,2014-10-30,False,colocated,right
35,336.8894,0,730,2058.0,2857.0,4205.0,801.0,10.0,200.0,1.0,0.0,338.0998,0.0,1.0,01_05_2015 level23_spatial_F+V 10_23 Block10-20.txt,37,37,1201,47.0,-20.0,2015-05-01,False,colocated,right
125,1267.1498,0,730,2058.0,2857.0,4205.0,751.0,10.0,200.0,1.0,0.0,1268.8273,0.0,1.0,20_03_2015 level23_spatial_F+V 08_27 Block9-1.txt,37,37,1201,47.0,-20.0,2015-03-20,False,colocated,right
74,622.5817,1,730,2058.0,2857.0,4205.0,851.0,10.0,200.0,1.0,1.0,626.3318,1.0,1.0,27_11_2014 level23_spatial_F+V 10_50 Block7-31.txt,37,37,1201,47.0,-20.0,2014-11-27,False,colocated,right
50,443.5287,0,730,2058.0,2857.0,4205.0,651.0,10.0,200.0,1.0,1.0,444.9512,1.0,1.0,30_09_2014 level23_spatial_F+V 10_53 Block6-93.txt,37,37,1201,47.0,-20.0,2014-09-30,False,colocated,right
66,813.8446,0,730,2058.0,2857.0,4205.0,701.0,10.0,200.0,1.0,0.0,814.6533,0.0,1.0,09_12_2014 level23_spatial_F+V 15_44 Block7-45.txt,37,37,1201,47.0,-20.0,2014-12-09,False,colocated,right
113,940.4888,0,730,2058.0,2857.0,4205.0,651.0,10.0,200.0,1.0,0.0,941.573,0.0,1.0,12_01_2015 level23_spatial_F+V 09_32 Block7-74.txt,37,37,1201,47.0,-20.0,2015-01-12,False,colocated,right
49,487.9547,1,730,2058.0,2857.0,4205.0,801.0,10.0,200.0,1.0,1.0,488.6841,1.0,1.0,01_05_2015 level23_spatial_F+V 10_23 Block10-20.txt,37,37,1201,47.0,-20.0,2015-05-01,False,colocated,right
21,204.6863,0,730,2058.0,2857.0,4205.0,901.0,10.0,200.0,1.0,0.0,206.1924,0.0,1.0,10_12_2014 level23_spatial_F+V 15_26 Block7-48.txt,37,37,1201,47.0,-20.0,2014-12-10,False,colocated,right
4,36.5671,0,730,2058.0,2857.0,4205.0,951.0,10.0,200.0,1.0,0.0,37.9988,0.0,1.0,20_03_2015 level23_spatial_F+V 08_27 Block9-1.txt,37,37,1201,47.0,-20.0,2015-03-20,False,colocated,right
86,774.0004,0,730,2058.0,2857.0,4205.0,651.0,10.0,200.0,1.0,1.0,776.022,1.0,1.0,30_09_2014 level23_spatial_F+V 10_53 Block6-93.txt,37,37,1201,47.0,-20.0,2014-09-30,False,colocated,right
58,604.594,0,730,2058.0,2857.0,4205.0,851.0,10.0,200.0,1.0,0.0,605.183,0.0,1.0,20_03_2015 level23_spatial_F+V 08_27 Block9-1.txt,37,37,1201,47.0,-20.0,2015-03-20,False,colocated,right
66,695.7054,0,730,2058.0,2857.0,4205.0,751.0,10.0,200.0,1.0,0.0,696.4996,0.0,1.0,01_04_2015 level23_spatial_F+V 09_24 Block9-8.txt,37,37,1201,47.0,-20.0,2015-04-01,False,colocated,right
52,548.1564,0,730,2058.0,2857.0,4205.0,901.0,10.0,200.0,1.0,0.0,549.3626,0.0,1.0,01_05_2015 level23_spatial_F+V 10_23 Block10-20.txt,37,37,1201,47.0,-20.0,2015-05-01,False,colocated,right
45,386.3821,0,730,2058.0,2857.0,4205.0,701.0,10.0,200.0,1.0,1.0,387.2983,1.0,1.0,27_11_2014 level23_spatial_F+V 10_50 Block7-31.txt,37,37,1201,47.0,-20.0,2014-11-27,False,colocated,right
102,1062.9127,0,730,2058.0,2857.0,4205.0,951.0,10.0,200.0,1.0,0.0,1064.2497,0.0,1.0,21_05_2015 level23_spatial_F+V 10_00 Block10-51.txt,37,37,1201,47.0,-20.0,2015-05-21,False,colocated,right
28,326.1465,0,730,2058.0,2857.0,4205.0,1001.0,10.0,200.0,1.0,0.0,327.8175,0.0,1.0,30_10_2014 level23_spatial_F+V 09_02 Block7-17.txt,37,37,1201,47.0,-20.0,2014-10-30,False,colocated,right
5,91.7106,0,730,2058.0,2857.0,4205.0,701.0,10.0,200.0,1.0,1.0,92.2445,1.0,1.0,02_02_2015 level23_spatial_F+V 14_40 Block8-24.txt,37,37,1201,47.0,-20.0,2015-02-02,False,colocated,right
12,111.8463,0,730,2058.0,2857.0,4205.0,801.0,10.0,200.0,1.0,1.0,113.2476,1.0,1.0,10_12_2014 level23_spatial_F+V 15_26 Block7-48.txt,37,37,1201,47.0,-20.0,2014-12-10,False,colocated,right
99,996.6646,0,730,2058.0,2857.0,4205.0,751.0,10.0,200.0,1.0,0.0,997.8029,0.0,1.0,02_02_2015 level23_spatial_F+V 09_07 Block8-23.txt,37,37,1201,47.0,-20.0,2015-02-02,False,colocated,right
127,1362.6636,1,730,2058.0,2857.0,4205.0,751.0,10.0,200.0,1.0,0.0,1364.1348,0.0,1.0,01_05_2015 level23_spatial_F+V 10_23 Block10-20.txt,37,37,1201,47.0,-20.0,2015-05-01,False,colocated,right
5,91.7106,0,730,2058.0,2857.0,4205.0,701.0,10.0,200.0,1.0,1.0,92.2445,1.0,1.0,02_02_2015 level23_spatial_F+V 14_40 Block8-24.txt,37,37,1201,47.0,-20.0,2015-02-02,False,colocated,right
149,1441.6095,0,730,2058.0,2857.0,4205.0,601.0,10.0,200.0,1.0,0.0,1442.342,0.0,1.0,30_04_2015 level23_spatial_F+V 08_58 Block10-18.txt,37,37,1201,47.0,-20.0,2015-04-30,False,colocated,right
14,136.7636,0,730,2058.0,2857.0,4205.0,701.0,10.0,200.0,1.0,0.0,137.7443,0.0,1.0,20_03_2015 level23_spatial_F+V 08_27 Block9-1.txt,37,37,1201,47.0,-20.0,2015-03-20,False,colocated,right
40,447.0627,0,730,2058.0,2857.0,4205.0,651.0,10.0,200.0,1.0,0.0,448.7125,0.0,1.0,22_05_2015 level23_spatial_F+V 10_27 Block10-54.txt,37,37,1201,47.0,-20.0,2015-05-22,False,colocated,right
101,1999.6813,1,730,2058.0,2857.0,4205.0,601.0,10.0,200.0,1.0,1.0,2002.9175,1.0,1.0,02_02_2015 level23_spatial_F+V 14_40 Block8-24.txt,37,37,1201,47.0,-20.0,2015-02-02,False,colocated,right
21,284.0279,0,730,2058.0,2857.0,4205.0,801.0,10.0,200.0,1.0,0.0,285.2686,0.0,1.0,22_05_2015 level23_spatial_F+V 10_27 Block10-54.txt,37,37,1201,47.0,-20.0,2015-05-22,False,colocated,right
125,1347.032,0,730,2058.0,2857.0,4205.0,1001.0,10.0,200.0,1.0,0.0,1347.8024,0.0,1.0,22_05_2015 level23_spatial_F+V 10_27 Block10-54.txt,37,37,1201,47.0,-20.0,2015-05-22,False,colocated,right
4,47.5513,1,730,2058.0,2857.0,4205.0,901.0,10.0,200.0,1.0,0.0,63.5603,0.0,1.0,20_03_2015 level23_spatial_F+V 13_34 Block9-2.txt,37,37,1201,47.0,-20.0,2015-03-20,False,colocated,right
14,155.5502,0,730,2058.0,2857.0,4205.0,651.0,10.0,200.0,1.0,0.0,156.841,0.0,1.0,30_10_2014 level23_spatial_F+V 09_02 Block7-17.txt,37,37,1201,47.0,-20.0,2014-10-30,False,colocated,right
99,829.0564,0,730,2058.0,2857.0,4205.0,1001.0,10.0,200.0,1.0,0.0,830.4984,0.0,1.0,12_01_2015 level23_spatial_F+V 09_32 Block7-74.txt,37,37,1201,47.0,-20.0,2015-01-12,False,colocated,right
76,633.7744,1,730,2058.0,2857.0,4205.0,651.0,10.0,200.0,1.0,0.0,635.4065,0.0,1.0,12_01_2015 level23_spatial_F+V 09_32 Block7-74.txt,37,37,1201,47.0,-20.0,2015-01-12,False,colocated,right
67,640.3367,0,730,2058.0,2857.0,4205.0,751.0,10.0,200.0,1.0,0.0,641.8466,0.0,1.0,10_12_2014 level23_spatial_F+V 15_26 Block7-48.txt,37,37,1201,47.0,-20.0,2014-12-10,False,colocated,right
40,447.0627,0,730,2058.0,2857.0,4205.0,651.0,10.0,200.0,1.0,0.0,448.7125,0.0,1.0,22_05_2015 level23_spatial_F+V 10_27 Block10-54.txt,37,37,1201,47.0,-20.0,2015-05-22,False,colocated,right
17,144.2574,1,730,2058.0,2857.0,4205.0,651.0,10.0,200.0,1.0,0.0,147.6484,0.0,1.0,27_11_2014 level23_spatial_F+V 10_50 Block7-31.txt,37,37,1201,47.0,-20.0,2014-11-27,False,colocated,right
153,1820.8996,1,730,2058.0,2857.0,4205.0,1001.0,10.0,200.0,1.0,0.0,1826.4773,0.0,1.0,12_08_2014 level23_spatial_F+V 10_04 Block6-61.txt,37,37,1201,47.0,-20.0,2014-08-12,False,colocated,right
70,681.583,1,730,2058.0,2857.0,4205.0,951.0,10.0,200.0,1.0,1.0,685.6769,1.0,1.0,30_04_2015 level23_spatial_F+V 08_58 Block10-18.txt,37,37,1201,47.0,-20.0,2015-04-30,False,colocated,right
62,669.0055,1,730,2058.0,2857.0,4205.0,851.0,10.0,200.0,1.0,0.0,670.1592,0.0,1.0,01_04_2015 level23_spatial_F+V 14_35 Block9-7.txt,37,37,1201,47.0,-20.0,2015-04-01,False,colocated,right
124,1175.7665,0,730,2058.0,2857.0,4205.0,901.0,10.0,200.0,1.0,0.0,1177.3262,0.0,1.0,30_04_2015 level23_spatial_F+V 08_58 Block10-18.txt,37,37,1201,47.0,-20.0,2015-04-30,False,colocated,right
6,51.4979,0,730,2058.0,2857.0,4205.0,951.0,10.0,200.0,1.0,0.0,52.3398,0.0,1.0,12_01_2015 level23_spatial_F+V 09_32 Block7-74.txt,37,37,1201,47.0,-20.0,2015-01-12,False,colocated,right
42,406.9896,0,730,2058.0,2857.0,4205.0,851.0,10.0,200.0,1.0,0.0,407.8493,0.0,1.0,02_02_2015 level23_spatial_F+V 09_07 Block8-23.txt,37,37,1201,47.0,-20.0,2015-02-02,False,colocated,right
125,1248.8892,0,730,2058.0,2857.0,4205.0,901.0,10.0,200.0,1.0,1.0,1250.4056,1.0,1.0,30_09_2014 level23_spatial_F+V 10_53 Block6-93.txt,37,37,1201,47.0,-20.0,2014-09-30,False,colocated,right
14,136.7636,0,730,2058.0,2857.0,4205.0,701.0,10.0,200.0,1.0,0.0,137.7443,0.0,1.0,20_03_2015 level23_spatial_F+V 08_27 Block9-1.txt,37,37,1201,47.0,-20.0,2015-03-20,False,colocated,right
99,996.6646,0,730,2058.0,2857.0,4205.0,751.0,10.0,200.0,1.0,0.0,997.8029,0.0,1.0,02_02_2015 level23_spatial_F+V 09_07 Block8-23.txt,37,37,1201,47.0,-20.0,2015-02-02,False,colocated,right
28,326.1465,0,730,2058.0,2857.0,4205.0,1001.0,10.0,200.0,1.0,0.0,327.8175,0.0,1.0,30_10_2014 level23_spatial_F+V 09_02 Block7-17.txt,37,37,1201,47.0,-20.0,2014-10-30,False,colocated,right
57,722.7999,0,730,2058.0,2857.0,4205.0,701.0,10.0,200.0,1.0,0.0,724.3373,0.0,1.0,14_10_2014 level23_spatial_F+V 10_43 Block7-3.txt,37,37,1201,47.0,-20.0,2014-10-14,False,colocated,right
134,1363.8096,0,730,2058.0,2857.0,4205.0,601.0,10.0,200.0,1.0,0.0,1365.3375,0.0,1.0,20_03_2015 level23_spatial_F+V 08_27 Block9-1.txt,37,37,1201,47.0,-20.0,2015-03-20,False,colocated,right
115,1091.7348,0,730,2058.0,2857.0,4205.0,651.0,10.0,200.0,1.0,0.0,1093.166,0.0,1.0,30_04_2015 level23_spatial_F+V 08_58 Block10-18.txt,37,37,1201,47.0,-20.0,2015-04-30,False,colocated,right
125,1267.1498,0,730,2058.0,2857.0,4205.0,751.0,10.0,200.0,1.0,0.0,1268.8273,0.0,1.0,20_03_2015 level23_spatial_F+V 08_27 Block9-1.txt,37,37,1201,47.0,-20.0,2015-03-20,False,colocated,right
70,681.583,1,730,2058.0,2857.0,4205.0,951.0,10.0,200.0,1.0,1.0,685.6769,1.0,1.0,30_04_2015 level23_spatial_F+V 08_58 Block10-18.txt,37,37,1201,47.0,-20.0,2015-04-30,False,colocated,right
99,829.0564,0,730,2058.0,2857.0,4205.0,1001.0,10.0,200.0,1.0,0.0,830.4984,0.0,1.0,12_01_2015 level23_spatial_F+V 09_32 Block7-74.txt,37,37,1201,47.0,-20.0,2015-01-12,False,colocated,right
115,1091.7348,0,730,2058.0,2857.0,4205.0,651.0,10.0,200.0,1.0,0.0,1093.166,0.0,1.0,30_04_2015 level23_spatial_F+V 08_58 Block10-18.txt,37,37,1201,47.0,-20.0,2015-04-30,False,colocated,right
52,559.9243,0,730,2058.0,2857.0,4205.0,701.0,10.0,200.0,1.0,1.0,560.9343,1.0,1.0,21_05_2015 level23_spatial_F+V 10_00 Block10-51.txt,37,37,1201,47.0,-20.0,2015-05-21,False,colocated,right
145,1560.2098,0,730,2058.0,2857.0,4205.0,501.0,10.0,200.0,1.0,0.0,1562.2477,0.0,1.0,22_05_2015 level23_spatial_F+V 10_27 Block10-54.txt,37,37,1201,47.0,-20.0,2015-05-22,False,colocated,right
89,917.2483,0,730,2058.0,2857.0,4205.0,701.0,10.0,200.0,1.0,0.0,918.1123,0.0,1.0,20_03_2015 level23_spatial_F+V 08_27 Block9-1.txt,37,37,1201,47.0,-20.0,2015-03-20,False,colocated,right
60,739.5085,0,730,2058.0,2857.0,4205.0,801.0,10.0,200.0,1.0,0.0,740.6029,0.0,1.0,20_03_2015 level23_spatial_F+V 13_34 Block9-2.txt,37,37,1201,47.0,-20.0,2015-03-20,False,colocated,right
69,574.0378,0,730,2058.0,2857.0,4205.0,501.0,10.0,200.0,1.0,0.0,575.8096,0.0,1.0,27_11_2014 level23_spatial_F+V 10_50 Block7-31.txt,37,37,1201,47.0,-20.0,2014-11-27,False,colocated,right
28,326.1465,0,730,2058.0,2857.0,4205.0,1001.0,10.0,200.0,1.0,0.0,327.8175,0.0,1.0,30_10_2014 level23_spatial_F+V 09_02 Block7-17.txt,37,37,1201,47.0,-20.0,2014-10-30,False,colocated,right
63,549.7577,0,730,2058.0,2857.0,4205.0,751.0,10.0,200.0,1.0,0.0,550.7525,0.0,1.0,09_01_2015 level23_spatial_F+V 09_25 Block7-70.txt,37,37,1201,47.0,-20.0,2015-01-09,False,colocated,right
74,656.2575,1,730,2058.0,2857.0,4205.0,851.0,10.0,200.0,1.0,0.0,657.3638,0.0,1.0,09_01_2015 level23_spatial_F+V 09_25 Block7-70.txt,37,37,1201,47.0,-20.0,2015-01-09,False,colocated,right
64,673.4973,0,730,2058.0,2857.0,4205.0,851.0,10.0,200.0,1.0,0.0,674.5637,0.0,1.0,01_04_2015 level23_spatial_F+V 09_24 Block9-8.txt,37,37,1201,47.0,-20.0,2015-04-01,False,colocated,right
17,144.2574,1,730,2058.0,2857.0,4205.0,651.0,10.0,200.0,1.0,0.0,147.6484,0.0,1.0,27_11_2014 level23_spatial_F+V 10_50 Block7-31.txt,37,37,1201,47.0,-20.0,2014-11-27,False,colocated,right
5,91.7106,0,730,2058.0,2857.0,4205.0,701.0,10.0,200.0,1.0,1.0,92.2445,1.0,1.0,02_02_2015 level23_spatial_F+V 14_40 Block8-24.txt,37,37,1201,47.0,-20.0,2015-02-02,False,colocated,right
96,1188.0735,0,730,2058.0,2857.0,4205.0,801.0,10.0,200.0,1.0,1.0,1190.6344,1.0,1.0,30_10_2014 level23_spatial_F+V 09_02 Block7-17.txt,37,37,1201,47.0,-20.0,2014-10-30,False,colocated,right
76,715.7145,0,730,2058.0,2857.0,4205.0,801.0,10.0,200.0,1.0,0.0,716.8546,0.0,1.0,10_12_2014 level23_spatial_F+V 15_26 Block7-48.txt,37,37,1201,47.0,-20.0,2014-12-10,False,colocated,right
49,487.9547,1,730,2058.0,2857.0,4205.0,801.0,10.0,200.0,1.0,1.0,488.6841,1.0,1.0,01_05_2015 level23_spatial_F+V 10_23 Block10-20.txt,37,37,1201,47.0,-20.0,2015-05-01,False,colocated,right
14,141.347,0,730,2058.0,2857.0,4205.0,801.0,10.0,200.0,1.0,0.0,142.3998,0.0,1.0,09_01_2015 level23_spatial_F+V 09_25 Block7-70.txt,37,37,1201,47.0,-20.0,2015-01-09,False,colocated,right
76,633.7744,1,730,2058.0,2857.0,4205.0,651.0,10.0,200.0,1.0,0.0,635.4065,0.0,1.0,12_01_2015 level23_spatial_F+V 09_32 Block7-74.txt,37,37,1201,47.0,-20.0,2015-01-12,False,colocated,right
45,404.1071,0,730,2058.0,2857.0,4205.0,601.0,10.0,200.0,1.0,0.0,405.4415,0.0,1.0,09_01_2015 level23_spatial_F+V 09_25 Block7-70.txt,37,37,1201,47.0,-20.0,2015-01-09,False,colocated,right
55,684.0307,0,730,2058.0,2857.0,4205.0,651.0,10.0,200.0,1.0,0.0,685.2249,0.0,1.0,12_08_2014 level23_spatial_F+V 10_04 Block6-61.txt,37,37,1201,47.0,-20.0,2014-08-12,False,colocated,right
43,387.085,0,730,2058.0,2857.0,4205.0,851.0,10.0,200.0,1.0,1.0,387.7037,1.0,1.0,30_09_2014 level23_spatial_F+V 10_53 Block6-93.txt,37,37,1201,47.0,-20.0,2014-09-30,False,colocated,right
34,413.6275,0,730,2058.0,2857.0,4205.0,851.0,10.0,200.0,1.0,0.0,418.3504,0.0,1.0,01_04_2015 level23_spatial_F+V 14_35 Block9-7.txt,37,37,1201,47.0,-20.0,2015-04-01,False,colocated,right
52,548.1564,0,730,2058.0,2857.0,4205.0,901.0,10.0,200.0,1.0,0.0,549.3626,0.0,1.0,01_05_2015 level23_spatial_F+V 10_23 Block10-20.txt,37,37,1201,47.0,-20.0,2015-05-01,False,colocated,right
125,1347.032,0,730,2058.0,2857.0,4205.0,1001.0,10.0,200.0,1.0,0.0,1347.8024,0.0,1.0,22_05_2015 level23_spatial_F+V 10_27 Block10-54.txt,37,37,1201,47.0,-20.0,2015-05-22,False,colocated,right
9,73.9382,0,730,2058.0,2857.0,4205.0,851.0,10.0,200.0,1.0,0.0,74.7391,0.0,1.0,27_11_2014 level23_spatial_F+V 10_50 Block7-31.txt,37,37,1201,47.0,-20.0,2014-11-27,False,colocated,right
76,633.7744,1,730,2058.0,2857.0,4205.0,651.0,10.0,200.0,1.0,0.0,635.4065,0.0,1.0,12_01_2015 level23_spatial_F+V 09_32 Block7-74.txt,37,37,1201,47.0,-20.0,2015-01-12,False,colocated,right
59,577.5899,0,730,2058.0,2857.0,4205.0,951.0,10.0,200.0,1.0,1.0,579.7308,1.0,1.0,02_02_2015 level23_spatial_F+V 09_07 Block8-23.txt,37,37,1201,47.0,-20.0,2015-02-02,False,colocated,right
71,720.9959,0,730,2058.0,2857.0,4205.0,901.0,10.0,200.0,1.0,0.0,722.9351,0.0,1.0,01_05_2015 level23_spatial_F+V 10_23 Block10-20.txt,37,37,1201,47.0,-20.0,2015-05-01,False,colocated,right
21,204.6863,0,730,2058.0,2857.0,4205.0,901.0,10.0,200.0,1.0,0.0,206.1924,0.0,1.0,10_12_2014 level23_spatial_F+V 15_26 Block7-48.txt,37,37,1201,47.0,-20.0,2014-12-10,False,colocated,right
66,813.8446,0,730,2058.0,2857.0,4205.0,701.0,10.0,200.0,1.0,0.0,814.6533,0.0,1.0,09_12_2014 level23_spatial_F+V 15_44 Block7-45.txt,37,37,1201,47.0,-20.0,2014-12-09,False,colocated,right
43,420.3069,0,730,2058.0,2857.0,4205.0,651.0,10.0,200.0,1.0,1.0,421.7831,1.0,1.0,30_04_2015 level23_spatial_F+V 08_58 Block10-18.txt,37,37,1201,47.0,-20.0,2015-04-30,False,colocated,right
128,1209.972,1,730,2058.0,2857.0,4205.0,1001.0,10.0,200.0,1.0,0.0,1214.6642,0.0,1.0,30_04_2015 level23_spatial_F+V 08_58 Block10-18.txt,37,37,1201,47.0,-20.0,2015-04-30,False,colocated,right
5,91.7106,0,730,2058.0,2857.0,4205.0,701.0,10.0,200.0,1.0,1.0,92.2445,1.0,1.0,02_02_2015 level23_spatial_F+V 14_40 Block8-24.txt,37,37,1201,47.0,-20.0,2015-02-02,False,colocated,right
74,914.5419,0,730,2058.0,2857.0,4205.0,851.0,10.0,200.0,1.0,0.0,915.6303,0.0,1.0,12_08_2014 level23_spatial_F+V 10_04 Block6-61.txt,37,37,1201,47.0,-20.0,2014-08-12,False,colocated,right
152,1637.3001,0,730,2058.0,2857.0,4205.0,501.0,10.0,200.0,1.0,0.0,1638.11,0.0,1.0,01_05_2015 level23_spatial_F+V 10_23 Block10-20.txt,37,37,1201,47.0,-20.0,2015-05-01,False,colocated,right
1,6.2276,0,730,2058.0,2857.0,4205.0,551.0,10.0,200.0,1.0,0.0,7.8425,0.0,1.0,01_04_2015 level23_spatial_F+V 14_35 Block9-7.txt,37,37,1201,47.0,-20.0,2015-04-01,False,colocated,right
19,224.2816,0,730,2058.0,2857.0,4205.0,851.0,10.0,200.0,1.0,1.0,226.5457,1.0,1.0,14_10_2014 level23_spatial_F+V 10_43 Block7-3.txt,37,37,1201,47.0,-20.0,2014-10-14,False,colocated,right
71,754.0575,0,730,2058.0,2857.0,4205.0,601.0,10.0,200.0,1.0,1.0,755.4192,1.0,1.0,01_04_2015 level23_spatial_F+V 09_24 Block9-8.txt,37,37,1201,47.0,-20.0,2015-04-01,False,colocated,right
12,132.4842,0,730,2058.0,2857.0,4205.0,801.0,10.0,200.0,1.0,0.0,133.7949,0.0,1.0,30_10_2014 level23_spatial_F+V 09_02 Block7-17.txt,37,37,1201,47.0,-20.0,2014-10-30,False,colocated,right
24,269.717,0,730,2058.0,2857.0,4205.0,851.0,10.0,200.0,1.0,0.0,270.6111,0.0,1.0,21_05_2015 level23_spatial_F+V 10_00 Block10-51.txt,37,37,1201,47.0,-20.0,2015-05-21,False,colocated,right
148,1620.0404,0,730,2058.0,2857.0,4205.0,751.0,10.0,200.0,1.0,0.0,1620.9148,0.0,1.0,22_05_2015 level23_spatial_F+V 10_27 Block10-54.txt,37,37,1201,47.0,-20.0,2015-05-22,False,colocated,right
79,708.4576,0,730,2058.0,2857.0,4205.0,601.0,10.0,200.0,1.0,0.0,710.8366,0.0,1.0,30_09_2014 level23_spatial_F+V 10_53 Block6-93.txt,37,37,1201,47.0,-20.0,2014-09-30,False,colocated,right
19,159.1483,0,730,2058.0,2857.0,4205.0,801.0,10.0,200.0,1.0,0.0,160.0346,0.0,1.0,01_05_2015 level23_spatial_F+V 10_23 Block10-20.txt,37,37,1201,47.0,-20.0,2015-05-01,False,colocated,right
74,914.5419,0,730,2058.0,2857.0,4205.0,851.0,10.0,200.0,1.0,0.0,915.6303,0.0,1.0,12_08_2014 level23_spatial_F+V 10_04 Block6-61.txt,37,37,1201,47.0,-20.0,2014-08-12,False,colocated,right
118,1492.0948,0,730,2058.0,2857.0,4205.0,751.0,10.0,200.0,1.0,1.0,1493.505,1.0,1.0,14_10_2014 level23_spatial_F+V 10_43 Block7-3.txt,37,37,1201,47.0,-20.0,2014-10-14,False,colocated,right
107,1230.4422,0,730,2058.0,2857.0,4205.0,601.0,10.0,200.0,1.0,0.0,1232.8458,0.0,1.0,12_08_2014 level23_spatial_F+V 10_04 Block6-61.txt,37,37,1201,47.0,-20.0,2014-08-12,False,colocated,right
29,352.0229,0,730,2058.0,2857.0,4205.0,551.0,10.0,200.0,1.0,0.0,353.7741,0.0,1.0,01_04_2015 level23_spatial_F+V 14_35 Block9-7.txt,37,37,1201,47.0,-20.0,2015-04-01,False,colocated,right
5,91.7106,0,730,2058.0,2857.0,4205.0,701.0,10.0,200.0,1.0,1.0,92.2445,1.0,1.0,02_02_2015 level23_spatial_F+V 14_40 Block8-24.txt,37,37,1201,47.0,-20.0,2015-02-02,False,colocated,right
64,682.3077,0,460,1105.0,2857.0,4205.0,851.0,0.0,200.0,0.0,0.0,683.4892,1.0,0.0,10_07_2014 level23_spatial_F+V 10_08 Block6-24.txt,37,37,1201,57.0,-10.0,2014-07-10,False,colocated,left
105,1073.3931,0,460,1105.0,2857.0,4205.0,851.0,0.0,200.0,0.0,0.0,1074.8636,1.0,0.0,25_06_2014 level23_spatial_F+V 10_37 Block6-14.txt,37,37,1201,57.0,-10.0,2014-06-25,False,colocated,left
165,1525.714,0,460,1105.0,2857.0,4205.0,751.0,0.0,200.0,0.0,1.0,1527.1268,0.0,0.0,10_07_2014 level23_spatial_F+V 10_08 Block6-24.txt,37,37,1201,57.0,-10.0,2014-07-10,False,colocated,left
64,682.3077,0,460,1105.0,2857.0,4205.0,851.0,0.0,200.0,0.0,0.0,683.4892,1.0,0.0,10_07_2014 level23_spatial_F+V 10_08 Block6-24.txt,37,37,1201,57.0,-10.0,2014-07-10,False,colocated,left
141,1346.1764,0,460,1105.0,2857.0,4205.0,501.0,0.0,200.0,0.0,0.0,1347.6678,1.0,0.0,25_06_2014 level23_spatial_F+V 10_37 Block6-14.txt,37,37,1201,57.0,-10.0,2014-06-25,False,colocated,left
12,142.909,0,460,1105.0,2857.0,4205.0,801.0,0.0,200.0,0.0,0.0,143.3234,1.0,0.0,25_06_2014 level23_spatial_F+V 10_37 Block6-14.txt,37,37,1201,57.0,-10.0,2014-06-25,False,colocated,left
105,1073.3931,0,460,1105.0,2857.0,4205.0,851.0,0.0,200.0,0.0,0.0,1074.8636,1.0,0.0,25_06_2014 level23_spatial_F+V 10_37 Block6-14.txt,37,37,1201,57.0,-10.0,2014-06-25,False,colocated,left
14,154.5843,0,460,1105.0,2857.0,4205.0,901.0,0.0,200.0,0.0,0.0,155.6954,1.0,0.0,10_07_2014 level23_spatial_F+V 10_08 Block6-24.txt,37,37,1201,57.0,-10.0,2014-07-10,False,colocated,left
104,1022.8925,0,460,1105.0,2857.0,4205.0,1001.0,0.0,200.0,0.0,0.0,1024.6385,1.0,0.0,10_07_2014 level23_spatial_F+V 10_08 Block6-24.txt,37,37,1201,57.0,-10.0,2014-07-10,False,colocated,left
155,1441.5015,0,460,1105.0,2857.0,4205.0,901.0,0.0,200.0,0.0,0.0,1443.4771,1.0,0.0,10_07_2014 level23_spatial_F+V 10_08 Block6-24.txt,37,37,1201,57.0,-10.0,2014-07-10,False,colocated,left
14,154.5843,0,460,1105.0,2857.0,4205.0,901.0,0.0,200.0,0.0,0.0,155.6954,1.0,0.0,10_07_2014 level23_spatial_F+V 10_08 Block6-24.txt,37,37,1201,57.0,-10.0,2014-07-10,False,colocated,left
2,40.5029,0,460,1105.0,2857.0,4205.0,601.0,0.0,200.0,0.0,1.0,41.3904,0.0,0.0,25_06_2014 level23_spatial_F+V 10_37 Block6-14.txt,37,37,1201,57.0,-10.0,2014-06-25,False,colocated,left
143,1345.8506,0,460,1105.0,2857.0,4205.0,951.0,0.0,200.0,0.0,1.0,1346.8953,0.0,0.0,10_07_2014 level23_spatial_F+V 10_08 Block6-24.txt,37,37,1201,57.0,-10.0,2014-07-10,False,colocated,left
83,828.3596,0,460,1105.0,2857.0,4205.0,801.0,0.0,200.0,0.0,0.0,829.6464,1.0,0.0,25_06_2014 level23_spatial_F+V 10_37 Block6-14.txt,37,37,1201,57.0,-10.0,2014-06-25,False,colocated,left
104,1022.8925,0,460,1105.0,2857.0,4205.0,1001.0,0.0,200.0,0.0,0.0,1024.6385,1.0,0.0,10_07_2014 level23_spatial_F+V 10_08 Block6-24.txt,37,37,1201,57.0,-10.0,2014-07-10,False,colocated,left
81,813.2757,0,460,1105.0,2857.0,4205.0,601.0,0.0,200.0,0.0,0.0,814.6569,1.0,0.0,10_07_2014 level23_spatial_F+V 10_08 Block6-24.txt,37,37,1201,57.0,-10.0,2014-07-10,False,colocated,left
103,1049.8801,0,460,1105.0,2857.0,4205.0,751.0,0.0,200.0,0.0,1.0,1050.9256,0.0,0.0,25_06_2014 level23_spatial_F+V 10_37 Block6-14.txt,37,37,1201,57.0,-10.0,2014-06-25,False,colocated,left
141,1346.1764,0,460,1105.0,2857.0,4205.0,501.0,0.0,200.0,0.0,0.0,1347.6678,1.0,0.0,25_06_2014 level23_spatial_F+V 10_37 Block6-14.txt,37,37,1201,57.0,-10.0,2014-06-25,False,colocated,left
96,997.9023,0,460,1105.0,2857.0,4205.0,651.0,0.0,200.0,0.0,0.0,999.8975,1.0,0.0,25_06_2014 level23_spatial_F+V 10_37 Block6-14.txt,37,37,1201,57.0,-10.0,2014-06-25,False,colocated,left
64,682.3077,0,460,1105.0,2857.0,4205.0,851.0,0.0,200.0,0.0,0.0,683.4892,1.0,0.0,10_07_2014 level23_spatial_F+V 10_08 Block6-24.txt,37,37,1201,57.0,-10.0,2014-07-10,False,colocated,left
105,1073.3931,0,460,1105.0,2857.0,4205.0,851.0,0.0,200.0,0.0,0.0,1074.8636,1.0,0.0,25_06_2014 level23_spatial_F+V 10_37 Block6-14.txt,37,37,1201,57.0,-10.0,2014-06-25,False,colocated,left
62,664.5844,0,460,1105.0,2857.0,4205.0,651.0,0.0,200.0,0.0,0.0,666.2986,1.0,0.0,10_07_2014 level23_spatial_F+V 10_08 Block6-24.txt,37,37,1201,57.0,-10.0,2014-07-10,False,colocated,left
2,40.5029,0,460,1105.0,2857.0,4205.0,601.0,0.0,200.0,0.0,1.0,41.3904,0.0,0.0,25_06_2014 level23_spatial_F+V 10_37 Block6-14.txt,37,37,1201,57.0,-10.0,2014-06-25,False,colocated,left
155,1441.5015,0,460,1105.0,2857.0,4205.0,901.0,0.0,200.0,0.0,0.0,1443.4771,1.0,0.0,10_07_2014 level23_spatial_F+V 10_08 Block6-24.txt,37,37,1201,57.0,-10.0,2014-07-10,False,colocated,left
81,813.2757,0,460,1105.0,2857.0,4205.0,601.0,0.0,200.0,0.0,0.0,814.6569,1.0,0.0,10_07_2014 level23_spatial_F+V 10_08 Block6-24.txt,37,37,1201,57.0,-10.0,2014-07-10,False,colocated,left
81,813.2757,0,460,1105.0,2857.0,4205.0,601.0,0.0,200.0,0.0,0.0,814.6569,1.0,0.0,10_07_2014 level23_spatial_F+V 10_08 Block6-24.txt,37,37,1201,57.0,-10.0,2014-07-10,False,colocated,left
14,154.5843,0,460,1105.0,2857.0,4205.0,901.0,0.0,200.0,0.0,0.0,155.6954,1.0,0.0,10_07_2014 level23_spatial_F+V 10_08 Block6-24.txt,37,37,1201,57.0,-10.0,2014-07-10,False,colocated,left
12,142.909,0,460,1105.0,2857.0,4205.0,801.0,0.0,200.0,0.0,0.0,143.3234,1.0,0.0,25_06_2014 level23_spatial_F+V 10_37 Block6-14.txt,37,37,1201,57.0,-10.0,2014-06-25,False,colocated,left
96,997.9023,0,460,1105.0,2857.0,4205.0,651.0,0.0,200.0,0.0,0.0,999.8975,1.0,0.0,25_06_2014 level23_spatial_F+V 10_37 Block6-14.txt,37,37,1201,57.0,-10.0,2014-06-25,False,colocated,left
151,1410.6876,0,460,1105.0,2857.0,4205.0,651.0,0.0,200.0,0.0,0.0,1412.2689,1.0,0.0,10_07_2014 level23_spatial_F+V 10_08 Block6-24.txt,37,37,1201,57.0,-10.0,2014-07-10,False,colocated,left
105,1073.3931,0,460,1105.0,2857.0,4205.0,851.0,0.0,200.0,0.0,0.0,1074.8636,1.0,0.0,25_06_2014 level23_spatial_F+V 10_37 Block6-14.txt,37,37,1201,57.0,-10.0,2014-06-25,False,colocated,left
141,1346.1764,0,460,1105.0,2857.0,4205.0,501.0,0.0,200.0,0.0,0.0,1347.6678,1.0,0.0,25_06_2014 level23_spatial_F+V 10_37 Block6-14.txt,37,37,1201,57.0,-10.0,2014-06-25,False,colocated,left
103,1049.8801,0,460,1105.0,2857.0,4205.0,751.0,0.0,200.0,0.0,1.0,1050.9256,0.0,0.0,25_06_2014 level23_spatial_F+V 10_37 Block6-14.txt,37,37,1201,57.0,-10.0,2014-06-25,False,colocated,left
64,682.3077,0,460,1105.0,2857.0,4205.0,851.0,0.0,200.0,0.0,0.0,683.4892,1.0,0.0,10_07_2014 level23_spatial_F+V 10_08 Block6-24.txt,37,37,1201,57.0,-10.0,2014-07-10,False,colocated,left
96,997.9023,0,460,1105.0,2857.0,4205.0,651.0,0.0,200.0,0.0,0.0,999.8975,1.0,0.0,25_06_2014 level23_spatial_F+V 10_37 Block6-14.txt,37,37,1201,57.0,-10.0,2014-06-25,False,colocated,left
143,1345.8506,0,460,1105.0,2857.0,4205.0,951.0,0.0,200.0,0.0,1.0,1346.8953,0.0,0.0,10_07_2014 level23_spatial_F+V 10_08 Block6-24.txt,37,37,1201,57.0,-10.0,2014-07-10,False,colocated,left
83,828.3596,0,460,1105.0,2857.0,4205.0,801.0,0.0,200.0,0.0,0.0,829.6464,1.0,0.0,25_06_2014 level23_spatial_F+V 10_37 Block6-14.txt,37,37,1201,57.0,-10.0,2014-06-25,False,colocated,left
155,1441.5015,0,460,1105.0,2857.0,4205.0,901.0,0.0,200.0,0.0,0.0,1443.4771,1.0,0.0,10_07_2014 level23_spatial_F+V 10_08 Block6-24.txt,37,37,1201,57.0,-10.0,2014-07-10,False,colocated,left
64,682.3077,0,460,1105.0,2857.0,4205.0,851.0,0.0,200.0,0.0,0.0,683.4892,1.0,0.0,10_07_2014 level23_spatial_F+V 10_08 Block6-24.txt,37,37,1201,57.0,-10.0,2014-07-10,False,colocated,left
83,828.3596,0,460,1105.0,2857.0,4205.0,801.0,0.0,200.0,0.0,0.0,829.6464,1.0,0.0,25_06_2014 level23_spatial_F+V 10_37 Block6-14.txt,37,37,1201,57.0,-10.0,2014-06-25,False,colocated,left
143,1345.8506,0,460,1105.0,2857.0,4205.0,951.0,0.0,200.0,0.0,1.0,1346.8953,0.0,0.0,10_07_2014 level23_spatial_F+V 10_08 Block6-24.txt,37,37,1201,57.0,-10.0,2014-07-10,False,colocated,left
143,1345.8506,0,460,1105.0,2857.0,4205.0,951.0,0.0,200.0,0.0,1.0,1346.8953,0.0,0.0,10_07_2014 level23_spatial_F+V 10_08 Block6-24.txt,37,37,1201,57.0,-10.0,2014-07-10,False,colocated,left
105,1073.3931,0,460,1105.0,2857.0,4205.0,851.0,0.0,200.0,0.0,0.0,1074.8636,1.0,0.0,25_06_2014 level23_spatial_F+V 10_37 Block6-14.txt,37,37,1201,57.0,-10.0,2014-06-25,False,colocated,left
96,997.9023,0,460,1105.0,2857.0,4205.0,651.0,0.0,200.0,0.0,0.0,999.8975,1.0,0.0,25_06_2014 level23_spatial_F+V 10_37 Block6-14.txt,37,37,1201,57.0,-10.0,2014-06-25,False,colocated,left
83,828.3596,0,460,1105.0,2857.0,4205.0,801.0,0.0,200.0,0.0,0.0,829.6464,1.0,0.0,25_06_2014 level23_spatial_F+V 10_37 Block6-14.txt,37,37,1201,57.0,-10.0,2014-06-25,False,colocated,left
55,603.0686,0,460,1105.0,2857.0,4205.0,851.0,0.0,200.0,0.0,0.0,605.2719,1.0,0.0,10_07_2014 level23_spatial_F+V 10_08 Block6-24.txt,37,37,1201,57.0,-10.0,2014-07-10,False,colocated,left
165,1525.714,0,460,1105.0,2857.0,4205.0,751.0,0.0,200.0,0.0,1.0,1527.1268,0.0,0.0,10_07_2014 level23_spatial_F+V 10_08 Block6-24.txt,37,37,1201,57.0,-10.0,2014-07-10,False,colocated,left
165,1525.714,0,460,1105.0,2857.0,4205.0,751.0,0.0,200.0,0.0,1.0,1527.1268,0.0,0.0,10_07_2014 level23_spatial_F+V 10_08 Block6-24.txt,37,37,1201,57.0,-10.0,2014-07-10,False,colocated,left
81,813.2757,0,460,1105.0,2857.0,4205.0,601.0,0.0,200.0,0.0,0.0,814.6569,1.0,0.0,10_07_2014 level23_spatial_F+V 10_08 Block6-24.txt,37,37,1201,57.0,-10.0,2014-07-10,False,colocated,left
14,154.5843,0,460,1105.0,2857.0,4205.0,901.0,0.0,200.0,0.0,0.0,155.6954,1.0,0.0,10_07_2014 level23_spatial_F+V 10_08 Block6-24.txt,37,37,1201,57.0,-10.0,2014-07-10,False,colocated,left
64,682.3077,0,460,1105.0,2857.0,4205.0,851.0,0.0,200.0,0.0,0.0,683.4892,1.0,0.0,10_07_2014 level23_spatial_F+V 10_08 Block6-24.txt,37,37,1201,57.0,-10.0,2014-07-10,False,colocated,left
105,1073.3931,0,460,1105.0,2857.0,4205.0,851.0,0.0,200.0,0.0,0.0,1074.8636,1.0,0.0,25_06_2014 level23_spatial_F+V 10_37 Block6-14.txt,37,37,1201,57.0,-10.0,2014-06-25,False,colocated,left
151,1410.6876,0,460,1105.0,2857.0,4205.0,651.0,0.0,200.0,0.0,0.0,1412.2689,1.0,0.0,10_07_2014 level23_spatial_F+V 10_08 Block6-24.txt,37,37,1201,57.0,-10.0,2014-07-10,False,colocated,left
165,1525.714,0,460,1105.0,2857.0,4205.0,751.0,0.0,200.0,0.0,1.0,1527.1268,0.0,0.0,10_07_2014 level23_spatial_F+V 10_08 Block6-24.txt,37,37,1201,57.0,-10.0,2014-07-10,False,colocated,left
62,664.5844,0,460,1105.0,2857.0,4205.0,651.0,0.0,200.0,0.0,0.0,666.2986,1.0,0.0,10_07_2014 level23_spatial_F+V 10_08 Block6-24.txt,37,37,1201,57.0,-10.0,2014-07-10,False,colocated,left
14,154.5843,0,460,1105.0,2857.0,4205.0,901.0,0.0,200.0,0.0,0.0,155.6954,1.0,0.0,10_07_2014 level23_spatial_F+V 10_08 Block6-24.txt,37,37,1201,57.0,-10.0,2014-07-10,False,colocated,left
81,813.2757,0,460,1105.0,2857.0,4205.0,601.0,0.0,200.0,0.0,0.0,814.6569,1.0,0.0,10_07_2014 level23_spatial_F+V 10_08 Block6-24.txt,37,37,1201,57.0,-10.0,2014-07-10,False,colocated,left
143,1345.8506,0,460,1105.0,2857.0,4205.0,951.0,0.0,200.0,0.0,1.0,1346.8953,0.0,0.0,10_07_2014 level23_spatial_F+V 10_08 Block6-24.txt,37,37,1201,57.0,-10.0,2014-07-10,False,colocated,left
2,40.5029,0,460,1105.0,2857.0,4205.0,601.0,0.0,200.0,0.0,1.0,41.3904,0.0,0.0,25_06_2014 level23_spatial_F+V 10_37 Block6-14.txt,37,37,1201,57.0,-10.0,2014-06-25,False,colocated,left
64,682.3077,0,460,1105.0,2857.0,4205.0,851.0,0.0,200.0,0.0,0.0,683.4892,1.0,0.0,10_07_2014 level23_spatial_F+V 10_08 Block6-24.txt,37,37,1201,57.0,-10.0,2014-07-10,False,colocated,left
151,1410.6876,0,460,1105.0,2857.0,4205.0,651.0,0.0,200.0,0.0,0.0,1412.2689,1.0,0.0,10_07_2014 level23_spatial_F+V 10_08 Block6-24.txt,37,37,1201,57.0,-10.0,2014-07-10,False,colocated,left
2,40.5029,0,460,1105.0,2857.0,4205.0,601.0,0.0,200.0,0.0,1.0,41.3904,0.0,0.0,25_06_2014 level23_spatial_F+V 10_37 Block6-14.txt,37,37,1201,57.0,-10.0,2014-06-25,False,colocated,left
151,1410.6876,0,460,1105.0,2857.0,4205.0,651.0,0.0,200.0,0.0,0.0,1412.2689,1.0,0.0,10_07_2014 level23_spatial_F+V 10_08 Block6-24.txt,37,37,1201,57.0,-10.0,2014-07-10,False,colocated,left
83,828.3596,0,460,1105.0,2857.0,4205.0,801.0,0.0,200.0,0.0,0.0,829.6464,1.0,0.0,25_06_2014 level23_spatial_F+V 10_37 Block6-14.txt,37,37,1201,57.0,-10.0,2014-06-25,False,colocated,left
96,997.9023,0,460,1105.0,2857.0,4205.0,651.0,0.0,200.0,0.0,0.0,999.8975,1.0,0.0,25_06_2014 level23_spatial_F+V 10_37 Block6-14.txt,37,37,1201,57.0,-10.0,2014-06-25,False,colocated,left
165,1525.714,0,460,1105.0,2857.0,4205.0,751.0,0.0,200.0,0.0,1.0,1527.1268,0.0,0.0,10_07_2014 level23_spatial_F+V 10_08 Block6-24.txt,37,37,1201,57.0,-10.0,2014-07-10,False,colocated,left
