Trial,StartTime,CenterReward,F1,F2,F3,F4,HoldTime,Atten,Pitch,Side,Response,RespTime,Correct,SpatialMask,originalFile,LeftTemperature,RightTemperature,fNum,vowel_level,SNR,day,treatment,SpatialCondition,VowelLocation
101,1366.2377,0,460,1105,2857,4205,901,10.0,200,0,0,1366.7289,1,0,01_05_2015 level23_spatial_F+V 11_01 Block10-20.txt,37,37,1203,47.0,-20.0,2015-05-01,False,colocated,left
56,556.6806,0,460,1105,2857,4205,1001,10.0,200,0,0,557.3564,1,0,01_04_2015 level23_spatial_F+V 14_59 Block9-8.txt,37,37,1203,47.0,-20.0,2015-04-01,False,colocated,left
92,1015.3525,0,460,1105,2857,4205,801,10.0,200,0,0,1015.7715,1,0,20_03_2015 level23_spatial_F+V 09_02 Block9-1.txt,37,37,1203,47.0,-20.0,2015-03-20,False,colocated,left
105,904.2942,0,460,1105,2857,4205,901,10.0,200,0,0,904.6059,1,0,27_11_2014 level23_spatial_F+V 10_30 Block7-35.txt,37,37,1203,47.0,-20.0,2014-11-27,False,colocated,left
71,655.1661,0,460,1105,2857,4205,901,10.0,200,0,1,655.6956,0,0,30_09_2014 level23_spatial_F+V 10_33 Block6-90.txt,37,37,1203,47.0,-20.0,2014-09-30,False,colocated,left
91,890.1197,0,460,1105,2857,4205,801,10.0,200,0,0,890.2964,1,0,09_01_2015 level23_spatial_F+V 10_03 Block7-73.txt,37,37,1203,47.0,-20.0,2015-01-09,False,colocated,left
16,148.6347,0,460,1105,2857,4205,501,10.0,200,0,0,148.995,1,0,27_11_2014 level23_spatial_F+V 10_30 Block7-35.txt,37,37,1203,47.0,-20.0,2014-11-27,False,colocated,left
27,333.5366,0,460,1105,2857,4205,701,10.0,200,0,0,334.4719,1,0,21_05_2015 level23_spatial_F+V 15_25 Block10-50.txt,37,37,1203,47.0,-20.0,2015-05-21,False,colocated,left
51,526.5213,0,460,1105,2857,4205,601,10.0,200,0,0,529.4123,1,0,09_01_2015 level23_spatial_F+V 10_03 Block7-73.txt,37,37,1203,47.0,-20.0,2015-01-09,False,colocated,left
71,759.4216,1,460,1105,2857,4205,601,10.0,200,0,0,762.8614,1,0,02_02_2015 level23_spatial_F+V 09_47 Block8-20.txt,37,37,1203,47.0,-20.0,2015-02-02,False,colocated,left
86,758.8851,0,460,1105,2857,4205,1001,10.0,200,0,1,760.0383,0,0,27_11_2014 level23_spatial_F+V 10_30 Block7-35.txt,37,37,1203,47.0,-20.0,2014-11-27,False,colocated,left
88,1224.4777,0,460,1105,2857,4205,851,10.0,200,0,0,1225.6587,1,0,14_10_2014 level23_spatial_F+V 11_14 Block7-3.txt,37,37,1203,47.0,-20.0,2014-10-14,False,colocated,left
1,6.8059,0,460,1105,2857,4205,701,10.0,200,0,1,7.4025,0,0,07_08_2014 level23_spatial_F+V 10_58 Block6-52.txt,37,37,1203,47.0,-20.0,2014-08-07,False,colocated,left
6,69.808,0,460,1105,2857,4205,601,10.0,200,0,0,72.1541,1,0,07_08_2014 level23_spatial_F+V 10_50 Block6-51.txt,37,37,1203,47.0,-20.0,2014-08-07,False,colocated,left
39,417.9415,0,460,1105,2857,4205,751,10.0,200,0,0,420.9205,1,0,07_08_2014 level23_spatial_F+V 10_58 Block6-52.txt,37,37,1203,47.0,-20.0,2014-08-07,False,colocated,left
68,692.6735,0,460,1105,2857,4205,701,10.0,200,0,0,693.5314,1,0,09_01_2015 level23_spatial_F+V 10_03 Block7-73.txt,37,37,1203,47.0,-20.0,2015-01-09,False,colocated,left
79,1094.0529,0,460,1105,2857,4205,501,10.0,200,0,0,1095.0919,1,0,14_10_2014 level23_spatial_F+V 11_14 Block7-3.txt,37,37,1203,47.0,-20.0,2014-10-14,False,colocated,left
25,196.2586,0,460,1105,2857,4205,1001,10.0,200,0,0,196.804,1,0,10_12_2014 level23_spatial_F+V 15_48 Block7-51.txt,37,37,1203,47.0,-20.0,2014-12-10,False,colocated,left
67,944.5484,0,460,1105,2857,4205,801,10.0,200,0,0,946.1134,1,0,14_10_2014 level23_spatial_F+V 11_14 Block7-3.txt,37,37,1203,47.0,-20.0,2014-10-14,False,colocated,left
90,1250.9129,0,460,1105,2857,4205,501,10.0,200,0,0,1251.6082,1,0,01_05_2015 level23_spatial_F+V 11_01 Block10-20.txt,37,37,1203,47.0,-20.0,2015-05-01,False,colocated,left
19,236.7569,0,460,1105,2857,4205,701,10.0,200,0,0,237.183,1,0,30_04_2015 level23_spatial_F+V 09_28 Block10-18.txt,37,37,1203,47.0,-20.0,2015-04-30,False,colocated,left
39,434.0205,0,460,1105,2857,4205,1001,10.0,200,0,0,434.4298,1,0,01_04_2015 level23_spatial_F+V 09_00 Block9-7.txt,37,37,1203,47.0,-20.0,2015-04-01,False,colocated,left
15,193.3874,0,460,1105,2857,4205,851,10.0,200,0,1,193.9541,0,0,30_04_2015 level23_spatial_F+V 09_28 Block10-18.txt,37,37,1203,47.0,-20.0,2015-04-30,False,colocated,left
5,41.4707,0,460,1105,2857,4205,651,10.0,200,0,0,41.6874,1,0,10_12_2014 level23_spatial_F+V 15_48 Block7-51.txt,37,37,1203,47.0,-20.0,2014-12-10,False,colocated,left
43,479.3995,0,460,1105,2857,4205,501,10.0,200,0,0,479.9138,1,0,01_04_2015 level23_spatial_F+V 09_00 Block9-7.txt,37,37,1203,47.0,-20.0,2015-04-01,False,colocated,left
38,506.3558,0,460,1105,2857,4205,1001,10.0,200,0,0,506.9887,1,0,30_10_2014 level23_spatial_F+V 09_35 Block7-22.txt,37,37,1203,47.0,-20.0,2014-10-30,False,colocated,left
105,1016.5062,0,460,1105,2857,4205,701,10.0,200,0,0,1016.9523,1,0,09_01_2015 level23_spatial_F+V 10_03 Block7-73.txt,37,37,1203,47.0,-20.0,2015-01-09,False,colocated,left
73,768.2132,0,460,1105,2857,4205,901,10.0,200,0,0,769.009,1,0,20_03_2015 level23_spatial_F+V 09_02 Block9-1.txt,37,37,1203,47.0,-20.0,2015-03-20,False,colocated,left
19,203.7903,0,460,1105,2857,4205,501,10.0,200,0,0,204.2087,1,0,21_05_2015 level23_spatial_F+V 09_38 Block10-49.txt,37,37,1203,47.0,-20.0,2015-05-21,False,colocated,left
58,609.9909,0,460,1105,2857,4205,901,10.0,200,0,0,610.477,1,0,07_08_2014 level23_spatial_F+V 10_58 Block6-52.txt,37,37,1203,47.0,-20.0,2014-08-07,False,colocated,left
101,1366.2377,0,460,1105,2857,4205,901,10.0,200,0,0,1366.7289,1,0,01_05_2015 level23_spatial_F+V 11_01 Block10-20.txt,37,37,1203,47.0,-20.0,2015-05-01,False,colocated,left
27,300.7101,0,460,1105,2857,4205,901,10.0,200,0,1,301.0908,0,0,20_03_2015 level23_spatial_F+V 09_02 Block9-1.txt,37,37,1203,47.0,-20.0,2015-03-20,False,colocated,left
27,312.3651,0,460,1105,2857,4205,801,10.0,200,0,0,313.2408,1,0,07_08_2014 level23_spatial_F+V 10_58 Block6-52.txt,37,37,1203,47.0,-20.0,2014-08-07,False,colocated,left
79,1094.0529,0,460,1105,2857,4205,501,10.0,200,0,0,1095.0919,1,0,14_10_2014 level23_spatial_F+V 11_14 Block7-3.txt,37,37,1203,47.0,-20.0,2014-10-14,False,colocated,left
38,506.3558,0,460,1105,2857,4205,1001,10.0,200,0,0,506.9887,1,0,30_10_2014 level23_spatial_F+V 09_35 Block7-22.txt,37,37,1203,47.0,-20.0,2014-10-30,False,colocated,left
23,199.5219,0,460,1105,2857,4205,651,10.0,200,0,0,200.5701,1,0,30_09_2014 level23_spatial_F+V 10_33 Block6-90.txt,37,37,1203,47.0,-20.0,2014-09-30,False,colocated,left
18,197.131,0,460,1105,2857,4205,601,10.0,200,0,0,197.6631,1,0,21_05_2015 level23_spatial_F+V 09_38 Block10-49.txt,37,37,1203,47.0,-20.0,2015-05-21,False,colocated,left
33,291.881,0,460,1105,2857,4205,651,10.0,200,0,1,292.9606,0,0,30_09_2014 level23_spatial_F+V 10_33 Block6-90.txt,37,37,1203,47.0,-20.0,2014-09-30,False,colocated,left
50,519.3196,1,460,1105,2857,4205,851,10.0,200,0,0,519.9942,1,0,09_01_2015 level23_spatial_F+V 10_03 Block7-73.txt,37,37,1203,47.0,-20.0,2015-01-09,False,colocated,left
49,741.0366,0,460,1105,2857,4205,501,10.0,200,0,0,741.9545,1,0,02_02_2015 level23_spatial_F+V 15_29 Block8-22.txt,37,37,1203,47.0,-20.0,2015-02-02,False,colocated,left
22,237.9746,0,460,1105,2857,4205,801,10.0,200,0,0,238.512,1,0,20_03_2015 level23_spatial_F+V 09_02 Block9-1.txt,37,37,1203,47.0,-20.0,2015-03-20,False,colocated,left
80,857.617,0,460,1105,2857,4205,751,10.0,200,0,1,858.7365,0,0,02_02_2015 level23_spatial_F+V 09_47 Block8-20.txt,37,37,1203,47.0,-20.0,2015-02-02,False,colocated,left
98,1342.4962,0,460,1105,2857,4205,901,10.0,200,0,1,1343.2211,0,0,01_05_2015 level23_spatial_F+V 11_01 Block10-20.txt,37,37,1203,47.0,-20.0,2015-05-01,False,colocated,left
51,526.5213,0,460,1105,2857,4205,601,10.0,200,0,0,529.4123,1,0,09_01_2015 level23_spatial_F+V 10_03 Block7-73.txt,37,37,1203,47.0,-20.0,2015-01-09,False,colocated,left
41,444.6735,0,460,1105,2857,4205,551,10.0,200,0,0,445.3336,1,0,01_05_2015 level23_spatial_F+V 11_01 Block10-20.txt,37,37,1203,47.0,-20.0,2015-05-01,False,colocated,left
11,100.6849,0,460,1105,2857,4205,851,10.0,200,0,0,100.9406,1,0,27_11_2014 level23_spatial_F+V 10_30 Block7-35.txt,37,37,1203,47.0,-20.0,2014-11-27,False,colocated,left
73,717.561,0,460,1105,2857,4205,651,10.0,200,0,0,718.0445,1,0,01_04_2015 level23_spatial_F+V 14_59 Block9-8.txt,37,37,1203,47.0,-20.0,2015-04-01,False,colocated,left
19,236.7569,0,460,1105,2857,4205,701,10.0,200,0,0,237.183,1,0,30_04_2015 level23_spatial_F+V 09_28 Block10-18.txt,37,37,1203,47.0,-20.0,2015-04-30,False,colocated,left
48,731.6555,0,460,1105,2857,4205,701,10.0,200,0,0,732.4301,1,0,02_02_2015 level23_spatial_F+V 15_29 Block8-22.txt,37,37,1203,47.0,-20.0,2015-02-02,False,colocated,left
105,904.2942,0,460,1105,2857,4205,901,10.0,200,0,0,904.6059,1,0,27_11_2014 level23_spatial_F+V 10_30 Block7-35.txt,37,37,1203,47.0,-20.0,2014-11-27,False,colocated,left
38,506.3558,0,460,1105,2857,4205,1001,10.0,200,0,0,506.9887,1,0,30_10_2014 level23_spatial_F+V 09_35 Block7-22.txt,37,37,1203,47.0,-20.0,2014-10-30,False,colocated,left
101,875.9365,0,460,1105,2857,4205,801,10.0,200,0,0,876.3797,1,0,27_11_2014 level23_spatial_F+V 10_30 Block7-35.txt,37,37,1203,47.0,-20.0,2014-11-27,False,colocated,left
33,256.5588,0,460,1105,2857,4205,501,10.0,200,0,0,257.3335,1,0,10_12_2014 level23_spatial_F+V 15_48 Block7-51.txt,37,37,1203,47.0,-20.0,2014-12-10,False,colocated,left
33,256.5588,0,460,1105,2857,4205,501,10.0,200,0,0,257.3335,1,0,10_12_2014 level23_spatial_F+V 15_48 Block7-51.txt,37,37,1203,47.0,-20.0,2014-12-10,False,colocated,left
98,1342.4962,0,460,1105,2857,4205,901,10.0,200,0,1,1343.2211,0,0,01_05_2015 level23_spatial_F+V 11_01 Block10-20.txt,37,37,1203,47.0,-20.0,2015-05-01,False,colocated,left
71,910.2043,0,460,1105,2857,4205,501,10.0,200,0,0,910.8158,1,0,21_05_2015 level23_spatial_F+V 09_38 Block10-49.txt,37,37,1203,47.0,-20.0,2015-05-21,False,colocated,left
6,55.3836,0,460,1105,2857,4205,651,10.0,200,0,1,56.7345,0,0,14_10_2014 level23_spatial_F+V 11_14 Block7-3.txt,37,37,1203,47.0,-20.0,2014-10-14,False,colocated,left
74,723.4189,0,460,1105,2857,4205,501,10.0,200,0,0,724.2624,1,0,01_04_2015 level23_spatial_F+V 14_59 Block9-8.txt,37,37,1203,47.0,-20.0,2015-04-01,False,colocated,left
78,974.561,0,460,1105,2857,4205,951,10.0,200,0,0,974.89,1,0,21_05_2015 level23_spatial_F+V 09_38 Block10-49.txt,37,37,1203,47.0,-20.0,2015-05-21,False,colocated,left
73,768.2132,0,460,1105,2857,4205,901,10.0,200,0,0,769.009,1,0,20_03_2015 level23_spatial_F+V 09_02 Block9-1.txt,37,37,1203,47.0,-20.0,2015-03-20,False,colocated,left
51,463.6459,0,460,1105,2857,4205,701,10.0,200,0,1,464.2805,0,0,30_09_2014 level23_spatial_F+V 10_33 Block6-90.txt,37,37,1203,47.0,-20.0,2014-09-30,False,colocated,left
50,519.3196,1,460,1105,2857,4205,851,10.0,200,0,0,519.9942,1,0,09_01_2015 level23_spatial_F+V 10_03 Block7-73.txt,37,37,1203,47.0,-20.0,2015-01-09,False,colocated,left
9,146.0321,0,460,1105,2857,4205,701,10.0,200,0,1,147.0968,0,0,30_10_2014 level23_spatial_F+V 15_27 Block7-18.txt,37,37,1203,47.0,-20.0,2014-10-30,False,colocated,left
16,148.6347,0,460,1105,2857,4205,501,10.0,200,0,0,148.995,1,0,27_11_2014 level23_spatial_F+V 10_30 Block7-35.txt,37,37,1203,47.0,-20.0,2014-11-27,False,colocated,left
41,444.6735,0,460,1105,2857,4205,551,10.0,200,0,0,445.3336,1,0,01_05_2015 level23_spatial_F+V 11_01 Block10-20.txt,37,37,1203,47.0,-20.0,2015-05-01,False,colocated,left
3,49.9628,0,460,1105,2857,4205,751,10.0,200,0,1,50.8327,0,0,30_10_2014 level23_spatial_F+V 15_27 Block7-18.txt,37,37,1203,47.0,-20.0,2014-10-30,False,colocated,left
63,731.5424,0,460,1105,2857,4205,651,10.0,200,0,0,732.1244,1,0,30_04_2015 level23_spatial_F+V 09_28 Block10-18.txt,37,37,1203,47.0,-20.0,2015-04-30,False,colocated,left
114,1280.9055,0,460,1105,2857,4205,951,10.0,200,0,1,1281.8231,0,0,21_05_2015 level23_spatial_F+V 15_25 Block10-50.txt,37,37,1203,47.0,-20.0,2015-05-21,False,colocated,left
51,526.5213,0,460,1105,2857,4205,601,10.0,200,0,0,529.4123,1,0,09_01_2015 level23_spatial_F+V 10_03 Block7-73.txt,37,37,1203,47.0,-20.0,2015-01-09,False,colocated,left
105,904.2942,0,460,1105,2857,4205,901,10.0,200,0,0,904.6059,1,0,27_11_2014 level23_spatial_F+V 10_30 Block7-35.txt,37,37,1203,47.0,-20.0,2014-11-27,False,colocated,left
98,1342.4962,0,460,1105,2857,4205,901,10.0,200,0,1,1343.2211,0,0,01_05_2015 level23_spatial_F+V 11_01 Block10-20.txt,37,37,1203,47.0,-20.0,2015-05-01,False,colocated,left
26,228.1097,0,460,1105,2857,4205,551,10.0,200,0,0,228.5082,1,0,27_11_2014 level23_spatial_F+V 10_30 Block7-35.txt,37,37,1203,47.0,-20.0,2014-11-27,False,colocated,left
68,699.2082,0,460,1105,2857,4205,1001,10.0,200,0,0,699.6546,1,0,07_08_2014 level23_spatial_F+V 10_58 Block6-52.txt,37,37,1203,47.0,-20.0,2014-08-07,False,colocated,left
95,1075.4208,0,460,1105,2857,4205,501,10.0,200,0,0,1075.8377,1,0,21_05_2015 level23_spatial_F+V 15_25 Block10-50.txt,37,37,1203,47.0,-20.0,2015-05-21,False,colocated,left
27,300.7101,0,460,1105,2857,4205,901,10.0,200,0,1,301.0908,0,0,20_03_2015 level23_spatial_F+V 09_02 Block9-1.txt,37,37,1203,47.0,-20.0,2015-03-20,False,colocated,left
79,700.7776,0,460,1105,2857,4205,501,10.0,200,0,0,701.8664,1,0,27_11_2014 level23_spatial_F+V 10_30 Block7-35.txt,37,37,1203,47.0,-20.0,2014-11-27,False,colocated,left
86,758.8851,0,460,1105,2857,4205,1001,10.0,200,0,1,760.0383,0,0,27_11_2014 level23_spatial_F+V 10_30 Block7-35.txt,37,37,1203,47.0,-20.0,2014-11-27,False,colocated,left
114,1280.9055,0,460,1105,2857,4205,951,10.0,200,0,1,1281.8231,0,0,21_05_2015 level23_spatial_F+V 15_25 Block10-50.txt,37,37,1203,47.0,-20.0,2015-05-21,False,colocated,left
101,1366.2377,0,460,1105,2857,4205,901,10.0,200,0,0,1366.7289,1,0,01_05_2015 level23_spatial_F+V 11_01 Block10-20.txt,37,37,1203,47.0,-20.0,2015-05-01,False,colocated,left
15,155.8692,0,460,1105,2857,4205,901,10.0,200,0,0,156.3046,1,0,07_08_2014 level23_spatial_F+V 10_50 Block6-51.txt,37,37,1203,47.0,-20.0,2014-08-07,False,colocated,left
7,73.9089,0,460,1105,2857,4205,851,10.0,200,0,1,74.6716,0,0,01_05_2015 level23_spatial_F+V 11_01 Block10-20.txt,37,37,1203,47.0,-20.0,2015-05-01,False,colocated,left
81,787.9144,0,460,1105,2857,4205,601,10.0,200,0,1,788.6253,0,0,07_08_2014 level23_spatial_F+V 10_58 Block6-52.txt,37,37,1203,47.0,-20.0,2014-08-07,False,colocated,left
5,41.4707,0,460,1105,2857,4205,651,10.0,200,0,0,41.6874,1,0,10_12_2014 level23_spatial_F+V 15_48 Block7-51.txt,37,37,1203,47.0,-20.0,2014-12-10,False,colocated,left
27,300.7101,0,460,1105,2857,4205,901,10.0,200,0,1,301.0908,0,0,20_03_2015 level23_spatial_F+V 09_02 Block9-1.txt,37,37,1203,47.0,-20.0,2015-03-20,False,colocated,left
7,73.9089,0,460,1105,2857,4205,851,10.0,200,0,1,74.6716,0,0,01_05_2015 level23_spatial_F+V 11_01 Block10-20.txt,37,37,1203,47.0,-20.0,2015-05-01,False,colocated,left
27,333.5366,0,460,1105,2857,4205,701,10.0,200,0,0,334.4719,1,0,21_05_2015 level23_spatial_F+V 15_25 Block10-50.txt,37,37,1203,47.0,-20.0,2015-05-21,False,colocated,left
50,732.4313,0,460,1105,2857,4205,501,10.0,200,0,1,733.3444,0,0,14_10_2014 level23_spatial_F+V 11_14 Block7-3.txt,37,37,1203,47.0,-20.0,2014-10-14,False,colocated,left
28,463.247,0,460,1105,2857,4205,601,10.0,200,0,0,464.0406,1,0,30_10_2014 level23_spatial_F+V 15_27 Block7-18.txt,37,37,1203,47.0,-20.0,2014-10-30,False,colocated,left
67,944.5484,0,460,1105,2857,4205,801,10.0,200,0,0,946.1134,1,0,14_10_2014 level23_spatial_F+V 11_14 Block7-3.txt,37,37,1203,47.0,-20.0,2014-10-14,False,colocated,left
124,1402.097,0,460,1105,2857,4205,701,10.0,200,0,0,1402.5725,1,0,21_05_2015 level23_spatial_F+V 15_25 Block10-50.txt,37,37,1203,47.0,-20.0,2015-05-21,False,colocated,left
7,73.9089,0,460,1105,2857,4205,851,10.0,200,0,1,74.6716,0,0,01_05_2015 level23_spatial_F+V 11_01 Block10-20.txt,37,37,1203,47.0,-20.0,2015-05-01,False,colocated,left
96,1319.4478,0,730,2058,2857,4205,851,10.0,200,1,1,1320.4819,1,0,01_05_2015 level23_spatial_F+V 11_01 Block10-20.txt,37,37,1203,47.0,-20.0,2015-05-01,False,colocated,left
105,1019.4638,1,730,2058,2857,4205,1001,10.0,200,1,1,1020.1075,1,0,07_08_2014 level23_spatial_F+V 10_58 Block6-52.txt,37,37,1203,47.0,-20.0,2014-08-07,False,colocated,left
81,1224.2572,1,730,2058,2857,4205,751,10.0,200,1,1,1224.9033,1,0,02_02_2015 level23_spatial_F+V 15_29 Block8-22.txt,37,37,1203,47.0,-20.0,2015-02-02,False,colocated,left
37,333.0209,0,730,2058,2857,4205,701,10.0,200,1,1,333.8877,1,0,27_11_2014 level23_spatial_F+V 10_30 Block7-35.txt,37,37,1203,47.0,-20.0,2014-11-27,False,colocated,left
133,1667.3817,0,730,2058,2857,4205,501,10.0,200,1,1,1668.1833,1,0,30_04_2015 level23_spatial_F+V 09_28 Block10-18.txt,37,37,1203,47.0,-20.0,2015-04-30,False,colocated,left
64,588.7467,0,730,2058,2857,4205,751,10.0,200,1,1,589.4734,1,0,30_09_2014 level23_spatial_F+V 10_33 Block6-90.txt,37,37,1203,47.0,-20.0,2014-09-30,False,colocated,left
78,883.3998,0,730,2058,2857,4205,751,10.0,200,1,1,884.2992,1,0,01_05_2015 level23_spatial_F+V 11_01 Block10-20.txt,37,37,1203,47.0,-20.0,2015-05-01,False,colocated,left
16,170.898,0,730,2058,2857,4205,1001,10.0,200,1,1,172.5354,1,0,01_05_2015 level23_spatial_F+V 11_01 Block10-20.txt,37,37,1203,47.0,-20.0,2015-05-01,False,colocated,left
95,1300.3402,1,730,2058,2857,4205,701,10.0,200,1,1,1301.6394,1,0,14_10_2014 level23_spatial_F+V 11_14 Block7-3.txt,37,37,1203,47.0,-20.0,2014-10-14,False,colocated,left
96,1319.4478,0,730,2058,2857,4205,851,10.0,200,1,1,1320.4819,1,0,01_05_2015 level23_spatial_F+V 11_01 Block10-20.txt,37,37,1203,47.0,-20.0,2015-05-01,False,colocated,left
15,174.8427,0,730,2058,2857,4205,851,10.0,200,1,1,175.521,1,0,21_05_2015 level23_spatial_F+V 15_25 Block10-50.txt,37,37,1203,47.0,-20.0,2015-05-21,False,colocated,left
27,277.8369,1,730,2058,2857,4205,901,10.0,200,1,0,279.5832,0,0,01_04_2015 level23_spatial_F+V 14_59 Block9-8.txt,37,37,1203,47.0,-20.0,2015-04-01,False,colocated,left
57,633.4839,0,730,2058,2857,4205,801,10.0,200,1,1,634.407,1,0,01_04_2015 level23_spatial_F+V 09_00 Block9-7.txt,37,37,1203,47.0,-20.0,2015-04-01,False,colocated,left
16,170.898,0,730,2058,2857,4205,1001,10.0,200,1,1,172.5354,1,0,01_05_2015 level23_spatial_F+V 11_01 Block10-20.txt,37,37,1203,47.0,-20.0,2015-05-01,False,colocated,left
47,710.0437,0,730,2058,2857,4205,851,10.0,200,1,1,712.6739,1,0,02_02_2015 level23_spatial_F+V 15_29 Block8-22.txt,37,37,1203,47.0,-20.0,2015-02-02,False,colocated,left
20,160.1233,0,730,2058,2857,4205,801,10.0,200,1,1,160.8654,1,0,10_12_2014 level23_spatial_F+V 15_48 Block7-51.txt,37,37,1203,47.0,-20.0,2014-12-10,False,colocated,left
51,556.9069,0,730,2058,2857,4205,651,10.0,200,1,1,557.462,1,0,02_02_2015 level23_spatial_F+V 09_47 Block8-20.txt,37,37,1203,47.0,-20.0,2015-02-02,False,colocated,left
104,1226.9415,0,730,2058,2857,4205,851,10.0,200,1,0,1227.484,0,0,30_04_2015 level23_spatial_F+V 09_28 Block10-18.txt,37,37,1203,47.0,-20.0,2015-04-30,False,colocated,left
64,588.7467,0,730,2058,2857,4205,751,10.0,200,1,1,589.4734,1,0,30_09_2014 level23_spatial_F+V 10_33 Block6-90.txt,37,37,1203,47.0,-20.0,2014-09-30,False,colocated,left
13,157.7151,0,730,2058,2857,4205,801,10.0,200,1,1,158.1959,1,0,01_04_2015 level23_spatial_F+V 09_00 Block9-7.txt,37,37,1203,47.0,-20.0,2015-04-01,False,colocated,left
70,678.284,0,730,2058,2857,4205,1001,10.0,200,1,1,679.4096,1,0,01_04_2015 level23_spatial_F+V 14_59 Block9-8.txt,37,37,1203,47.0,-20.0,2015-04-01,False,colocated,left
11,103.5012,0,730,2058,2857,4205,701,10.0,200,1,0,104.1041,0,0,21_05_2015 level23_spatial_F+V 15_25 Block10-50.txt,37,37,1203,47.0,-20.0,2015-05-21,False,colocated,left
1,8.595,1,730,2058,2857,4205,801,10.0,200,1,1,9.6781,1,0,01_04_2015 level23_spatial_F+V 09_00 Block9-7.txt,37,37,1203,47.0,-20.0,2015-04-01,False,colocated,left
24,223.6724,1,730,2058,2857,4205,601,10.0,200,1,0,224.4148,0,0,09_01_2015 level23_spatial_F+V 10_03 Block7-73.txt,37,37,1203,47.0,-20.0,2015-01-09,False,colocated,left
132,1252.3817,1,730,2058,2857,4205,901,10.0,200,1,0,1252.8163,0,0,07_08_2014 level23_spatial_F+V 10_58 Block6-52.txt,37,37,1203,47.0,-20.0,2014-08-07,False,colocated,left
61,622.8431,0,730,2058,2857,4205,801,10.0,200,1,0,623.5852,0,0,09_01_2015 level23_spatial_F+V 10_03 Block7-73.txt,37,37,1203,47.0,-20.0,2015-01-09,False,colocated,left
82,947.1246,0,730,2058,2857,4205,901,10.0,200,1,0,947.5845,0,0,01_05_2015 level23_spatial_F+V 11_01 Block10-20.txt,37,37,1203,47.0,-20.0,2015-05-01,False,colocated,left
30,268.5532,0,730,2058,2857,4205,501,10.0,200,1,1,269.5909,1,0,30_09_2014 level23_spatial_F+V 10_33 Block6-90.txt,37,37,1203,47.0,-20.0,2014-09-30,False,colocated,left
27,277.8369,1,730,2058,2857,4205,901,10.0,200,1,0,279.5832,0,0,01_04_2015 level23_spatial_F+V 14_59 Block9-8.txt,37,37,1203,47.0,-20.0,2015-04-01,False,colocated,left
38,434.0772,0,730,2058,2857,4205,501,10.0,200,1,0,435.028,0,0,30_04_2015 level23_spatial_F+V 09_28 Block10-18.txt,37,37,1203,47.0,-20.0,2015-04-30,False,colocated,left
10,112.1612,0,730,2058,2857,4205,801,10.0,200,1,0,112.7652,0,0,07_08_2014 level23_spatial_F+V 10_58 Block6-52.txt,37,37,1203,47.0,-20.0,2014-08-07,False,colocated,left
11,103.5012,0,730,2058,2857,4205,701,10.0,200,1,0,104.1041,0,0,21_05_2015 level23_spatial_F+V 15_25 Block10-50.txt,37,37,1203,47.0,-20.0,2015-05-21,False,colocated,left
51,556.9069,0,730,2058,2857,4205,651,10.0,200,1,1,557.462,1,0,02_02_2015 level23_spatial_F+V 09_47 Block8-20.txt,37,37,1203,47.0,-20.0,2015-02-02,False,colocated,left
70,678.284,0,730,2058,2857,4205,1001,10.0,200,1,1,679.4096,1,0,01_04_2015 level23_spatial_F+V 14_59 Block9-8.txt,37,37,1203,47.0,-20.0,2015-04-01,False,colocated,left
61,622.8431,0,730,2058,2857,4205,801,10.0,200,1,0,623.5852,0,0,09_01_2015 level23_spatial_F+V 10_03 Block7-73.txt,37,37,1203,47.0,-20.0,2015-01-09,False,colocated,left
61,622.8431,0,730,2058,2857,4205,801,10.0,200,1,0,623.5852,0,0,09_01_2015 level23_spatial_F+V 10_03 Block7-73.txt,37,37,1203,47.0,-20.0,2015-01-09,False,colocated,left
2,13.198,0,730,2058,2857,4205,501,10.0,200,1,0,13.4813,0,0,21_05_2015 level23_spatial_F+V 09_38 Block10-49.txt,37,37,1203,47.0,-20.0,2015-05-21,False,colocated,left
101,1368.588,0,730,2058,2857,4205,651,10.0,200,1,0,1369.5466,0,0,14_10_2014 level23_spatial_F+V 11_14 Block7-3.txt,37,37,1203,47.0,-20.0,2014-10-14,False,colocated,left
23,176.3373,0,730,2058,2857,4205,951,10.0,200,1,0,176.5397,0,0,10_12_2014 level23_spatial_F+V 15_48 Block7-51.txt,37,37,1203,47.0,-20.0,2014-12-10,False,colocated,left
31,272.0163,0,730,2058,2857,4205,551,10.0,200,1,1,272.9325,1,0,30_09_2014 level23_spatial_F+V 10_33 Block6-90.txt,37,37,1203,47.0,-20.0,2014-09-30,False,colocated,left
70,745.3262,0,730,2058,2857,4205,501,10.0,200,1,1,745.9829,1,0,02_02_2015 level23_spatial_F+V 09_47 Block8-20.txt,37,37,1203,47.0,-20.0,2015-02-02,False,colocated,left
22,225.4608,0,730,2058,2857,4205,551,10.0,200,1,0,226.2999,0,0,01_04_2015 level23_spatial_F+V 14_59 Block9-8.txt,37,37,1203,47.0,-20.0,2015-04-01,False,colocated,left
47,710.0437,0,730,2058,2857,4205,851,10.0,200,1,1,712.6739,1,0,02_02_2015 level23_spatial_F+V 15_29 Block8-22.txt,37,37,1203,47.0,-20.0,2015-02-02,False,colocated,left
59,540.0188,0,730,2058,2857,4205,801,10.0,200,1,1,540.4006,1,0,30_09_2014 level23_spatial_F+V 10_33 Block6-90.txt,37,37,1203,47.0,-20.0,2014-09-30,False,colocated,left
100,1453.0068,0,730,2058,2857,4205,1001,10.0,200,1,1,1453.53,1,0,02_02_2015 level23_spatial_F+V 15_29 Block8-22.txt,37,37,1203,47.0,-20.0,2015-02-02,False,colocated,left
12,115.6758,0,730,2058,2857,4205,801,10.0,200,1,1,116.3219,1,0,27_11_2014 level23_spatial_F+V 10_30 Block7-35.txt,37,37,1203,47.0,-20.0,2014-11-27,False,colocated,left
23,176.3373,0,730,2058,2857,4205,951,10.0,200,1,0,176.5397,0,0,10_12_2014 level23_spatial_F+V 15_48 Block7-51.txt,37,37,1203,47.0,-20.0,2014-12-10,False,colocated,left
56,994.6182,0,730,2058,2857,4205,601,10.0,200,1,0,995.2806,0,0,30_10_2014 level23_spatial_F+V 15_27 Block7-18.txt,37,37,1203,47.0,-20.0,2014-10-30,False,colocated,left
56,994.6182,0,730,2058,2857,4205,601,10.0,200,1,0,995.2806,0,0,30_10_2014 level23_spatial_F+V 15_27 Block7-18.txt,37,37,1203,47.0,-20.0,2014-10-30,False,colocated,left
99,1430.2618,0,730,2058,2857,4205,501,10.0,200,1,1,1431.8348,1,0,02_02_2015 level23_spatial_F+V 15_29 Block8-22.txt,37,37,1203,47.0,-20.0,2015-02-02,False,colocated,left
19,204.5113,0,730,2058,2857,4205,951,10.0,200,1,1,205.0777,1,0,01_05_2015 level23_spatial_F+V 11_01 Block10-20.txt,37,37,1203,47.0,-20.0,2015-05-01,False,colocated,left
53,541.1244,0,730,2058,2857,4205,651,10.0,200,1,0,546.1764,0,0,09_01_2015 level23_spatial_F+V 10_03 Block7-73.txt,37,37,1203,47.0,-20.0,2015-01-09,False,colocated,left
95,1300.3402,1,730,2058,2857,4205,701,10.0,200,1,1,1301.6394,1,0,14_10_2014 level23_spatial_F+V 11_14 Block7-3.txt,37,37,1203,47.0,-20.0,2014-10-14,False,colocated,left
56,994.6182,0,730,2058,2857,4205,601,10.0,200,1,0,995.2806,0,0,30_10_2014 level23_spatial_F+V 15_27 Block7-18.txt,37,37,1203,47.0,-20.0,2014-10-30,False,colocated,left
26,227.9994,0,730,2058,2857,4205,551,10.0,200,1,1,228.3891,1,0,30_09_2014 level23_spatial_F+V 10_33 Block6-90.txt,37,37,1203,47.0,-20.0,2014-09-30,False,colocated,left
60,611.7272,0,730,2058,2857,4205,551,10.0,200,1,1,612.498,1,0,09_01_2015 level23_spatial_F+V 10_03 Block7-73.txt,37,37,1203,47.0,-20.0,2015-01-09,False,colocated,left
10,112.1612,0,730,2058,2857,4205,801,10.0,200,1,0,112.7652,0,0,07_08_2014 level23_spatial_F+V 10_58 Block6-52.txt,37,37,1203,47.0,-20.0,2014-08-07,False,colocated,left
93,1022.4216,1,730,2058,2857,4205,651,10.0,200,1,0,1022.7552,0,0,20_03_2015 level23_spatial_F+V 09_02 Block9-1.txt,37,37,1203,47.0,-20.0,2015-03-20,False,colocated,left
24,223.6724,1,730,2058,2857,4205,601,10.0,200,1,0,224.4148,0,0,09_01_2015 level23_spatial_F+V 10_03 Block7-73.txt,37,37,1203,47.0,-20.0,2015-01-09,False,colocated,left
47,472.3156,0,730,2058,2857,4205,1001,10.0,200,1,1,474.4765,1,0,01_04_2015 level23_spatial_F+V 14_59 Block9-8.txt,37,37,1203,47.0,-20.0,2015-04-01,False,colocated,left
70,745.3262,0,730,2058,2857,4205,501,10.0,200,1,1,745.9829,1,0,02_02_2015 level23_spatial_F+V 09_47 Block8-20.txt,37,37,1203,47.0,-20.0,2015-02-02,False,colocated,left
84,891.4489,0,730,2058,2857,4205,551,10.0,200,1,0,892.0731,0,0,02_02_2015 level23_spatial_F+V 09_47 Block8-20.txt,37,37,1203,47.0,-20.0,2015-02-02,False,colocated,left
48,520.0771,0,730,2058,2857,4205,551,10.0,200,1,0,520.5561,0,0,20_03_2015 level23_spatial_F+V 09_02 Block9-1.txt,37,37,1203,47.0,-20.0,2015-03-20,False,colocated,left
46,676.7252,0,730,2058,2857,4205,601,10.0,200,1,0,679.3221,0,0,14_10_2014 level23_spatial_F+V 11_14 Block7-3.txt,37,37,1203,47.0,-20.0,2014-10-14,False,colocated,left
41,548.1974,0,730,2058,2857,4205,901,10.0,200,1,0,549.6073,0,0,30_10_2014 level23_spatial_F+V 09_35 Block7-22.txt,37,37,1203,47.0,-20.0,2014-10-30,False,colocated,left
101,1368.588,0,730,2058,2857,4205,651,10.0,200,1,0,1369.5466,0,0,14_10_2014 level23_spatial_F+V 11_14 Block7-3.txt,37,37,1203,47.0,-20.0,2014-10-14,False,colocated,left
24,223.6724,1,730,2058,2857,4205,601,10.0,200,1,0,224.4148,0,0,09_01_2015 level23_spatial_F+V 10_03 Block7-73.txt,37,37,1203,47.0,-20.0,2015-01-09,False,colocated,left
38,434.0772,0,730,2058,2857,4205,501,10.0,200,1,0,435.028,0,0,30_04_2015 level23_spatial_F+V 09_28 Block10-18.txt,37,37,1203,47.0,-20.0,2015-04-30,False,colocated,left
100,1453.0068,0,730,2058,2857,4205,1001,10.0,200,1,1,1453.53,1,0,02_02_2015 level23_spatial_F+V 15_29 Block8-22.txt,37,37,1203,47.0,-20.0,2015-02-02,False,colocated,left
46,676.7252,0,730,2058,2857,4205,601,10.0,200,1,0,679.3221,0,0,14_10_2014 level23_spatial_F+V 11_14 Block7-3.txt,37,37,1203,47.0,-20.0,2014-10-14,False,colocated,left
33,450.3936,0,730,2058,2857,4205,701,10.0,200,1,1,451.8185,1,0,30_10_2014 level23_spatial_F+V 09_35 Block7-22.txt,37,37,1203,47.0,-20.0,2014-10-30,False,colocated,left
99,1430.2618,0,730,2058,2857,4205,501,10.0,200,1,1,1431.8348,1,0,02_02_2015 level23_spatial_F+V 15_29 Block8-22.txt,37,37,1203,47.0,-20.0,2015-02-02,False,colocated,left
69,699.103,0,730,2058,2857,4205,651,10.0,200,1,0,699.5404,0,0,09_01_2015 level23_spatial_F+V 10_03 Block7-73.txt,37,37,1203,47.0,-20.0,2015-01-09,False,colocated,left
31,490.3877,0,730,2058,2857,4205,951,10.0,200,1,1,505.9997,1,0,30_10_2014 level23_spatial_F+V 15_27 Block7-18.txt,37,37,1203,47.0,-20.0,2014-10-30,False,colocated,left
20,160.1233,0,730,2058,2857,4205,801,10.0,200,1,1,160.8654,1,0,10_12_2014 level23_spatial_F+V 15_48 Block7-51.txt,37,37,1203,47.0,-20.0,2014-12-10,False,colocated,left
20,231.0443,0,730,2058,2857,4205,751,10.0,200,1,1,231.7359,1,0,07_08_2014 level23_spatial_F+V 10_58 Block6-52.txt,37,37,1203,47.0,-20.0,2014-08-07,False,colocated,left
61,622.8431,0,730,2058,2857,4205,801,10.0,200,1,0,623.5852,0,0,09_01_2015 level23_spatial_F+V 10_03 Block7-73.txt,37,37,1203,47.0,-20.0,2015-01-09,False,colocated,left
59,583.4824,1,730,2058,2857,4205,501,10.0,200,1,0,584.3375,0,0,01_04_2015 level23_spatial_F+V 14_59 Block9-8.txt,37,37,1203,47.0,-20.0,2015-04-01,False,colocated,left
47,710.0437,0,730,2058,2857,4205,851,10.0,200,1,1,712.6739,1,0,02_02_2015 level23_spatial_F+V 15_29 Block8-22.txt,37,37,1203,47.0,-20.0,2015-02-02,False,colocated,left
24,281.9239,0,730,2058,2857,4205,601,10.0,200,1,1,286.5508,1,0,30_04_2015 level23_spatial_F+V 09_28 Block10-18.txt,37,37,1203,47.0,-20.0,2015-04-30,False,colocated,left
20,160.1233,0,730,2058,2857,4205,801,10.0,200,1,1,160.8654,1,0,10_12_2014 level23_spatial_F+V 15_48 Block7-51.txt,37,37,1203,47.0,-20.0,2014-12-10,False,colocated,left
30,268.5532,0,730,2058,2857,4205,501,10.0,200,1,1,269.5909,1,0,30_09_2014 level23_spatial_F+V 10_33 Block6-90.txt,37,37,1203,47.0,-20.0,2014-09-30,False,colocated,left
28,309.0085,0,730,2058,2857,4205,1001,10.0,200,1,1,309.4276,1,0,02_02_2015 level23_spatial_F+V 09_47 Block8-20.txt,37,37,1203,47.0,-20.0,2015-02-02,False,colocated,left
19,204.5113,0,730,2058,2857,4205,951,10.0,200,1,1,205.0777,1,0,01_05_2015 level23_spatial_F+V 11_01 Block10-20.txt,37,37,1203,47.0,-20.0,2015-05-01,False,colocated,left
2,11.5528,0,730,2058,2857,4205,551,10.0,200,1,1,12.0708,1,0,02_02_2015 level23_spatial_F+V 09_47 Block8-20.txt,37,37,1203,47.0,-20.0,2015-02-02,False,colocated,left
56,994.6182,0,730,2058,2857,4205,601,10.0,200,1,0,995.2806,0,0,30_10_2014 level23_spatial_F+V 15_27 Block7-18.txt,37,37,1203,47.0,-20.0,2014-10-30,False,colocated,left
52,637.9484,0,730,2058,2857,4205,601,10.0,200,1,0,638.4882,0,0,21_05_2015 level23_spatial_F+V 09_38 Block10-49.txt,37,37,1203,47.0,-20.0,2015-05-21,False,colocated,left
105,1415.0982,0,730,2058,2857,4205,651,10.0,200,1,0,1415.8132,0,0,01_05_2015 level23_spatial_F+V 11_01 Block10-20.txt,37,37,1203,47.0,-20.0,2015-05-01,False,colocated,left
11,103.5012,0,730,2058,2857,4205,701,10.0,200,1,0,104.1041,0,0,21_05_2015 level23_spatial_F+V 15_25 Block10-50.txt,37,37,1203,47.0,-20.0,2015-05-21,False,colocated,left
61,656.9152,0,730,2058,2857,4205,801,10.0,200,1,1,657.4533,1,0,02_02_2015 level23_spatial_F+V 09_47 Block8-20.txt,37,37,1203,47.0,-20.0,2015-02-02,False,colocated,left
51,556.9069,0,730,2058,2857,4205,651,10.0,200,1,1,557.462,1,0,02_02_2015 level23_spatial_F+V 09_47 Block8-20.txt,37,37,1203,47.0,-20.0,2015-02-02,False,colocated,left
30,342.7264,0,460,1105,2857,4205,951,10.0,200,0,0,342.9572,1,1,30_04_2015 level23_spatial_F+V 09_28 Block10-18.txt,37,37,1203,47.0,-20.0,2015-04-30,False,colocated,right
51,548.5054,1,460,1105,2857,4205,601,10.0,200,0,0,548.8315,1,1,20_03_2015 level23_spatial_F+V 09_02 Block9-1.txt,37,37,1203,47.0,-20.0,2015-03-20,False,colocated,right
78,825.6832,0,460,1105,2857,4205,501,10.0,200,0,0,826.2649,1,1,02_02_2015 level23_spatial_F+V 09_47 Block8-20.txt,37,37,1203,47.0,-20.0,2015-02-02,False,colocated,right
61,609.9026,0,460,1105,2857,4205,801,10.0,200,0,0,610.3333,1,1,01_04_2015 level23_spatial_F+V 14_59 Block9-8.txt,37,37,1203,47.0,-20.0,2015-04-01,False,colocated,right
51,548.5054,1,460,1105,2857,4205,601,10.0,200,0,0,548.8315,1,1,20_03_2015 level23_spatial_F+V 09_02 Block9-1.txt,37,37,1203,47.0,-20.0,2015-03-20,False,colocated,right
90,1074.1594,0,460,1105,2857,4205,551,10.0,200,0,0,1074.5717,1,1,30_04_2015 level23_spatial_F+V 09_28 Block10-18.txt,37,37,1203,47.0,-20.0,2015-04-30,False,colocated,right
68,616.269,0,460,1105,2857,4205,1001,10.0,200,0,0,616.64,1,1,27_11_2014 level23_spatial_F+V 10_30 Block7-35.txt,37,37,1203,47.0,-20.0,2014-11-27,False,colocated,right
53,958.3576,0,460,1105,2857,4205,751,10.0,200,0,0,959.2816,1,1,30_10_2014 level23_spatial_F+V 15_27 Block7-18.txt,37,37,1203,47.0,-20.0,2014-10-30,False,colocated,right
27,233.4587,0,460,1105,2857,4205,501,10.0,200,0,0,234.3062,1,1,27_11_2014 level23_spatial_F+V 10_30 Block7-35.txt,37,37,1203,47.0,-20.0,2014-11-27,False,colocated,right
104,1408.4663,0,460,1105,2857,4205,1001,10.0,200,0,0,1408.791,1,1,01_05_2015 level23_spatial_F+V 11_01 Block10-20.txt,37,37,1203,47.0,-20.0,2015-05-01,False,colocated,right
85,992.1674,0,460,1105,2857,4205,801,10.0,200,0,0,992.6307,1,1,21_05_2015 level23_spatial_F+V 15_25 Block10-50.txt,37,37,1203,47.0,-20.0,2015-05-21,False,colocated,right
23,273.344,0,460,1105,2857,4205,551,10.0,200,0,0,275.385,1,1,07_08_2014 level23_spatial_F+V 10_58 Block6-52.txt,37,37,1203,47.0,-20.0,2014-08-07,False,colocated,right
31,364.9756,0,460,1105,2857,4205,1001,10.0,200,0,0,365.269,1,1,30_04_2015 level23_spatial_F+V 09_28 Block10-18.txt,37,37,1203,47.0,-20.0,2015-04-30,False,colocated,right
17,157.1101,0,460,1105,2857,4205,901,10.0,200,0,1,157.409,0,1,27_11_2014 level23_spatial_F+V 10_30 Block7-35.txt,37,37,1203,47.0,-20.0,2014-11-27,False,colocated,right
35,359.0532,0,460,1105,2857,4205,901,10.0,200,0,0,359.5671,1,1,01_04_2015 level23_spatial_F+V 14_59 Block9-8.txt,37,37,1203,47.0,-20.0,2015-04-01,False,colocated,right
15,179.2677,0,460,1105,2857,4205,601,10.0,200,0,1,181.279,0,1,14_10_2014 level23_spatial_F+V 11_14 Block7-3.txt,37,37,1203,47.0,-20.0,2014-10-14,False,colocated,right
99,1349.422,0,460,1105,2857,4205,501,10.0,200,0,0,1350.5684,1,1,14_10_2014 level23_spatial_F+V 11_14 Block7-3.txt,37,37,1203,47.0,-20.0,2014-10-14,False,colocated,right
122,1373.9838,0,460,1105,2857,4205,601,10.0,200,0,0,1374.8314,1,1,21_05_2015 level23_spatial_F+V 15_25 Block10-50.txt,37,37,1203,47.0,-20.0,2015-05-21,False,colocated,right
29,355.1696,0,460,1105,2857,4205,751,10.0,200,0,0,355.5343,1,1,21_05_2015 level23_spatial_F+V 09_38 Block10-49.txt,37,37,1203,47.0,-20.0,2015-05-21,False,colocated,right
28,319.66,0,460,1105,2857,4205,851,10.0,200,0,0,320.8073,1,1,07_08_2014 level23_spatial_F+V 10_58 Block6-52.txt,37,37,1203,47.0,-20.0,2014-08-07,False,colocated,right
14,260.6085,0,460,1105,2857,4205,651,10.0,200,0,0,261.261,1,1,30_10_2014 level23_spatial_F+V 09_35 Block7-22.txt,37,37,1203,47.0,-20.0,2014-10-30,False,colocated,right
29,323.7227,0,460,1105,2857,4205,601,10.0,200,0,0,324.146,1,1,20_03_2015 level23_spatial_F+V 09_02 Block9-1.txt,37,37,1203,47.0,-20.0,2015-03-20,False,colocated,right
52,639.6842,1,460,1105,2857,4205,951,10.0,200,0,0,639.9702,1,1,21_05_2015 level23_spatial_F+V 15_25 Block10-50.txt,37,37,1203,47.0,-20.0,2015-05-21,False,colocated,right
2,18.5308,1,460,1105,2857,4205,651,10.0,200,0,1,19.1398,0,1,20_03_2015 level23_spatial_F+V 09_02 Block9-1.txt,37,37,1203,47.0,-20.0,2015-03-20,False,colocated,right
122,1373.9838,0,460,1105,2857,4205,601,10.0,200,0,0,1374.8314,1,1,21_05_2015 level23_spatial_F+V 15_25 Block10-50.txt,37,37,1203,47.0,-20.0,2015-05-21,False,colocated,right
32,523.9561,0,460,1105,2857,4205,651,10.0,200,0,1,525.2446,0,1,30_10_2014 level23_spatial_F+V 15_27 Block7-18.txt,37,37,1203,47.0,-20.0,2014-10-30,False,colocated,right
53,570.7977,0,460,1105,2857,4205,551,10.0,200,0,0,571.1293,1,1,07_08_2014 level23_spatial_F+V 10_58 Block6-52.txt,37,37,1203,47.0,-20.0,2014-08-07,False,colocated,right
99,946.7272,0,460,1105,2857,4205,951,10.0,200,0,0,948.3392,1,1,07_08_2014 level23_spatial_F+V 10_58 Block6-52.txt,37,37,1203,47.0,-20.0,2014-08-07,False,colocated,right
74,739.8556,1,460,1105,2857,4205,901,10.0,200,0,0,740.3328,1,1,09_01_2015 level23_spatial_F+V 10_03 Block7-73.txt,37,37,1203,47.0,-20.0,2015-01-09,False,colocated,right
15,181.4133,0,460,1105,2857,4205,551,10.0,200,0,0,181.8471,1,1,01_04_2015 level23_spatial_F+V 09_00 Block9-7.txt,37,37,1203,47.0,-20.0,2015-04-01,False,colocated,right
52,566.1696,0,460,1105,2857,4205,851,10.0,200,0,0,567.0042,1,1,02_02_2015 level23_spatial_F+V 09_47 Block8-20.txt,37,37,1203,47.0,-20.0,2015-02-02,False,colocated,right
53,958.3576,0,460,1105,2857,4205,751,10.0,200,0,0,959.2816,1,1,30_10_2014 level23_spatial_F+V 15_27 Block7-18.txt,37,37,1203,47.0,-20.0,2014-10-30,False,colocated,right
72,1098.6457,1,460,1105,2857,4205,951,10.0,200,0,0,1101.2715,1,1,02_02_2015 level23_spatial_F+V 15_29 Block8-22.txt,37,37,1203,47.0,-20.0,2015-02-02,False,colocated,right
22,343.2138,0,460,1105,2857,4205,601,10.0,200,0,0,343.8123,1,1,02_02_2015 level23_spatial_F+V 15_29 Block8-22.txt,37,37,1203,47.0,-20.0,2015-02-02,False,colocated,right
27,233.4587,0,460,1105,2857,4205,501,10.0,200,0,0,234.3062,1,1,27_11_2014 level23_spatial_F+V 10_30 Block7-35.txt,37,37,1203,47.0,-20.0,2014-11-27,False,colocated,right
36,365.4799,0,460,1105,2857,4205,601,10.0,200,0,0,366.6869,1,1,01_04_2015 level23_spatial_F+V 14_59 Block9-8.txt,37,37,1203,47.0,-20.0,2015-04-01,False,colocated,right
17,157.1101,0,460,1105,2857,4205,901,10.0,200,0,1,157.409,0,1,27_11_2014 level23_spatial_F+V 10_30 Block7-35.txt,37,37,1203,47.0,-20.0,2014-11-27,False,colocated,right
30,291.5574,0,460,1105,2857,4205,501,10.0,200,0,0,292.0779,1,1,09_01_2015 level23_spatial_F+V 10_03 Block7-73.txt,37,37,1203,47.0,-20.0,2015-01-09,False,colocated,right
82,1141.6057,0,460,1105,2857,4205,651,10.0,200,0,1,1143.7534,0,1,14_10_2014 level23_spatial_F+V 11_14 Block7-3.txt,37,37,1203,47.0,-20.0,2014-10-14,False,colocated,right
127,1619.9547,0,460,1105,2857,4205,1001,10.0,200,0,0,1620.4613,1,1,30_04_2015 level23_spatial_F+V 09_28 Block10-18.txt,37,37,1203,47.0,-20.0,2015-04-30,False,colocated,right
29,323.7227,0,460,1105,2857,4205,601,10.0,200,0,0,324.146,1,1,20_03_2015 level23_spatial_F+V 09_02 Block9-1.txt,37,37,1203,47.0,-20.0,2015-03-20,False,colocated,right
2,15.8213,0,460,1105,2857,4205,551,10.0,200,0,0,16.2073,1,1,02_02_2015 level23_spatial_F+V 15_29 Block8-22.txt,37,37,1203,47.0,-20.0,2015-02-02,False,colocated,right
85,992.1674,0,460,1105,2857,4205,801,10.0,200,0,0,992.6307,1,1,21_05_2015 level23_spatial_F+V 15_25 Block10-50.txt,37,37,1203,47.0,-20.0,2015-05-21,False,colocated,right
48,553.5298,0,460,1105,2857,4205,951,10.0,200,0,0,554.7782,1,1,01_05_2015 level23_spatial_F+V 11_01 Block10-20.txt,37,37,1203,47.0,-20.0,2015-05-01,False,colocated,right
29,355.1696,0,460,1105,2857,4205,751,10.0,200,0,0,355.5343,1,1,21_05_2015 level23_spatial_F+V 09_38 Block10-49.txt,37,37,1203,47.0,-20.0,2015-05-21,False,colocated,right
57,603.755,0,460,1105,2857,4205,851,10.0,200,0,0,604.1513,1,1,07_08_2014 level23_spatial_F+V 10_58 Block6-52.txt,37,37,1203,47.0,-20.0,2014-08-07,False,colocated,right
35,270.8494,0,460,1105,2857,4205,601,10.0,200,0,0,271.0865,1,1,10_12_2014 level23_spatial_F+V 15_48 Block7-51.txt,37,37,1203,47.0,-20.0,2014-12-10,False,colocated,right
115,1165.7208,1,460,1105,2857,4205,751,10.0,200,0,0,1166.2094,1,1,09_01_2015 level23_spatial_F+V 10_03 Block7-73.txt,37,37,1203,47.0,-20.0,2015-01-09,False,colocated,right
14,168.1248,0,460,1105,2857,4205,851,10.0,200,0,0,168.6727,1,1,02_02_2015 level23_spatial_F+V 09_47 Block8-20.txt,37,37,1203,47.0,-20.0,2015-02-02,False,colocated,right
127,1619.9547,0,460,1105,2857,4205,1001,10.0,200,0,0,1620.4613,1,1,30_04_2015 level23_spatial_F+V 09_28 Block10-18.txt,37,37,1203,47.0,-20.0,2015-04-30,False,colocated,right
68,616.269,0,460,1105,2857,4205,1001,10.0,200,0,0,616.64,1,1,27_11_2014 level23_spatial_F+V 10_30 Block7-35.txt,37,37,1203,47.0,-20.0,2014-11-27,False,colocated,right
21,224.5985,0,460,1105,2857,4205,851,10.0,200,0,0,224.8888,1,1,01_05_2015 level23_spatial_F+V 11_01 Block10-20.txt,37,37,1203,47.0,-20.0,2015-05-01,False,colocated,right
4,48.7931,0,460,1105,2857,4205,651,10.0,200,0,0,49.2657,1,1,09_01_2015 level23_spatial_F+V 10_03 Block7-73.txt,37,37,1203,47.0,-20.0,2015-01-09,False,colocated,right
17,157.1101,0,460,1105,2857,4205,901,10.0,200,0,1,157.409,0,1,27_11_2014 level23_spatial_F+V 10_30 Block7-35.txt,37,37,1203,47.0,-20.0,2014-11-27,False,colocated,right
31,364.9756,0,460,1105,2857,4205,1001,10.0,200,0,0,365.269,1,1,30_04_2015 level23_spatial_F+V 09_28 Block10-18.txt,37,37,1203,47.0,-20.0,2015-04-30,False,colocated,right
119,1137.297,0,460,1105,2857,4205,1001,10.0,200,0,0,1138.1869,1,1,07_08_2014 level23_spatial_F+V 10_58 Block6-52.txt,37,37,1203,47.0,-20.0,2014-08-07,False,colocated,right
78,825.6832,0,460,1105,2857,4205,501,10.0,200,0,0,826.2649,1,1,02_02_2015 level23_spatial_F+V 09_47 Block8-20.txt,37,37,1203,47.0,-20.0,2015-02-02,False,colocated,right
127,1445.3539,0,460,1105,2857,4205,551,10.0,200,0,0,1445.7396,1,1,21_05_2015 level23_spatial_F+V 15_25 Block10-50.txt,37,37,1203,47.0,-20.0,2015-05-21,False,colocated,right
67,684.8989,0,460,1105,2857,4205,951,10.0,200,0,0,687.0322,1,1,09_01_2015 level23_spatial_F+V 10_03 Block7-73.txt,37,37,1203,47.0,-20.0,2015-01-09,False,colocated,right
139,1734.4248,0,460,1105,2857,4205,951,10.0,200,0,0,1734.7348,1,1,30_04_2015 level23_spatial_F+V 09_28 Block10-18.txt,37,37,1203,47.0,-20.0,2015-04-30,False,colocated,right
31,364.9756,0,460,1105,2857,4205,1001,10.0,200,0,0,365.269,1,1,30_04_2015 level23_spatial_F+V 09_28 Block10-18.txt,37,37,1203,47.0,-20.0,2015-04-30,False,colocated,right
28,319.66,0,460,1105,2857,4205,851,10.0,200,0,0,320.8073,1,1,07_08_2014 level23_spatial_F+V 10_58 Block6-52.txt,37,37,1203,47.0,-20.0,2014-08-07,False,colocated,right
2,15.8213,0,460,1105,2857,4205,551,10.0,200,0,0,16.2073,1,1,02_02_2015 level23_spatial_F+V 15_29 Block8-22.txt,37,37,1203,47.0,-20.0,2015-02-02,False,colocated,right
139,1734.4248,0,460,1105,2857,4205,951,10.0,200,0,0,1734.7348,1,1,30_04_2015 level23_spatial_F+V 09_28 Block10-18.txt,37,37,1203,47.0,-20.0,2015-04-30,False,colocated,right
119,1137.297,0,460,1105,2857,4205,1001,10.0,200,0,0,1138.1869,1,1,07_08_2014 level23_spatial_F+V 10_58 Block6-52.txt,37,37,1203,47.0,-20.0,2014-08-07,False,colocated,right
72,1098.6457,1,460,1105,2857,4205,951,10.0,200,0,0,1101.2715,1,1,02_02_2015 level23_spatial_F+V 15_29 Block8-22.txt,37,37,1203,47.0,-20.0,2015-02-02,False,colocated,right
104,1408.4663,0,460,1105,2857,4205,1001,10.0,200,0,0,1408.791,1,1,01_05_2015 level23_spatial_F+V 11_01 Block10-20.txt,37,37,1203,47.0,-20.0,2015-05-01,False,colocated,right
69,778.5692,0,460,1105,2857,4205,551,10.0,200,0,0,779.384,1,1,01_05_2015 level23_spatial_F+V 11_01 Block10-20.txt,37,37,1203,47.0,-20.0,2015-05-01,False,colocated,right
53,958.3576,0,460,1105,2857,4205,751,10.0,200,0,0,959.2816,1,1,30_10_2014 level23_spatial_F+V 15_27 Block7-18.txt,37,37,1203,47.0,-20.0,2014-10-30,False,colocated,right
23,273.344,0,460,1105,2857,4205,551,10.0,200,0,0,275.385,1,1,07_08_2014 level23_spatial_F+V 10_58 Block6-52.txt,37,37,1203,47.0,-20.0,2014-08-07,False,colocated,right
36,365.4799,0,460,1105,2857,4205,601,10.0,200,0,0,366.6869,1,1,01_04_2015 level23_spatial_F+V 14_59 Block9-8.txt,37,37,1203,47.0,-20.0,2015-04-01,False,colocated,right
7,120.8808,0,460,1105,2857,4205,951,10.0,200,0,1,121.8788,0,1,30_10_2014 level23_spatial_F+V 15_27 Block7-18.txt,37,37,1203,47.0,-20.0,2014-10-30,False,colocated,right
35,345.1087,0,460,1105,2857,4205,651,10.0,200,0,0,345.4659,1,1,09_01_2015 level23_spatial_F+V 10_03 Block7-73.txt,37,37,1203,47.0,-20.0,2015-01-09,False,colocated,right
39,594.2598,0,460,1105,2857,4205,601,10.0,200,0,0,594.7822,1,1,14_10_2014 level23_spatial_F+V 11_14 Block7-3.txt,37,37,1203,47.0,-20.0,2014-10-14,False,colocated,right
119,1137.297,0,460,1105,2857,4205,1001,10.0,200,0,0,1138.1869,1,1,07_08_2014 level23_spatial_F+V 10_58 Block6-52.txt,37,37,1203,47.0,-20.0,2014-08-07,False,colocated,right
29,323.7227,0,460,1105,2857,4205,601,10.0,200,0,0,324.146,1,1,20_03_2015 level23_spatial_F+V 09_02 Block9-1.txt,37,37,1203,47.0,-20.0,2015-03-20,False,colocated,right
4,48.7931,0,460,1105,2857,4205,651,10.0,200,0,0,49.2657,1,1,09_01_2015 level23_spatial_F+V 10_03 Block7-73.txt,37,37,1203,47.0,-20.0,2015-01-09,False,colocated,right
27,233.4587,0,460,1105,2857,4205,501,10.0,200,0,0,234.3062,1,1,27_11_2014 level23_spatial_F+V 10_30 Block7-35.txt,37,37,1203,47.0,-20.0,2014-11-27,False,colocated,right
14,168.1248,0,460,1105,2857,4205,851,10.0,200,0,0,168.6727,1,1,02_02_2015 level23_spatial_F+V 09_47 Block8-20.txt,37,37,1203,47.0,-20.0,2015-02-02,False,colocated,right
67,684.8989,0,460,1105,2857,4205,951,10.0,200,0,0,687.0322,1,1,09_01_2015 level23_spatial_F+V 10_03 Block7-73.txt,37,37,1203,47.0,-20.0,2015-01-09,False,colocated,right
36,365.4799,0,460,1105,2857,4205,601,10.0,200,0,0,366.6869,1,1,01_04_2015 level23_spatial_F+V 14_59 Block9-8.txt,37,37,1203,47.0,-20.0,2015-04-01,False,colocated,right
69,631.2721,0,460,1105,2857,4205,501,10.0,200,0,1,632.1616,0,1,30_09_2014 level23_spatial_F+V 10_33 Block6-90.txt,37,37,1203,47.0,-20.0,2014-09-30,False,colocated,right
20,168.454,0,460,1105,2857,4205,601,10.0,200,0,1,169.1507,0,1,30_09_2014 level23_spatial_F+V 10_33 Block6-90.txt,37,37,1203,47.0,-20.0,2014-09-30,False,colocated,right
2,18.5308,1,460,1105,2857,4205,651,10.0,200,0,1,19.1398,0,1,20_03_2015 level23_spatial_F+V 09_02 Block9-1.txt,37,37,1203,47.0,-20.0,2015-03-20,False,colocated,right
10,97.2849,0,460,1105,2857,4205,751,10.0,200,0,0,97.8039,1,1,01_05_2015 level23_spatial_F+V 11_01 Block10-20.txt,37,37,1203,47.0,-20.0,2015-05-01,False,colocated,right
32,523.9561,0,460,1105,2857,4205,651,10.0,200,0,1,525.2446,0,1,30_10_2014 level23_spatial_F+V 15_27 Block7-18.txt,37,37,1203,47.0,-20.0,2014-10-30,False,colocated,right
14,260.6085,0,460,1105,2857,4205,651,10.0,200,0,0,261.261,1,1,30_10_2014 level23_spatial_F+V 09_35 Block7-22.txt,37,37,1203,47.0,-20.0,2014-10-30,False,colocated,right
17,190.4589,0,460,1105,2857,4205,501,10.0,200,0,1,197.982,0,1,07_08_2014 level23_spatial_F+V 10_58 Block6-52.txt,37,37,1203,47.0,-20.0,2014-08-07,False,colocated,right
22,170.7452,0,460,1105,2857,4205,651,10.0,200,0,0,171.1225,1,1,10_12_2014 level23_spatial_F+V 15_48 Block7-51.txt,37,37,1203,47.0,-20.0,2014-12-10,False,colocated,right
122,1373.9838,0,460,1105,2857,4205,601,10.0,200,0,0,1374.8314,1,1,21_05_2015 level23_spatial_F+V 15_25 Block10-50.txt,37,37,1203,47.0,-20.0,2015-05-21,False,colocated,right
104,1408.4663,0,460,1105,2857,4205,1001,10.0,200,0,0,1408.791,1,1,01_05_2015 level23_spatial_F+V 11_01 Block10-20.txt,37,37,1203,47.0,-20.0,2015-05-01,False,colocated,right
37,404.1747,0,730,2058,2857,4205,951,10.0,200,1,1,408.0801,1,1,07_08_2014 level23_spatial_F+V 10_58 Block6-52.txt,37,37,1203,47.0,-20.0,2014-08-07,False,colocated,right
38,377.8456,0,730,2058,2857,4205,551,10.0,200,1,0,378.9781,0,1,01_04_2015 level23_spatial_F+V 14_59 Block9-8.txt,37,37,1203,47.0,-20.0,2015-04-01,False,colocated,right
81,790.8187,0,730,2058,2857,4205,951,10.0,200,1,0,791.3406,0,1,01_04_2015 level23_spatial_F+V 14_59 Block9-8.txt,37,37,1203,47.0,-20.0,2015-04-01,False,colocated,right
58,666.4513,0,730,2058,2857,4205,601,10.0,200,1,0,666.9257,0,1,30_04_2015 level23_spatial_F+V 09_28 Block10-18.txt,37,37,1203,47.0,-20.0,2015-04-30,False,colocated,right
33,476.7096,0,730,2058,2857,4205,551,10.0,200,1,0,477.9534,0,1,02_02_2015 level23_spatial_F+V 15_29 Block8-22.txt,37,37,1203,47.0,-20.0,2015-02-02,False,colocated,right
128,1451.3286,0,730,2058,2857,4205,701,10.0,200,1,0,1451.6755,0,1,21_05_2015 level23_spatial_F+V 15_25 Block10-50.txt,37,37,1203,47.0,-20.0,2015-05-21,False,colocated,right
97,1408.3544,0,730,2058,2857,4205,751,10.0,200,1,0,1408.8731,0,1,02_02_2015 level23_spatial_F+V 15_29 Block8-22.txt,37,37,1203,47.0,-20.0,2015-02-02,False,colocated,right
29,296.6257,0,730,2058,2857,4205,1001,10.0,200,1,0,297.2343,0,1,01_04_2015 level23_spatial_F+V 14_59 Block9-8.txt,37,37,1203,47.0,-20.0,2015-04-01,False,colocated,right
57,576.9065,1,730,2058,2857,4205,901,10.0,200,1,0,577.2089,0,1,09_01_2015 level23_spatial_F+V 10_03 Block7-73.txt,37,37,1203,47.0,-20.0,2015-01-09,False,colocated,right
85,751.3416,0,730,2058,2857,4205,601,10.0,200,1,1,752.5584,1,1,27_11_2014 level23_spatial_F+V 10_30 Block7-35.txt,37,37,1203,47.0,-20.0,2014-11-27,False,colocated,right
22,252.7898,0,730,2058,2857,4205,701,10.0,200,1,0,253.2948,0,1,02_02_2015 level23_spatial_F+V 09_47 Block8-20.txt,37,37,1203,47.0,-20.0,2015-02-02,False,colocated,right
134,1267.1462,0,730,2058,2857,4205,501,10.0,200,1,0,1268.1861,0,1,07_08_2014 level23_spatial_F+V 10_58 Block6-52.txt,37,37,1203,47.0,-20.0,2014-08-07,False,colocated,right
4,39.9712,0,730,2058,2857,4205,851,10.0,200,1,0,40.4686,0,1,01_04_2015 level23_spatial_F+V 09_00 Block9-7.txt,37,37,1203,47.0,-20.0,2015-04-01,False,colocated,right
97,1408.3544,0,730,2058,2857,4205,751,10.0,200,1,0,1408.8731,0,1,02_02_2015 level23_spatial_F+V 15_29 Block8-22.txt,37,37,1203,47.0,-20.0,2015-02-02,False,colocated,right
11,185.497,0,730,2058,2857,4205,501,10.0,200,1,0,186.0953,0,1,30_10_2014 level23_spatial_F+V 15_27 Block7-18.txt,37,37,1203,47.0,-20.0,2014-10-30,False,colocated,right
38,377.8456,0,730,2058,2857,4205,551,10.0,200,1,0,378.9781,0,1,01_04_2015 level23_spatial_F+V 14_59 Block9-8.txt,37,37,1203,47.0,-20.0,2015-04-01,False,colocated,right
62,769.8726,0,730,2058,2857,4205,551,10.0,200,1,1,771.548,1,1,21_05_2015 level23_spatial_F+V 09_38 Block10-49.txt,37,37,1203,47.0,-20.0,2015-05-21,False,colocated,right
103,998.3654,0,730,2058,2857,4205,951,10.0,200,1,0,998.8525,0,1,09_01_2015 level23_spatial_F+V 10_03 Block7-73.txt,37,37,1203,47.0,-20.0,2015-01-09,False,colocated,right
42,458.3522,0,730,2058,2857,4205,901,10.0,200,1,0,458.9886,0,1,01_05_2015 level23_spatial_F+V 11_01 Block10-20.txt,37,37,1203,47.0,-20.0,2015-05-01,False,colocated,right
130,1470.4997,0,730,2058,2857,4205,751,10.0,200,1,0,1471.1425,0,1,21_05_2015 level23_spatial_F+V 15_25 Block10-50.txt,37,37,1203,47.0,-20.0,2015-05-21,False,colocated,right
66,752.197,0,730,2058,2857,4205,901,10.0,200,1,0,755.0897,0,1,30_04_2015 level23_spatial_F+V 09_28 Block10-18.txt,37,37,1203,47.0,-20.0,2015-04-30,False,colocated,right
79,909.8691,0,730,2058,2857,4205,1001,10.0,200,1,0,910.2547,0,1,01_05_2015 level23_spatial_F+V 11_01 Block10-20.txt,37,37,1203,47.0,-20.0,2015-05-01,False,colocated,right
53,541.5483,0,730,2058,2857,4205,1001,10.0,200,1,1,541.7634,1,1,10_12_2014 level23_spatial_F+V 15_48 Block7-51.txt,37,37,1203,47.0,-20.0,2014-12-10,False,colocated,right
1,4.6702,0,730,2058,2857,4205,851,10.0,200,1,1,5.034,1,1,07_08_2014 level23_spatial_F+V 10_50 Block6-51.txt,37,37,1203,47.0,-20.0,2014-08-07,False,colocated,right
128,1451.3286,0,730,2058,2857,4205,701,10.0,200,1,0,1451.6755,0,1,21_05_2015 level23_spatial_F+V 15_25 Block10-50.txt,37,37,1203,47.0,-20.0,2015-05-21,False,colocated,right
19,175.8208,0,730,2058,2857,4205,701,10.0,200,1,0,176.3152,0,1,09_01_2015 level23_spatial_F+V 10_03 Block7-73.txt,37,37,1203,47.0,-20.0,2015-01-09,False,colocated,right
128,1451.3286,0,730,2058,2857,4205,701,10.0,200,1,0,1451.6755,0,1,21_05_2015 level23_spatial_F+V 15_25 Block10-50.txt,37,37,1203,47.0,-20.0,2015-05-21,False,colocated,right
29,296.6257,0,730,2058,2857,4205,1001,10.0,200,1,0,297.2343,0,1,01_04_2015 level23_spatial_F+V 14_59 Block9-8.txt,37,37,1203,47.0,-20.0,2015-04-01,False,colocated,right
102,1128.2844,0,730,2058,2857,4205,951,10.0,200,1,0,1128.7373,0,1,21_05_2015 level23_spatial_F+V 15_25 Block10-50.txt,37,37,1203,47.0,-20.0,2015-05-21,False,colocated,right
55,619.7374,1,730,2058,2857,4205,551,10.0,200,1,0,620.1938,0,1,30_04_2015 level23_spatial_F+V 09_28 Block10-18.txt,37,37,1203,47.0,-20.0,2015-04-30,False,colocated,right
37,613.1667,0,730,2058,2857,4205,701,10.0,200,1,1,614.2563,1,1,30_10_2014 level23_spatial_F+V 15_27 Block7-18.txt,37,37,1203,47.0,-20.0,2014-10-30,False,colocated,right
33,326.5876,0,730,2058,2857,4205,601,10.0,200,1,0,327.8733,0,1,07_08_2014 level23_spatial_F+V 10_50 Block6-51.txt,37,37,1203,47.0,-20.0,2014-08-07,False,colocated,right
9,73.2842,0,730,2058,2857,4205,801,10.0,200,1,0,74.2933,0,1,30_09_2014 level23_spatial_F+V 10_33 Block6-90.txt,37,37,1203,47.0,-20.0,2014-09-30,False,colocated,right
50,550.9057,0,730,2058,2857,4205,751,10.0,200,1,0,551.7125,0,1,07_08_2014 level23_spatial_F+V 10_58 Block6-52.txt,37,37,1203,47.0,-20.0,2014-08-07,False,colocated,right
6,74.403,0,730,2058,2857,4205,501,10.0,200,1,0,74.8017,0,1,30_04_2015 level23_spatial_F+V 09_28 Block10-18.txt,37,37,1203,47.0,-20.0,2015-04-30,False,colocated,right
37,404.1747,0,730,2058,2857,4205,951,10.0,200,1,1,408.0801,1,1,07_08_2014 level23_spatial_F+V 10_58 Block6-52.txt,37,37,1203,47.0,-20.0,2014-08-07,False,colocated,right
42,458.3522,0,730,2058,2857,4205,901,10.0,200,1,0,458.9886,0,1,01_05_2015 level23_spatial_F+V 11_01 Block10-20.txt,37,37,1203,47.0,-20.0,2015-05-01,False,colocated,right
3,17.2559,0,730,2058,2857,4205,651,10.0,200,1,0,17.6372,0,1,02_02_2015 level23_spatial_F+V 09_47 Block8-20.txt,37,37,1203,47.0,-20.0,2015-02-02,False,colocated,right
33,476.7096,0,730,2058,2857,4205,551,10.0,200,1,0,477.9534,0,1,02_02_2015 level23_spatial_F+V 15_29 Block8-22.txt,37,37,1203,47.0,-20.0,2015-02-02,False,colocated,right
84,809.7572,0,730,2058,2857,4205,551,10.0,200,1,0,810.019,0,1,07_08_2014 level23_spatial_F+V 10_58 Block6-52.txt,37,37,1203,47.0,-20.0,2014-08-07,False,colocated,right
70,739.9872,0,730,2058,2857,4205,751,10.0,200,1,0,740.5568,0,1,20_03_2015 level23_spatial_F+V 09_02 Block9-1.txt,37,37,1203,47.0,-20.0,2015-03-20,False,colocated,right
103,998.3654,0,730,2058,2857,4205,951,10.0,200,1,0,998.8525,0,1,09_01_2015 level23_spatial_F+V 10_03 Block7-73.txt,37,37,1203,47.0,-20.0,2015-01-09,False,colocated,right
54,974.585,0,730,2058,2857,4205,651,10.0,200,1,0,975.2385,0,1,30_10_2014 level23_spatial_F+V 15_27 Block7-18.txt,37,37,1203,47.0,-20.0,2014-10-30,False,colocated,right
37,404.1747,0,730,2058,2857,4205,951,10.0,200,1,1,408.0801,1,1,07_08_2014 level23_spatial_F+V 10_58 Block6-52.txt,37,37,1203,47.0,-20.0,2014-08-07,False,colocated,right
54,974.585,0,730,2058,2857,4205,651,10.0,200,1,0,975.2385,0,1,30_10_2014 level23_spatial_F+V 15_27 Block7-18.txt,37,37,1203,47.0,-20.0,2014-10-30,False,colocated,right
40,605.4415,0,730,2058,2857,4205,551,10.0,200,1,1,607.5395,1,1,14_10_2014 level23_spatial_F+V 11_14 Block7-3.txt,37,37,1203,47.0,-20.0,2014-10-14,False,colocated,right
1,4.6702,0,730,2058,2857,4205,851,10.0,200,1,1,5.034,1,1,07_08_2014 level23_spatial_F+V 10_50 Block6-51.txt,37,37,1203,47.0,-20.0,2014-08-07,False,colocated,right
39,395.931,0,730,2058,2857,4205,801,10.0,200,1,1,396.3587,1,1,09_01_2015 level23_spatial_F+V 10_03 Block7-73.txt,37,37,1203,47.0,-20.0,2015-01-09,False,colocated,right
41,322.7582,0,730,2058,2857,4205,951,10.0,200,1,0,323.5244,0,1,10_12_2014 level23_spatial_F+V 15_48 Block7-51.txt,37,37,1203,47.0,-20.0,2014-12-10,False,colocated,right
10,105.8779,0,730,2058,2857,4205,1001,10.0,200,1,0,106.2187,0,1,02_02_2015 level23_spatial_F+V 15_29 Block8-22.txt,37,37,1203,47.0,-20.0,2015-02-02,False,colocated,right
38,377.8456,0,730,2058,2857,4205,551,10.0,200,1,0,378.9781,0,1,01_04_2015 level23_spatial_F+V 14_59 Block9-8.txt,37,37,1203,47.0,-20.0,2015-04-01,False,colocated,right
97,1408.3544,0,730,2058,2857,4205,751,10.0,200,1,0,1408.8731,0,1,02_02_2015 level23_spatial_F+V 15_29 Block8-22.txt,37,37,1203,47.0,-20.0,2015-02-02,False,colocated,right
47,426.9953,0,730,2058,2857,4205,1001,10.0,200,1,1,427.3324,1,1,27_11_2014 level23_spatial_F+V 10_30 Block7-35.txt,37,37,1203,47.0,-20.0,2014-11-27,False,colocated,right
2,13.9906,1,730,2058,2857,4205,501,10.0,200,1,0,15.7517,0,1,07_08_2014 level23_spatial_F+V 10_50 Block6-51.txt,37,37,1203,47.0,-20.0,2014-08-07,False,colocated,right
107,1435.3403,0,730,2058,2857,4205,601,10.0,200,1,0,1435.9493,0,1,01_05_2015 level23_spatial_F+V 11_01 Block10-20.txt,37,37,1203,47.0,-20.0,2015-05-01,False,colocated,right
22,343.8409,0,730,2058,2857,4205,801,10.0,200,1,0,344.995,0,1,30_10_2014 level23_spatial_F+V 09_35 Block7-22.txt,37,37,1203,47.0,-20.0,2014-10-30,False,colocated,right
1,4.6702,0,730,2058,2857,4205,851,10.0,200,1,1,5.034,1,1,07_08_2014 level23_spatial_F+V 10_50 Block6-51.txt,37,37,1203,47.0,-20.0,2014-08-07,False,colocated,right
81,806.4123,0,730,2058,2857,4205,951,10.0,200,1,0,807.3315,0,1,09_01_2015 level23_spatial_F+V 10_03 Block7-73.txt,37,37,1203,47.0,-20.0,2015-01-09,False,colocated,right
52,796.1618,0,730,2058,2857,4205,951,10.0,200,1,1,796.6549,1,1,02_02_2015 level23_spatial_F+V 15_29 Block8-22.txt,37,37,1203,47.0,-20.0,2015-02-02,False,colocated,right
50,550.9057,0,730,2058,2857,4205,751,10.0,200,1,0,551.7125,0,1,07_08_2014 level23_spatial_F+V 10_58 Block6-52.txt,37,37,1203,47.0,-20.0,2014-08-07,False,colocated,right
6,74.403,0,730,2058,2857,4205,501,10.0,200,1,0,74.8017,0,1,30_04_2015 level23_spatial_F+V 09_28 Block10-18.txt,37,37,1203,47.0,-20.0,2015-04-30,False,colocated,right
85,751.3416,0,730,2058,2857,4205,601,10.0,200,1,1,752.5584,1,1,27_11_2014 level23_spatial_F+V 10_30 Block7-35.txt,37,37,1203,47.0,-20.0,2014-11-27,False,colocated,right
14,113.0945,0,730,2058,2857,4205,501,10.0,200,1,1,114.2632,1,1,30_09_2014 level23_spatial_F+V 10_33 Block6-90.txt,37,37,1203,47.0,-20.0,2014-09-30,False,colocated,right
64,686.1,0,730,2058,2857,4205,551,10.0,200,1,0,687.2058,0,1,02_02_2015 level23_spatial_F+V 09_47 Block8-20.txt,37,37,1203,47.0,-20.0,2015-02-02,False,colocated,right
2,12.3204,0,730,2058,2857,4205,901,10.0,200,1,0,12.8265,0,1,01_05_2015 level23_spatial_F+V 11_01 Block10-20.txt,37,37,1203,47.0,-20.0,2015-05-01,False,colocated,right
47,426.9953,0,730,2058,2857,4205,1001,10.0,200,1,1,427.3324,1,1,27_11_2014 level23_spatial_F+V 10_30 Block7-35.txt,37,37,1203,47.0,-20.0,2014-11-27,False,colocated,right
22,252.7898,0,730,2058,2857,4205,701,10.0,200,1,0,253.2948,0,1,02_02_2015 level23_spatial_F+V 09_47 Block8-20.txt,37,37,1203,47.0,-20.0,2015-02-02,False,colocated,right
12,138.8526,0,730,2058,2857,4205,951,10.0,200,1,1,139.6218,1,1,14_10_2014 level23_spatial_F+V 11_14 Block7-3.txt,37,37,1203,47.0,-20.0,2014-10-14,False,colocated,right
1,7.7465,0,730,2058,2857,4205,501,10.0,200,1,0,8.6219,0,1,10_12_2014 level23_spatial_F+V 15_48 Block7-51.txt,37,37,1203,47.0,-20.0,2014-12-10,False,colocated,right
4,39.9712,0,730,2058,2857,4205,851,10.0,200,1,0,40.4686,0,1,01_04_2015 level23_spatial_F+V 09_00 Block9-7.txt,37,37,1203,47.0,-20.0,2015-04-01,False,colocated,right
55,619.7374,1,730,2058,2857,4205,551,10.0,200,1,0,620.1938,0,1,30_04_2015 level23_spatial_F+V 09_28 Block10-18.txt,37,37,1203,47.0,-20.0,2015-04-30,False,colocated,right
33,348.7841,0,730,2058,2857,4205,601,10.0,200,1,1,349.7336,1,1,01_05_2015 level23_spatial_F+V 11_01 Block10-20.txt,37,37,1203,47.0,-20.0,2015-05-01,False,colocated,right
108,1181.0094,0,730,2058,2857,4205,851,10.0,200,1,0,1181.2232,0,1,20_03_2015 level23_spatial_F+V 09_02 Block9-1.txt,37,37,1203,47.0,-20.0,2015-03-20,False,colocated,right
54,974.585,0,730,2058,2857,4205,651,10.0,200,1,0,975.2385,0,1,30_10_2014 level23_spatial_F+V 15_27 Block7-18.txt,37,37,1203,47.0,-20.0,2014-10-30,False,colocated,right
53,541.5483,0,730,2058,2857,4205,1001,10.0,200,1,1,541.7634,1,1,10_12_2014 level23_spatial_F+V 15_48 Block7-51.txt,37,37,1203,47.0,-20.0,2014-12-10,False,colocated,right
63,772.4826,0,730,2058,2857,4205,851,10.0,200,1,0,772.7975,0,1,21_05_2015 level23_spatial_F+V 15_25 Block10-50.txt,37,37,1203,47.0,-20.0,2015-05-21,False,colocated,right
74,932.3677,0,730,2058,2857,4205,601,10.0,200,1,0,932.8071,0,1,21_05_2015 level23_spatial_F+V 09_38 Block10-49.txt,37,37,1203,47.0,-20.0,2015-05-21,False,colocated,right
41,322.7582,0,730,2058,2857,4205,951,10.0,200,1,0,323.5244,0,1,10_12_2014 level23_spatial_F+V 15_48 Block7-51.txt,37,37,1203,47.0,-20.0,2014-12-10,False,colocated,right
97,947.1121,0,730,2058,2857,4205,501,10.0,200,1,1,948.2306,1,1,01_04_2015 level23_spatial_F+V 14_59 Block9-8.txt,37,37,1203,47.0,-20.0,2015-04-01,False,colocated,right
17,164.6883,0,730,2058,2857,4205,851,10.0,200,1,0,165.4492,0,1,20_03_2015 level23_spatial_F+V 09_02 Block9-1.txt,37,37,1203,47.0,-20.0,2015-03-20,False,colocated,right
40,605.4415,0,730,2058,2857,4205,551,10.0,200,1,1,607.5395,1,1,14_10_2014 level23_spatial_F+V 11_14 Block7-3.txt,37,37,1203,47.0,-20.0,2014-10-14,False,colocated,right
66,752.197,0,730,2058,2857,4205,901,10.0,200,1,0,755.0897,0,1,30_04_2015 level23_spatial_F+V 09_28 Block10-18.txt,37,37,1203,47.0,-20.0,2015-04-30,False,colocated,right
100,1172.4412,0,730,2058,2857,4205,1001,10.0,200,1,0,1176.355,0,1,30_04_2015 level23_spatial_F+V 09_28 Block10-18.txt,37,37,1203,47.0,-20.0,2015-04-30,False,colocated,right
9,73.2842,0,730,2058,2857,4205,801,10.0,200,1,0,74.2933,0,1,30_09_2014 level23_spatial_F+V 10_33 Block6-90.txt,37,37,1203,47.0,-20.0,2014-09-30,False,colocated,right
33,476.7096,0,730,2058,2857,4205,551,10.0,200,1,0,477.9534,0,1,02_02_2015 level23_spatial_F+V 15_29 Block8-22.txt,37,37,1203,47.0,-20.0,2015-02-02,False,colocated,right
4,39.9712,0,730,2058,2857,4205,851,10.0,200,1,0,40.4686,0,1,01_04_2015 level23_spatial_F+V 09_00 Block9-7.txt,37,37,1203,47.0,-20.0,2015-04-01,False,colocated,right
12,138.8526,0,730,2058,2857,4205,951,10.0,200,1,1,139.6218,1,1,14_10_2014 level23_spatial_F+V 11_14 Block7-3.txt,37,37,1203,47.0,-20.0,2014-10-14,False,colocated,right
2,13.9906,1,730,2058,2857,4205,501,10.0,200,1,0,15.7517,0,1,07_08_2014 level23_spatial_F+V 10_50 Block6-51.txt,37,37,1203,47.0,-20.0,2014-08-07,False,colocated,right
84,809.7572,0,730,2058,2857,4205,551,10.0,200,1,0,810.019,0,1,07_08_2014 level23_spatial_F+V 10_58 Block6-52.txt,37,37,1203,47.0,-20.0,2014-08-07,False,colocated,right
38,347.3432,0,730,2058,2857,4205,951,10.0,200,1,0,348.4316,0,1,27_11_2014 level23_spatial_F+V 10_30 Block7-35.txt,37,37,1203,47.0,-20.0,2014-11-27,False,colocated,right
65,1009.2958,0,730,2058,2857,4205,551,10.0,200,1,0,1010.0163,0,1,02_02_2015 level23_spatial_F+V 15_29 Block8-22.txt,37,37,1203,47.0,-20.0,2015-02-02,False,colocated,right
124,1102.0824,0,460,1105,2857,4205,551,0.0,200,0,0,1102.5457,1,0,10_07_2014 level23_spatial_F+V 10_40 Block6-23.txt,37,37,1203,57.0,-10.0,2014-07-10,False,colocated,left
98,999.833,0,460,1105,2857,4205,551,0.0,200,0,1,1000.8587,0,0,16_07_2014 level23_spatial_F+V 15_27 Block6-32.txt,37,37,1203,57.0,-10.0,2014-07-16,False,colocated,left
81,763.2955,0,460,1105,2857,4205,601,0.0,200,0,0,764.0641,1,0,10_07_2014 level23_spatial_F+V 10_40 Block6-23.txt,37,37,1203,57.0,-10.0,2014-07-10,False,colocated,left
169,1444.7234,0,460,1105,2857,4205,951,0.0,200,0,0,1445.2421,1,0,10_07_2014 level23_spatial_F+V 10_40 Block6-23.txt,37,37,1203,57.0,-10.0,2014-07-10,False,colocated,left
81,763.2955,0,460,1105,2857,4205,601,0.0,200,0,0,764.0641,1,0,10_07_2014 level23_spatial_F+V 10_40 Block6-23.txt,37,37,1203,57.0,-10.0,2014-07-10,False,colocated,left
81,763.2955,0,460,1105,2857,4205,601,0.0,200,0,0,764.0641,1,0,10_07_2014 level23_spatial_F+V 10_40 Block6-23.txt,37,37,1203,57.0,-10.0,2014-07-10,False,colocated,left
81,763.2955,0,460,1105,2857,4205,601,0.0,200,0,0,764.0641,1,0,10_07_2014 level23_spatial_F+V 10_40 Block6-23.txt,37,37,1203,57.0,-10.0,2014-07-10,False,colocated,left
124,1102.0824,0,460,1105,2857,4205,551,0.0,200,0,0,1102.5457,1,0,10_07_2014 level23_spatial_F+V 10_40 Block6-23.txt,37,37,1203,57.0,-10.0,2014-07-10,False,colocated,left
118,1160.0105,0,460,1105,2857,4205,701,0.0,200,0,0,1160.3357,1,0,16_07_2014 level23_spatial_F+V 15_27 Block6-32.txt,37,37,1203,57.0,-10.0,2014-07-16,False,colocated,left
98,999.833,0,460,1105,2857,4205,551,0.0,200,0,1,1000.8587,0,0,16_07_2014 level23_spatial_F+V 15_27 Block6-32.txt,37,37,1203,57.0,-10.0,2014-07-16,False,colocated,left
11,134.9334,0,460,1105,2857,4205,651,0.0,200,0,0,135.3699,1,0,16_07_2014 level23_spatial_F+V 15_27 Block6-32.txt,37,37,1203,57.0,-10.0,2014-07-16,False,colocated,left
20,180.2979,0,460,1105,2857,4205,1001,0.0,200,0,0,183.599,1,0,10_07_2014 level23_spatial_F+V 10_40 Block6-23.txt,37,37,1203,57.0,-10.0,2014-07-10,False,colocated,left
144,1245.9532,0,460,1105,2857,4205,601,0.0,200,0,0,1246.9124,1,0,10_07_2014 level23_spatial_F+V 10_40 Block6-23.txt,37,37,1203,57.0,-10.0,2014-07-10,False,colocated,left
124,1102.0824,0,460,1105,2857,4205,551,0.0,200,0,0,1102.5457,1,0,10_07_2014 level23_spatial_F+V 10_40 Block6-23.txt,37,37,1203,57.0,-10.0,2014-07-10,False,colocated,left
98,999.833,0,460,1105,2857,4205,551,0.0,200,0,1,1000.8587,0,0,16_07_2014 level23_spatial_F+V 15_27 Block6-32.txt,37,37,1203,57.0,-10.0,2014-07-16,False,colocated,left
136,1328.3832,0,460,1105,2857,4205,651,0.0,200,0,0,1328.8944,1,0,16_07_2014 level23_spatial_F+V 15_27 Block6-32.txt,37,37,1203,57.0,-10.0,2014-07-16,False,colocated,left
103,1045.119,0,460,1105,2857,4205,901,0.0,200,0,0,1045.4804,1,0,16_07_2014 level23_spatial_F+V 15_27 Block6-32.txt,37,37,1203,57.0,-10.0,2014-07-16,False,colocated,left
14,160.1025,0,460,1105,2857,4205,801,0.0,200,0,0,160.9656,1,0,16_07_2014 level23_spatial_F+V 15_27 Block6-32.txt,37,37,1203,57.0,-10.0,2014-07-16,False,colocated,left
169,1444.7234,0,460,1105,2857,4205,951,0.0,200,0,0,1445.2421,1,0,10_07_2014 level23_spatial_F+V 10_40 Block6-23.txt,37,37,1203,57.0,-10.0,2014-07-10,False,colocated,left
113,1014.9987,0,460,1105,2857,4205,801,0.0,200,0,1,1015.6808,0,0,10_07_2014 level23_spatial_F+V 10_40 Block6-23.txt,37,37,1203,57.0,-10.0,2014-07-10,False,colocated,left
81,763.2955,0,460,1105,2857,4205,601,0.0,200,0,0,764.0641,1,0,10_07_2014 level23_spatial_F+V 10_40 Block6-23.txt,37,37,1203,57.0,-10.0,2014-07-10,False,colocated,left
98,999.833,0,460,1105,2857,4205,551,0.0,200,0,1,1000.8587,0,0,16_07_2014 level23_spatial_F+V 15_27 Block6-32.txt,37,37,1203,57.0,-10.0,2014-07-16,False,colocated,left
11,112.3619,0,460,1105,2857,4205,501,0.0,200,0,1,113.0028,0,0,10_07_2014 level23_spatial_F+V 10_40 Block6-23.txt,37,37,1203,57.0,-10.0,2014-07-10,False,colocated,left
124,1102.0824,0,460,1105,2857,4205,551,0.0,200,0,0,1102.5457,1,0,10_07_2014 level23_spatial_F+V 10_40 Block6-23.txt,37,37,1203,57.0,-10.0,2014-07-10,False,colocated,left
98,999.833,0,460,1105,2857,4205,551,0.0,200,0,1,1000.8587,0,0,16_07_2014 level23_spatial_F+V 15_27 Block6-32.txt,37,37,1203,57.0,-10.0,2014-07-16,False,colocated,left
113,1014.9987,0,460,1105,2857,4205,801,0.0,200,0,1,1015.6808,0,0,10_07_2014 level23_spatial_F+V 10_40 Block6-23.txt,37,37,1203,57.0,-10.0,2014-07-10,False,colocated,left
118,1160.0105,0,460,1105,2857,4205,701,0.0,200,0,0,1160.3357,1,0,16_07_2014 level23_spatial_F+V 15_27 Block6-32.txt,37,37,1203,57.0,-10.0,2014-07-16,False,colocated,left
94,975.8141,0,460,1105,2857,4205,701,0.0,200,0,0,976.1601,1,0,16_07_2014 level23_spatial_F+V 15_27 Block6-32.txt,37,37,1203,57.0,-10.0,2014-07-16,False,colocated,left
11,112.3619,0,460,1105,2857,4205,501,0.0,200,0,1,113.0028,0,0,10_07_2014 level23_spatial_F+V 10_40 Block6-23.txt,37,37,1203,57.0,-10.0,2014-07-10,False,colocated,left
98,999.833,0,460,1105,2857,4205,551,0.0,200,0,1,1000.8587,0,0,16_07_2014 level23_spatial_F+V 15_27 Block6-32.txt,37,37,1203,57.0,-10.0,2014-07-16,False,colocated,left
81,763.2955,0,460,1105,2857,4205,601,0.0,200,0,0,764.0641,1,0,10_07_2014 level23_spatial_F+V 10_40 Block6-23.txt,37,37,1203,57.0,-10.0,2014-07-10,False,colocated,left
113,1014.9987,0,460,1105,2857,4205,801,0.0,200,0,1,1015.6808,0,0,10_07_2014 level23_spatial_F+V 10_40 Block6-23.txt,37,37,1203,57.0,-10.0,2014-07-10,False,colocated,left
38,355.9507,0,460,1105,2857,4205,701,0.0,200,0,0,356.6606,1,0,10_07_2014 level23_spatial_F+V 10_40 Block6-23.txt,37,37,1203,57.0,-10.0,2014-07-10,False,colocated,left
126,1117.9763,0,460,1105,2857,4205,801,0.0,200,0,0,1118.9671,1,0,10_07_2014 level23_spatial_F+V 10_40 Block6-23.txt,37,37,1203,57.0,-10.0,2014-07-10,False,colocated,left
9,120.8671,0,460,1105,2857,4205,551,0.0,200,0,0,121.3586,1,0,16_07_2014 level23_spatial_F+V 15_27 Block6-32.txt,37,37,1203,57.0,-10.0,2014-07-16,False,colocated,left
14,160.1025,0,460,1105,2857,4205,801,0.0,200,0,0,160.9656,1,0,16_07_2014 level23_spatial_F+V 15_27 Block6-32.txt,37,37,1203,57.0,-10.0,2014-07-16,False,colocated,left
11,134.9334,0,460,1105,2857,4205,651,0.0,200,0,0,135.3699,1,0,16_07_2014 level23_spatial_F+V 15_27 Block6-32.txt,37,37,1203,57.0,-10.0,2014-07-16,False,colocated,left
9,120.8671,0,460,1105,2857,4205,551,0.0,200,0,0,121.3586,1,0,16_07_2014 level23_spatial_F+V 15_27 Block6-32.txt,37,37,1203,57.0,-10.0,2014-07-16,False,colocated,left
84,790.1972,0,460,1105,2857,4205,951,0.0,200,0,1,790.7461,0,0,10_07_2014 level23_spatial_F+V 10_40 Block6-23.txt,37,37,1203,57.0,-10.0,2014-07-10,False,colocated,left
138,1194.8719,0,460,1105,2857,4205,751,0.0,200,0,0,1196.8383,1,0,10_07_2014 level23_spatial_F+V 10_40 Block6-23.txt,37,37,1203,57.0,-10.0,2014-07-10,False,colocated,left
83,783.7041,0,460,1105,2857,4205,801,0.0,200,0,0,784.3491,1,0,10_07_2014 level23_spatial_F+V 10_40 Block6-23.txt,37,37,1203,57.0,-10.0,2014-07-10,False,colocated,left
144,1245.9532,0,460,1105,2857,4205,601,0.0,200,0,0,1246.9124,1,0,10_07_2014 level23_spatial_F+V 10_40 Block6-23.txt,37,37,1203,57.0,-10.0,2014-07-10,False,colocated,left
81,763.2955,0,460,1105,2857,4205,601,0.0,200,0,0,764.0641,1,0,10_07_2014 level23_spatial_F+V 10_40 Block6-23.txt,37,37,1203,57.0,-10.0,2014-07-10,False,colocated,left
144,1245.9532,0,460,1105,2857,4205,601,0.0,200,0,0,1246.9124,1,0,10_07_2014 level23_spatial_F+V 10_40 Block6-23.txt,37,37,1203,57.0,-10.0,2014-07-10,False,colocated,left
83,783.7041,0,460,1105,2857,4205,801,0.0,200,0,0,784.3491,1,0,10_07_2014 level23_spatial_F+V 10_40 Block6-23.txt,37,37,1203,57.0,-10.0,2014-07-10,False,colocated,left
144,1245.9532,0,460,1105,2857,4205,601,0.0,200,0,0,1246.9124,1,0,10_07_2014 level23_spatial_F+V 10_40 Block6-23.txt,37,37,1203,57.0,-10.0,2014-07-10,False,colocated,left
138,1194.8719,0,460,1105,2857,4205,751,0.0,200,0,0,1196.8383,1,0,10_07_2014 level23_spatial_F+V 10_40 Block6-23.txt,37,37,1203,57.0,-10.0,2014-07-10,False,colocated,left
144,1245.9532,0,460,1105,2857,4205,601,0.0,200,0,0,1246.9124,1,0,10_07_2014 level23_spatial_F+V 10_40 Block6-23.txt,37,37,1203,57.0,-10.0,2014-07-10,False,colocated,left
38,355.9507,0,460,1105,2857,4205,701,0.0,200,0,0,356.6606,1,0,10_07_2014 level23_spatial_F+V 10_40 Block6-23.txt,37,37,1203,57.0,-10.0,2014-07-10,False,colocated,left
38,355.9507,0,460,1105,2857,4205,701,0.0,200,0,0,356.6606,1,0,10_07_2014 level23_spatial_F+V 10_40 Block6-23.txt,37,37,1203,57.0,-10.0,2014-07-10,False,colocated,left
20,180.2979,0,460,1105,2857,4205,1001,0.0,200,0,0,183.599,1,0,10_07_2014 level23_spatial_F+V 10_40 Block6-23.txt,37,37,1203,57.0,-10.0,2014-07-10,False,colocated,left
144,1245.9532,0,460,1105,2857,4205,601,0.0,200,0,0,1246.9124,1,0,10_07_2014 level23_spatial_F+V 10_40 Block6-23.txt,37,37,1203,57.0,-10.0,2014-07-10,False,colocated,left
81,763.2955,0,460,1105,2857,4205,601,0.0,200,0,0,764.0641,1,0,10_07_2014 level23_spatial_F+V 10_40 Block6-23.txt,37,37,1203,57.0,-10.0,2014-07-10,False,colocated,left
113,1014.9987,0,460,1105,2857,4205,801,0.0,200,0,1,1015.6808,0,0,10_07_2014 level23_spatial_F+V 10_40 Block6-23.txt,37,37,1203,57.0,-10.0,2014-07-10,False,colocated,left
124,1102.0824,0,460,1105,2857,4205,551,0.0,200,0,0,1102.5457,1,0,10_07_2014 level23_spatial_F+V 10_40 Block6-23.txt,37,37,1203,57.0,-10.0,2014-07-10,False,colocated,left
84,790.1972,0,460,1105,2857,4205,951,0.0,200,0,1,790.7461,0,0,10_07_2014 level23_spatial_F+V 10_40 Block6-23.txt,37,37,1203,57.0,-10.0,2014-07-10,False,colocated,left
38,355.9507,0,460,1105,2857,4205,701,0.0,200,0,0,356.6606,1,0,10_07_2014 level23_spatial_F+V 10_40 Block6-23.txt,37,37,1203,57.0,-10.0,2014-07-10,False,colocated,left
84,790.1972,0,460,1105,2857,4205,951,0.0,200,0,1,790.7461,0,0,10_07_2014 level23_spatial_F+V 10_40 Block6-23.txt,37,37,1203,57.0,-10.0,2014-07-10,False,colocated,left
118,1160.0105,0,460,1105,2857,4205,701,0.0,200,0,0,1160.3357,1,0,16_07_2014 level23_spatial_F+V 15_27 Block6-32.txt,37,37,1203,57.0,-10.0,2014-07-16,False,colocated,left
20,180.2979,0,460,1105,2857,4205,1001,0.0,200,0,0,183.599,1,0,10_07_2014 level23_spatial_F+V 10_40 Block6-23.txt,37,37,1203,57.0,-10.0,2014-07-10,False,colocated,left
83,783.7041,0,460,1105,2857,4205,801,0.0,200,0,0,784.3491,1,0,10_07_2014 level23_spatial_F+V 10_40 Block6-23.txt,37,37,1203,57.0,-10.0,2014-07-10,False,colocated,left
94,975.8141,0,460,1105,2857,4205,701,0.0,200,0,0,976.1601,1,0,16_07_2014 level23_spatial_F+V 15_27 Block6-32.txt,37,37,1203,57.0,-10.0,2014-07-16,False,colocated,left
103,1045.119,0,460,1105,2857,4205,901,0.0,200,0,0,1045.4804,1,0,16_07_2014 level23_spatial_F+V 15_27 Block6-32.txt,37,37,1203,57.0,-10.0,2014-07-16,False,colocated,left
38,355.9507,0,460,1105,2857,4205,701,0.0,200,0,0,356.6606,1,0,10_07_2014 level23_spatial_F+V 10_40 Block6-23.txt,37,37,1203,57.0,-10.0,2014-07-10,False,colocated,left
81,763.2955,0,460,1105,2857,4205,601,0.0,200,0,0,764.0641,1,0,10_07_2014 level23_spatial_F+V 10_40 Block6-23.txt,37,37,1203,57.0,-10.0,2014-07-10,False,colocated,left
14,160.1025,0,460,1105,2857,4205,801,0.0,200,0,0,160.9656,1,0,16_07_2014 level23_spatial_F+V 15_27 Block6-32.txt,37,37,1203,57.0,-10.0,2014-07-16,False,colocated,left
113,1014.9987,0,460,1105,2857,4205,801,0.0,200,0,1,1015.6808,0,0,10_07_2014 level23_spatial_F+V 10_40 Block6-23.txt,37,37,1203,57.0,-10.0,2014-07-10,False,colocated,left
84,790.1972,0,460,1105,2857,4205,951,0.0,200,0,1,790.7461,0,0,10_07_2014 level23_spatial_F+V 10_40 Block6-23.txt,37,37,1203,57.0,-10.0,2014-07-10,False,colocated,left
83,783.7041,0,460,1105,2857,4205,801,0.0,200,0,0,784.3491,1,0,10_07_2014 level23_spatial_F+V 10_40 Block6-23.txt,37,37,1203,57.0,-10.0,2014-07-10,False,colocated,left
9,120.8671,0,460,1105,2857,4205,551,0.0,200,0,0,121.3586,1,0,16_07_2014 level23_spatial_F+V 15_27 Block6-32.txt,37,37,1203,57.0,-10.0,2014-07-16,False,colocated,left
11,134.9334,0,460,1105,2857,4205,651,0.0,200,0,0,135.3699,1,0,16_07_2014 level23_spatial_F+V 15_27 Block6-32.txt,37,37,1203,57.0,-10.0,2014-07-16,False,colocated,left
11,112.3619,0,460,1105,2857,4205,501,0.0,200,0,1,113.0028,0,0,10_07_2014 level23_spatial_F+V 10_40 Block6-23.txt,37,37,1203,57.0,-10.0,2014-07-10,False,colocated,left
98,999.833,0,460,1105,2857,4205,551,0.0,200,0,1,1000.8587,0,0,16_07_2014 level23_spatial_F+V 15_27 Block6-32.txt,37,37,1203,57.0,-10.0,2014-07-16,False,colocated,left
126,1117.9763,0,460,1105,2857,4205,801,0.0,200,0,0,1118.9671,1,0,10_07_2014 level23_spatial_F+V 10_40 Block6-23.txt,37,37,1203,57.0,-10.0,2014-07-10,False,colocated,left
136,1328.3832,0,460,1105,2857,4205,651,0.0,200,0,0,1328.8944,1,0,16_07_2014 level23_spatial_F+V 15_27 Block6-32.txt,37,37,1203,57.0,-10.0,2014-07-16,False,colocated,left
11,112.3619,0,460,1105,2857,4205,501,0.0,200,0,1,113.0028,0,0,10_07_2014 level23_spatial_F+V 10_40 Block6-23.txt,37,37,1203,57.0,-10.0,2014-07-10,False,colocated,left
11,134.9334,0,460,1105,2857,4205,651,0.0,200,0,0,135.3699,1,0,16_07_2014 level23_spatial_F+V 15_27 Block6-32.txt,37,37,1203,57.0,-10.0,2014-07-16,False,colocated,left
144,1245.9532,0,460,1105,2857,4205,601,0.0,200,0,0,1246.9124,1,0,10_07_2014 level23_spatial_F+V 10_40 Block6-23.txt,37,37,1203,57.0,-10.0,2014-07-10,False,colocated,left
20,180.2979,0,460,1105,2857,4205,1001,0.0,200,0,0,183.599,1,0,10_07_2014 level23_spatial_F+V 10_40 Block6-23.txt,37,37,1203,57.0,-10.0,2014-07-10,False,colocated,left
11,112.3619,0,460,1105,2857,4205,501,0.0,200,0,1,113.0028,0,0,10_07_2014 level23_spatial_F+V 10_40 Block6-23.txt,37,37,1203,57.0,-10.0,2014-07-10,False,colocated,left
136,1328.3832,0,460,1105,2857,4205,651,0.0,200,0,0,1328.8944,1,0,16_07_2014 level23_spatial_F+V 15_27 Block6-32.txt,37,37,1203,57.0,-10.0,2014-07-16,False,colocated,left
9,120.8671,0,460,1105,2857,4205,551,0.0,200,0,0,121.3586,1,0,16_07_2014 level23_spatial_F+V 15_27 Block6-32.txt,37,37,1203,57.0,-10.0,2014-07-16,False,colocated,left
11,112.3619,0,460,1105,2857,4205,501,0.0,200,0,1,113.0028,0,0,10_07_2014 level23_spatial_F+V 10_40 Block6-23.txt,37,37,1203,57.0,-10.0,2014-07-10,False,colocated,left
14,160.1025,0,460,1105,2857,4205,801,0.0,200,0,0,160.9656,1,0,16_07_2014 level23_spatial_F+V 15_27 Block6-32.txt,37,37,1203,57.0,-10.0,2014-07-16,False,colocated,left
124,1102.0824,0,460,1105,2857,4205,551,0.0,200,0,0,1102.5457,1,0,10_07_2014 level23_spatial_F+V 10_40 Block6-23.txt,37,37,1203,57.0,-10.0,2014-07-10,False,colocated,left
11,134.9334,0,460,1105,2857,4205,651,0.0,200,0,0,135.3699,1,0,16_07_2014 level23_spatial_F+V 15_27 Block6-32.txt,37,37,1203,57.0,-10.0,2014-07-16,False,colocated,left
169,1444.7234,0,460,1105,2857,4205,951,0.0,200,0,0,1445.2421,1,0,10_07_2014 level23_spatial_F+V 10_40 Block6-23.txt,37,37,1203,57.0,-10.0,2014-07-10,False,colocated,left
38,355.9507,0,460,1105,2857,4205,701,0.0,200,0,0,356.6606,1,0,10_07_2014 level23_spatial_F+V 10_40 Block6-23.txt,37,37,1203,57.0,-10.0,2014-07-10,False,colocated,left
118,1160.0105,0,460,1105,2857,4205,701,0.0,200,0,0,1160.3357,1,0,16_07_2014 level23_spatial_F+V 15_27 Block6-32.txt,37,37,1203,57.0,-10.0,2014-07-16,False,colocated,left
118,1160.0105,0,460,1105,2857,4205,701,0.0,200,0,0,1160.3357,1,0,16_07_2014 level23_spatial_F+V 15_27 Block6-32.txt,37,37,1203,57.0,-10.0,2014-07-16,False,colocated,left
118,1160.0105,0,460,1105,2857,4205,701,0.0,200,0,0,1160.3357,1,0,16_07_2014 level23_spatial_F+V 15_27 Block6-32.txt,37,37,1203,57.0,-10.0,2014-07-16,False,colocated,left
127,1124.2315,0,730,2058,2857,4205,901,0.0,200,1,1,1124.7827,1,0,10_07_2014 level23_spatial_F+V 10_40 Block6-23.txt,37,37,1203,57.0,-10.0,2014-07-10,False,colocated,left
144,1388.4957,0,730,2058,2857,4205,501,0.0,200,1,1,1389.2964,1,0,16_07_2014 level23_spatial_F+V 15_27 Block6-32.txt,37,37,1203,57.0,-10.0,2014-07-16,False,colocated,left
47,430.2804,0,730,2058,2857,4205,801,0.0,200,1,1,430.6972,1,0,10_07_2014 level23_spatial_F+V 10_40 Block6-23.txt,37,37,1203,57.0,-10.0,2014-07-10,False,colocated,left
21,240.9499,0,730,2058,2857,4205,601,0.0,200,1,0,241.8298,0,0,16_07_2014 level23_spatial_F+V 15_27 Block6-32.txt,37,37,1203,57.0,-10.0,2014-07-16,False,colocated,left
109,1087.8006,0,730,2058,2857,4205,751,0.0,200,1,1,1088.2259,1,0,16_07_2014 level23_spatial_F+V 15_27 Block6-32.txt,37,37,1203,57.0,-10.0,2014-07-16,False,colocated,left
127,1124.2315,0,730,2058,2857,4205,901,0.0,200,1,1,1124.7827,1,0,10_07_2014 level23_spatial_F+V 10_40 Block6-23.txt,37,37,1203,57.0,-10.0,2014-07-10,False,colocated,left
127,1124.2315,0,730,2058,2857,4205,901,0.0,200,1,1,1124.7827,1,0,10_07_2014 level23_spatial_F+V 10_40 Block6-23.txt,37,37,1203,57.0,-10.0,2014-07-10,False,colocated,left
65,677.6637,0,730,2058,2857,4205,601,0.0,200,1,1,678.1607,1,0,16_07_2014 level23_spatial_F+V 15_27 Block6-32.txt,37,37,1203,57.0,-10.0,2014-07-16,False,colocated,left
130,1142.3678,0,730,2058,2857,4205,651,0.0,200,1,1,1143.2644,1,0,10_07_2014 level23_spatial_F+V 10_40 Block6-23.txt,37,37,1203,57.0,-10.0,2014-07-10,False,colocated,left
39,362.779,0,730,2058,2857,4205,501,0.0,200,1,1,363.3493,1,0,10_07_2014 level23_spatial_F+V 10_40 Block6-23.txt,37,37,1203,57.0,-10.0,2014-07-10,False,colocated,left
109,1087.8006,0,730,2058,2857,4205,751,0.0,200,1,1,1088.2259,1,0,16_07_2014 level23_spatial_F+V 15_27 Block6-32.txt,37,37,1203,57.0,-10.0,2014-07-16,False,colocated,left
2,32.539,0,730,2058,2857,4205,501,0.0,200,1,0,33.6661,0,0,16_07_2014 level23_spatial_F+V 15_27 Block6-32.txt,37,37,1203,57.0,-10.0,2014-07-16,False,colocated,left
39,362.779,0,730,2058,2857,4205,501,0.0,200,1,1,363.3493,1,0,10_07_2014 level23_spatial_F+V 10_40 Block6-23.txt,37,37,1203,57.0,-10.0,2014-07-10,False,colocated,left
127,1124.2315,0,730,2058,2857,4205,901,0.0,200,1,1,1124.7827,1,0,10_07_2014 level23_spatial_F+V 10_40 Block6-23.txt,37,37,1203,57.0,-10.0,2014-07-10,False,colocated,left
127,1124.2315,0,730,2058,2857,4205,901,0.0,200,1,1,1124.7827,1,0,10_07_2014 level23_spatial_F+V 10_40 Block6-23.txt,37,37,1203,57.0,-10.0,2014-07-10,False,colocated,left
130,1142.3678,0,730,2058,2857,4205,651,0.0,200,1,1,1143.2644,1,0,10_07_2014 level23_spatial_F+V 10_40 Block6-23.txt,37,37,1203,57.0,-10.0,2014-07-10,False,colocated,left
21,240.9499,0,730,2058,2857,4205,601,0.0,200,1,0,241.8298,0,0,16_07_2014 level23_spatial_F+V 15_27 Block6-32.txt,37,37,1203,57.0,-10.0,2014-07-16,False,colocated,left
158,1353.772,0,730,2058,2857,4205,501,0.0,200,1,1,1354.4697,1,0,10_07_2014 level23_spatial_F+V 10_40 Block6-23.txt,37,37,1203,57.0,-10.0,2014-07-10,False,colocated,left
2,32.539,0,730,2058,2857,4205,501,0.0,200,1,0,33.6661,0,0,16_07_2014 level23_spatial_F+V 15_27 Block6-32.txt,37,37,1203,57.0,-10.0,2014-07-16,False,colocated,left
2,32.539,0,730,2058,2857,4205,501,0.0,200,1,0,33.6661,0,0,16_07_2014 level23_spatial_F+V 15_27 Block6-32.txt,37,37,1203,57.0,-10.0,2014-07-16,False,colocated,left
65,677.6637,0,730,2058,2857,4205,601,0.0,200,1,1,678.1607,1,0,16_07_2014 level23_spatial_F+V 15_27 Block6-32.txt,37,37,1203,57.0,-10.0,2014-07-16,False,colocated,left
143,1236.2088,0,730,2058,2857,4205,701,0.0,200,1,1,1236.6497,1,0,10_07_2014 level23_spatial_F+V 10_40 Block6-23.txt,37,37,1203,57.0,-10.0,2014-07-10,False,colocated,left
127,1124.2315,0,730,2058,2857,4205,901,0.0,200,1,1,1124.7827,1,0,10_07_2014 level23_spatial_F+V 10_40 Block6-23.txt,37,37,1203,57.0,-10.0,2014-07-10,False,colocated,left
65,677.6637,0,730,2058,2857,4205,601,0.0,200,1,1,678.1607,1,0,16_07_2014 level23_spatial_F+V 15_27 Block6-32.txt,37,37,1203,57.0,-10.0,2014-07-16,False,colocated,left
158,1353.772,0,730,2058,2857,4205,501,0.0,200,1,1,1354.4697,1,0,10_07_2014 level23_spatial_F+V 10_40 Block6-23.txt,37,37,1203,57.0,-10.0,2014-07-10,False,colocated,left
47,430.2804,0,730,2058,2857,4205,801,0.0,200,1,1,430.6972,1,0,10_07_2014 level23_spatial_F+V 10_40 Block6-23.txt,37,37,1203,57.0,-10.0,2014-07-10,False,colocated,left
6,85.0639,0,730,2058,2857,4205,901,0.0,200,1,0,85.5477,0,0,16_07_2014 level23_spatial_F+V 15_27 Block6-32.txt,37,37,1203,57.0,-10.0,2014-07-16,False,colocated,left
57,521.2557,0,730,2058,2857,4205,901,0.0,200,1,1,521.6703,1,0,10_07_2014 level23_spatial_F+V 10_40 Block6-23.txt,37,37,1203,57.0,-10.0,2014-07-10,False,colocated,left
57,521.2557,0,730,2058,2857,4205,901,0.0,200,1,1,521.6703,1,0,10_07_2014 level23_spatial_F+V 10_40 Block6-23.txt,37,37,1203,57.0,-10.0,2014-07-10,False,colocated,left
2,32.539,0,730,2058,2857,4205,501,0.0,200,1,0,33.6661,0,0,16_07_2014 level23_spatial_F+V 15_27 Block6-32.txt,37,37,1203,57.0,-10.0,2014-07-16,False,colocated,left
82,868.3922,0,730,2058,2857,4205,901,0.0,200,1,1,869.1832,1,0,16_07_2014 level23_spatial_F+V 15_27 Block6-32.txt,37,37,1203,57.0,-10.0,2014-07-16,False,colocated,left
65,677.6637,0,730,2058,2857,4205,601,0.0,200,1,1,678.1607,1,0,16_07_2014 level23_spatial_F+V 15_27 Block6-32.txt,37,37,1203,57.0,-10.0,2014-07-16,False,colocated,left
127,1124.2315,0,730,2058,2857,4205,901,0.0,200,1,1,1124.7827,1,0,10_07_2014 level23_spatial_F+V 10_40 Block6-23.txt,37,37,1203,57.0,-10.0,2014-07-10,False,colocated,left
6,85.0639,0,730,2058,2857,4205,901,0.0,200,1,0,85.5477,0,0,16_07_2014 level23_spatial_F+V 15_27 Block6-32.txt,37,37,1203,57.0,-10.0,2014-07-16,False,colocated,left
90,831.7356,0,730,2058,2857,4205,801,0.0,200,1,1,834.9655,1,0,10_07_2014 level23_spatial_F+V 10_40 Block6-23.txt,37,37,1203,57.0,-10.0,2014-07-10,False,colocated,left
65,677.6637,0,730,2058,2857,4205,601,0.0,200,1,1,678.1607,1,0,16_07_2014 level23_spatial_F+V 15_27 Block6-32.txt,37,37,1203,57.0,-10.0,2014-07-16,False,colocated,left
127,1124.2315,0,730,2058,2857,4205,901,0.0,200,1,1,1124.7827,1,0,10_07_2014 level23_spatial_F+V 10_40 Block6-23.txt,37,37,1203,57.0,-10.0,2014-07-10,False,colocated,left
130,1142.3678,0,730,2058,2857,4205,651,0.0,200,1,1,1143.2644,1,0,10_07_2014 level23_spatial_F+V 10_40 Block6-23.txt,37,37,1203,57.0,-10.0,2014-07-10,False,colocated,left
21,240.9499,0,730,2058,2857,4205,601,0.0,200,1,0,241.8298,0,0,16_07_2014 level23_spatial_F+V 15_27 Block6-32.txt,37,37,1203,57.0,-10.0,2014-07-16,False,colocated,left
52,491.4996,0,730,2058,2857,4205,801,0.0,200,1,1,492.2808,1,0,10_07_2014 level23_spatial_F+V 10_40 Block6-23.txt,37,37,1203,57.0,-10.0,2014-07-10,False,colocated,left
158,1353.772,0,730,2058,2857,4205,501,0.0,200,1,1,1354.4697,1,0,10_07_2014 level23_spatial_F+V 10_40 Block6-23.txt,37,37,1203,57.0,-10.0,2014-07-10,False,colocated,left
82,868.3922,0,730,2058,2857,4205,901,0.0,200,1,1,869.1832,1,0,16_07_2014 level23_spatial_F+V 15_27 Block6-32.txt,37,37,1203,57.0,-10.0,2014-07-16,False,colocated,left
47,430.2804,0,730,2058,2857,4205,801,0.0,200,1,1,430.6972,1,0,10_07_2014 level23_spatial_F+V 10_40 Block6-23.txt,37,37,1203,57.0,-10.0,2014-07-10,False,colocated,left
130,1142.3678,0,730,2058,2857,4205,651,0.0,200,1,1,1143.2644,1,0,10_07_2014 level23_spatial_F+V 10_40 Block6-23.txt,37,37,1203,57.0,-10.0,2014-07-10,False,colocated,left
82,868.3922,0,730,2058,2857,4205,901,0.0,200,1,1,869.1832,1,0,16_07_2014 level23_spatial_F+V 15_27 Block6-32.txt,37,37,1203,57.0,-10.0,2014-07-16,False,colocated,left
47,430.2804,0,730,2058,2857,4205,801,0.0,200,1,1,430.6972,1,0,10_07_2014 level23_spatial_F+V 10_40 Block6-23.txt,37,37,1203,57.0,-10.0,2014-07-10,False,colocated,left
52,491.4996,0,730,2058,2857,4205,801,0.0,200,1,1,492.2808,1,0,10_07_2014 level23_spatial_F+V 10_40 Block6-23.txt,37,37,1203,57.0,-10.0,2014-07-10,False,colocated,left
39,362.779,0,730,2058,2857,4205,501,0.0,200,1,1,363.3493,1,0,10_07_2014 level23_spatial_F+V 10_40 Block6-23.txt,37,37,1203,57.0,-10.0,2014-07-10,False,colocated,left
52,491.4996,0,730,2058,2857,4205,801,0.0,200,1,1,492.2808,1,0,10_07_2014 level23_spatial_F+V 10_40 Block6-23.txt,37,37,1203,57.0,-10.0,2014-07-10,False,colocated,left
90,831.7356,0,730,2058,2857,4205,801,0.0,200,1,1,834.9655,1,0,10_07_2014 level23_spatial_F+V 10_40 Block6-23.txt,37,37,1203,57.0,-10.0,2014-07-10,False,colocated,left
139,1353.1868,0,730,2058,2857,4205,1001,0.0,200,1,1,1353.7112,1,0,16_07_2014 level23_spatial_F+V 15_27 Block6-32.txt,37,37,1203,57.0,-10.0,2014-07-16,False,colocated,left
47,430.2804,0,730,2058,2857,4205,801,0.0,200,1,1,430.6972,1,0,10_07_2014 level23_spatial_F+V 10_40 Block6-23.txt,37,37,1203,57.0,-10.0,2014-07-10,False,colocated,left
159,1360.7525,0,730,2058,2857,4205,601,0.0,200,1,1,1361.8837,1,0,10_07_2014 level23_spatial_F+V 10_40 Block6-23.txt,37,37,1203,57.0,-10.0,2014-07-10,False,colocated,left
39,362.779,0,730,2058,2857,4205,501,0.0,200,1,1,363.3493,1,0,10_07_2014 level23_spatial_F+V 10_40 Block6-23.txt,37,37,1203,57.0,-10.0,2014-07-10,False,colocated,left
62,645.1794,0,730,2058,2857,4205,551,0.0,200,1,0,645.9745,0,0,16_07_2014 level23_spatial_F+V 15_27 Block6-32.txt,37,37,1203,57.0,-10.0,2014-07-16,False,colocated,left
109,1087.8006,0,730,2058,2857,4205,751,0.0,200,1,1,1088.2259,1,0,16_07_2014 level23_spatial_F+V 15_27 Block6-32.txt,37,37,1203,57.0,-10.0,2014-07-16,False,colocated,left
52,491.4996,0,730,2058,2857,4205,801,0.0,200,1,1,492.2808,1,0,10_07_2014 level23_spatial_F+V 10_40 Block6-23.txt,37,37,1203,57.0,-10.0,2014-07-10,False,colocated,left
130,1142.3678,0,730,2058,2857,4205,651,0.0,200,1,1,1143.2644,1,0,10_07_2014 level23_spatial_F+V 10_40 Block6-23.txt,37,37,1203,57.0,-10.0,2014-07-10,False,colocated,left
109,1087.8006,0,730,2058,2857,4205,751,0.0,200,1,1,1088.2259,1,0,16_07_2014 level23_spatial_F+V 15_27 Block6-32.txt,37,37,1203,57.0,-10.0,2014-07-16,False,colocated,left
143,1236.2088,0,730,2058,2857,4205,701,0.0,200,1,1,1236.6497,1,0,10_07_2014 level23_spatial_F+V 10_40 Block6-23.txt,37,37,1203,57.0,-10.0,2014-07-10,False,colocated,left
90,831.7356,0,730,2058,2857,4205,801,0.0,200,1,1,834.9655,1,0,10_07_2014 level23_spatial_F+V 10_40 Block6-23.txt,37,37,1203,57.0,-10.0,2014-07-10,False,colocated,left
109,1087.8006,0,730,2058,2857,4205,751,0.0,200,1,1,1088.2259,1,0,16_07_2014 level23_spatial_F+V 15_27 Block6-32.txt,37,37,1203,57.0,-10.0,2014-07-16,False,colocated,left
52,491.4996,0,730,2058,2857,4205,801,0.0,200,1,1,492.2808,1,0,10_07_2014 level23_spatial_F+V 10_40 Block6-23.txt,37,37,1203,57.0,-10.0,2014-07-10,False,colocated,left
90,831.7356,0,730,2058,2857,4205,801,0.0,200,1,1,834.9655,1,0,10_07_2014 level23_spatial_F+V 10_40 Block6-23.txt,37,37,1203,57.0,-10.0,2014-07-10,False,colocated,left
109,1087.8006,0,730,2058,2857,4205,751,0.0,200,1,1,1088.2259,1,0,16_07_2014 level23_spatial_F+V 15_27 Block6-32.txt,37,37,1203,57.0,-10.0,2014-07-16,False,colocated,left
47,430.2804,0,730,2058,2857,4205,801,0.0,200,1,1,430.6972,1,0,10_07_2014 level23_spatial_F+V 10_40 Block6-23.txt,37,37,1203,57.0,-10.0,2014-07-10,False,colocated,left
52,491.4996,0,730,2058,2857,4205,801,0.0,200,1,1,492.2808,1,0,10_07_2014 level23_spatial_F+V 10_40 Block6-23.txt,37,37,1203,57.0,-10.0,2014-07-10,False,colocated,left
130,1142.3678,0,730,2058,2857,4205,651,0.0,200,1,1,1143.2644,1,0,10_07_2014 level23_spatial_F+V 10_40 Block6-23.txt,37,37,1203,57.0,-10.0,2014-07-10,False,colocated,left
65,677.6637,0,730,2058,2857,4205,601,0.0,200,1,1,678.1607,1,0,16_07_2014 level23_spatial_F+V 15_27 Block6-32.txt,37,37,1203,57.0,-10.0,2014-07-16,False,colocated,left
65,677.6637,0,730,2058,2857,4205,601,0.0,200,1,1,678.1607,1,0,16_07_2014 level23_spatial_F+V 15_27 Block6-32.txt,37,37,1203,57.0,-10.0,2014-07-16,False,colocated,left
109,1087.8006,0,730,2058,2857,4205,751,0.0,200,1,1,1088.2259,1,0,16_07_2014 level23_spatial_F+V 15_27 Block6-32.txt,37,37,1203,57.0,-10.0,2014-07-16,False,colocated,left
143,1236.2088,0,730,2058,2857,4205,701,0.0,200,1,1,1236.6497,1,0,10_07_2014 level23_spatial_F+V 10_40 Block6-23.txt,37,37,1203,57.0,-10.0,2014-07-10,False,colocated,left
62,645.1794,0,730,2058,2857,4205,551,0.0,200,1,0,645.9745,0,0,16_07_2014 level23_spatial_F+V 15_27 Block6-32.txt,37,37,1203,57.0,-10.0,2014-07-16,False,colocated,left
143,1236.2088,0,730,2058,2857,4205,701,0.0,200,1,1,1236.6497,1,0,10_07_2014 level23_spatial_F+V 10_40 Block6-23.txt,37,37,1203,57.0,-10.0,2014-07-10,False,colocated,left
52,491.4996,0,730,2058,2857,4205,801,0.0,200,1,1,492.2808,1,0,10_07_2014 level23_spatial_F+V 10_40 Block6-23.txt,37,37,1203,57.0,-10.0,2014-07-10,False,colocated,left
139,1353.1868,0,730,2058,2857,4205,1001,0.0,200,1,1,1353.7112,1,0,16_07_2014 level23_spatial_F+V 15_27 Block6-32.txt,37,37,1203,57.0,-10.0,2014-07-16,False,colocated,left
2,32.539,0,730,2058,2857,4205,501,0.0,200,1,0,33.6661,0,0,16_07_2014 level23_spatial_F+V 15_27 Block6-32.txt,37,37,1203,57.0,-10.0,2014-07-16,False,colocated,left
14,136.7313,0,730,2058,2857,4205,651,0.0,200,1,1,137.4011,1,0,10_07_2014 level23_spatial_F+V 10_40 Block6-23.txt,37,37,1203,57.0,-10.0,2014-07-10,False,colocated,left
52,491.4996,0,730,2058,2857,4205,801,0.0,200,1,1,492.2808,1,0,10_07_2014 level23_spatial_F+V 10_40 Block6-23.txt,37,37,1203,57.0,-10.0,2014-07-10,False,colocated,left
144,1388.4957,0,730,2058,2857,4205,501,0.0,200,1,1,1389.2964,1,0,16_07_2014 level23_spatial_F+V 15_27 Block6-32.txt,37,37,1203,57.0,-10.0,2014-07-16,False,colocated,left
127,1124.2315,0,730,2058,2857,4205,901,0.0,200,1,1,1124.7827,1,0,10_07_2014 level23_spatial_F+V 10_40 Block6-23.txt,37,37,1203,57.0,-10.0,2014-07-10,False,colocated,left
144,1388.4957,0,730,2058,2857,4205,501,0.0,200,1,1,1389.2964,1,0,16_07_2014 level23_spatial_F+V 15_27 Block6-32.txt,37,37,1203,57.0,-10.0,2014-07-16,False,colocated,left
82,868.3922,0,730,2058,2857,4205,901,0.0,200,1,1,869.1832,1,0,16_07_2014 level23_spatial_F+V 15_27 Block6-32.txt,37,37,1203,57.0,-10.0,2014-07-16,False,colocated,left
57,521.2557,0,730,2058,2857,4205,901,0.0,200,1,1,521.6703,1,0,10_07_2014 level23_spatial_F+V 10_40 Block6-23.txt,37,37,1203,57.0,-10.0,2014-07-10,False,colocated,left
14,136.7313,0,730,2058,2857,4205,651,0.0,200,1,1,137.4011,1,0,10_07_2014 level23_spatial_F+V 10_40 Block6-23.txt,37,37,1203,57.0,-10.0,2014-07-10,False,colocated,left
127,1124.2315,0,730,2058,2857,4205,901,0.0,200,1,1,1124.7827,1,0,10_07_2014 level23_spatial_F+V 10_40 Block6-23.txt,37,37,1203,57.0,-10.0,2014-07-10,False,colocated,left
143,1236.2088,0,730,2058,2857,4205,701,0.0,200,1,1,1236.6497,1,0,10_07_2014 level23_spatial_F+V 10_40 Block6-23.txt,37,37,1203,57.0,-10.0,2014-07-10,False,colocated,left
144,1388.4957,0,730,2058,2857,4205,501,0.0,200,1,1,1389.2964,1,0,16_07_2014 level23_spatial_F+V 15_27 Block6-32.txt,37,37,1203,57.0,-10.0,2014-07-16,False,colocated,left
143,1236.2088,0,730,2058,2857,4205,701,0.0,200,1,1,1236.6497,1,0,10_07_2014 level23_spatial_F+V 10_40 Block6-23.txt,37,37,1203,57.0,-10.0,2014-07-10,False,colocated,left
6,85.0639,0,730,2058,2857,4205,901,0.0,200,1,0,85.5477,0,0,16_07_2014 level23_spatial_F+V 15_27 Block6-32.txt,37,37,1203,57.0,-10.0,2014-07-16,False,colocated,left
82,868.3922,0,730,2058,2857,4205,901,0.0,200,1,1,869.1832,1,0,16_07_2014 level23_spatial_F+V 15_27 Block6-32.txt,37,37,1203,57.0,-10.0,2014-07-16,False,colocated,left
141,1365.8856,0,460,1105,2857,4205,951,0.0,200,0,1,1366.4266,0,1,16_07_2014 level23_spatial_F+V 15_27 Block6-32.txt,37,37,1203,57.0,-10.0,2014-07-16,False,colocated,right
10,103.3909,0,460,1105,2857,4205,701,0.0,200,0,0,104.2265,1,1,10_07_2014 level23_spatial_F+V 10_40 Block6-23.txt,37,37,1203,57.0,-10.0,2014-07-10,False,colocated,right
18,206.1553,0,460,1105,2857,4205,751,0.0,200,0,0,206.3881,1,1,16_07_2014 level23_spatial_F+V 15_27 Block6-32.txt,37,37,1203,57.0,-10.0,2014-07-16,False,colocated,right
24,209.1355,1,460,1105,2857,4205,751,0.0,200,0,0,213.7245,1,1,10_07_2014 level23_spatial_F+V 10_40 Block6-23.txt,37,37,1203,57.0,-10.0,2014-07-10,False,colocated,right
10,103.3909,0,460,1105,2857,4205,701,0.0,200,0,0,104.2265,1,1,10_07_2014 level23_spatial_F+V 10_40 Block6-23.txt,37,37,1203,57.0,-10.0,2014-07-10,False,colocated,right
48,438.6796,0,460,1105,2857,4205,751,0.0,200,0,0,439.7498,1,1,10_07_2014 level23_spatial_F+V 10_40 Block6-23.txt,37,37,1203,57.0,-10.0,2014-07-10,False,colocated,right
87,914.8002,0,460,1105,2857,4205,851,0.0,200,0,0,915.2379,1,1,16_07_2014 level23_spatial_F+V 15_27 Block6-32.txt,37,37,1203,57.0,-10.0,2014-07-16,False,colocated,right
87,914.8002,0,460,1105,2857,4205,851,0.0,200,0,0,915.2379,1,1,16_07_2014 level23_spatial_F+V 15_27 Block6-32.txt,37,37,1203,57.0,-10.0,2014-07-16,False,colocated,right
66,619.2211,0,460,1105,2857,4205,501,0.0,200,0,0,619.7598,1,1,10_07_2014 level23_spatial_F+V 10_40 Block6-23.txt,37,37,1203,57.0,-10.0,2014-07-10,False,colocated,right
24,209.1355,1,460,1105,2857,4205,751,0.0,200,0,0,213.7245,1,1,10_07_2014 level23_spatial_F+V 10_40 Block6-23.txt,37,37,1203,57.0,-10.0,2014-07-10,False,colocated,right
145,1253.4973,0,460,1105,2857,4205,801,0.0,200,0,0,1254.352,1,1,10_07_2014 level23_spatial_F+V 10_40 Block6-23.txt,37,37,1203,57.0,-10.0,2014-07-10,False,colocated,right
69,710.8836,0,460,1105,2857,4205,901,0.0,200,0,0,711.5218,1,1,16_07_2014 level23_spatial_F+V 15_27 Block6-32.txt,37,37,1203,57.0,-10.0,2014-07-16,False,colocated,right
66,619.2211,0,460,1105,2857,4205,501,0.0,200,0,0,619.7598,1,1,10_07_2014 level23_spatial_F+V 10_40 Block6-23.txt,37,37,1203,57.0,-10.0,2014-07-10,False,colocated,right
8,112.5774,0,460,1105,2857,4205,1001,0.0,200,0,0,112.952,1,1,16_07_2014 level23_spatial_F+V 15_27 Block6-32.txt,37,37,1203,57.0,-10.0,2014-07-16,False,colocated,right
66,687.4508,0,460,1105,2857,4205,651,0.0,200,0,0,688.0128,1,1,16_07_2014 level23_spatial_F+V 15_27 Block6-32.txt,37,37,1203,57.0,-10.0,2014-07-16,False,colocated,right
161,1382.0723,0,460,1105,2857,4205,551,0.0,200,0,0,1383.5497,1,1,10_07_2014 level23_spatial_F+V 10_40 Block6-23.txt,37,37,1203,57.0,-10.0,2014-07-10,False,colocated,right
171,1457.2623,0,460,1105,2857,4205,551,0.0,200,0,1,1457.9311,0,1,10_07_2014 level23_spatial_F+V 10_40 Block6-23.txt,37,37,1203,57.0,-10.0,2014-07-10,False,colocated,right
145,1253.4973,0,460,1105,2857,4205,801,0.0,200,0,0,1254.352,1,1,10_07_2014 level23_spatial_F+V 10_40 Block6-23.txt,37,37,1203,57.0,-10.0,2014-07-10,False,colocated,right
69,710.8836,0,460,1105,2857,4205,901,0.0,200,0,0,711.5218,1,1,16_07_2014 level23_spatial_F+V 15_27 Block6-32.txt,37,37,1203,57.0,-10.0,2014-07-16,False,colocated,right
43,441.2842,0,460,1105,2857,4205,551,0.0,200,0,0,441.8973,1,1,16_07_2014 level23_spatial_F+V 15_27 Block6-32.txt,37,37,1203,57.0,-10.0,2014-07-16,False,colocated,right
48,438.6796,0,460,1105,2857,4205,751,0.0,200,0,0,439.7498,1,1,10_07_2014 level23_spatial_F+V 10_40 Block6-23.txt,37,37,1203,57.0,-10.0,2014-07-10,False,colocated,right
69,710.8836,0,460,1105,2857,4205,901,0.0,200,0,0,711.5218,1,1,16_07_2014 level23_spatial_F+V 15_27 Block6-32.txt,37,37,1203,57.0,-10.0,2014-07-16,False,colocated,right
24,209.1355,1,460,1105,2857,4205,751,0.0,200,0,0,213.7245,1,1,10_07_2014 level23_spatial_F+V 10_40 Block6-23.txt,37,37,1203,57.0,-10.0,2014-07-10,False,colocated,right
87,914.8002,0,460,1105,2857,4205,851,0.0,200,0,0,915.2379,1,1,16_07_2014 level23_spatial_F+V 15_27 Block6-32.txt,37,37,1203,57.0,-10.0,2014-07-16,False,colocated,right
145,1253.4973,0,460,1105,2857,4205,801,0.0,200,0,0,1254.352,1,1,10_07_2014 level23_spatial_F+V 10_40 Block6-23.txt,37,37,1203,57.0,-10.0,2014-07-10,False,colocated,right
48,438.6796,0,460,1105,2857,4205,751,0.0,200,0,0,439.7498,1,1,10_07_2014 level23_spatial_F+V 10_40 Block6-23.txt,37,37,1203,57.0,-10.0,2014-07-10,False,colocated,right
69,710.8836,0,460,1105,2857,4205,901,0.0,200,0,0,711.5218,1,1,16_07_2014 level23_spatial_F+V 15_27 Block6-32.txt,37,37,1203,57.0,-10.0,2014-07-16,False,colocated,right
100,908.065,1,460,1105,2857,4205,951,0.0,200,0,1,908.5001,0,1,10_07_2014 level23_spatial_F+V 10_40 Block6-23.txt,37,37,1203,57.0,-10.0,2014-07-10,False,colocated,right
8,112.5774,0,460,1105,2857,4205,1001,0.0,200,0,0,112.952,1,1,16_07_2014 level23_spatial_F+V 15_27 Block6-32.txt,37,37,1203,57.0,-10.0,2014-07-16,False,colocated,right
66,687.4508,0,460,1105,2857,4205,651,0.0,200,0,0,688.0128,1,1,16_07_2014 level23_spatial_F+V 15_27 Block6-32.txt,37,37,1203,57.0,-10.0,2014-07-16,False,colocated,right
161,1382.0723,0,460,1105,2857,4205,551,0.0,200,0,0,1383.5497,1,1,10_07_2014 level23_spatial_F+V 10_40 Block6-23.txt,37,37,1203,57.0,-10.0,2014-07-10,False,colocated,right
66,687.4508,0,460,1105,2857,4205,651,0.0,200,0,0,688.0128,1,1,16_07_2014 level23_spatial_F+V 15_27 Block6-32.txt,37,37,1203,57.0,-10.0,2014-07-16,False,colocated,right
134,1314.2212,0,460,1105,2857,4205,501,0.0,200,0,0,1315.2768,1,1,16_07_2014 level23_spatial_F+V 15_27 Block6-32.txt,37,37,1203,57.0,-10.0,2014-07-16,False,colocated,right
48,438.6796,0,460,1105,2857,4205,751,0.0,200,0,0,439.7498,1,1,10_07_2014 level23_spatial_F+V 10_40 Block6-23.txt,37,37,1203,57.0,-10.0,2014-07-10,False,colocated,right
141,1365.8856,0,460,1105,2857,4205,951,0.0,200,0,1,1366.4266,0,1,16_07_2014 level23_spatial_F+V 15_27 Block6-32.txt,37,37,1203,57.0,-10.0,2014-07-16,False,colocated,right
100,908.065,1,460,1105,2857,4205,951,0.0,200,0,1,908.5001,0,1,10_07_2014 level23_spatial_F+V 10_40 Block6-23.txt,37,37,1203,57.0,-10.0,2014-07-10,False,colocated,right
65,612.6831,0,460,1105,2857,4205,551,0.0,200,0,0,613.168,1,1,10_07_2014 level23_spatial_F+V 10_40 Block6-23.txt,37,37,1203,57.0,-10.0,2014-07-10,False,colocated,right
69,710.8836,0,460,1105,2857,4205,901,0.0,200,0,0,711.5218,1,1,16_07_2014 level23_spatial_F+V 15_27 Block6-32.txt,37,37,1203,57.0,-10.0,2014-07-16,False,colocated,right
10,103.3909,0,460,1105,2857,4205,701,0.0,200,0,0,104.2265,1,1,10_07_2014 level23_spatial_F+V 10_40 Block6-23.txt,37,37,1203,57.0,-10.0,2014-07-10,False,colocated,right
87,914.8002,0,460,1105,2857,4205,851,0.0,200,0,0,915.2379,1,1,16_07_2014 level23_spatial_F+V 15_27 Block6-32.txt,37,37,1203,57.0,-10.0,2014-07-16,False,colocated,right
43,441.2842,0,460,1105,2857,4205,551,0.0,200,0,0,441.8973,1,1,16_07_2014 level23_spatial_F+V 15_27 Block6-32.txt,37,37,1203,57.0,-10.0,2014-07-16,False,colocated,right
145,1253.4973,0,460,1105,2857,4205,801,0.0,200,0,0,1254.352,1,1,10_07_2014 level23_spatial_F+V 10_40 Block6-23.txt,37,37,1203,57.0,-10.0,2014-07-10,False,colocated,right
24,209.1355,1,460,1105,2857,4205,751,0.0,200,0,0,213.7245,1,1,10_07_2014 level23_spatial_F+V 10_40 Block6-23.txt,37,37,1203,57.0,-10.0,2014-07-10,False,colocated,right
66,619.2211,0,460,1105,2857,4205,501,0.0,200,0,0,619.7598,1,1,10_07_2014 level23_spatial_F+V 10_40 Block6-23.txt,37,37,1203,57.0,-10.0,2014-07-10,False,colocated,right
141,1365.8856,0,460,1105,2857,4205,951,0.0,200,0,1,1366.4266,0,1,16_07_2014 level23_spatial_F+V 15_27 Block6-32.txt,37,37,1203,57.0,-10.0,2014-07-16,False,colocated,right
18,206.1553,0,460,1105,2857,4205,751,0.0,200,0,0,206.3881,1,1,16_07_2014 level23_spatial_F+V 15_27 Block6-32.txt,37,37,1203,57.0,-10.0,2014-07-16,False,colocated,right
