Trial,StartTime,CenterReward,F1,F2,F3,F4,HoldTime,Atten,Pitch,Side,Response,RespTime,Correct,SpatialMask,originalFile,LeftTemperature,RightTemperature,fNum,vowel_level,SNR,day,treatment,SpatialCondition,VowelLocation
81,787.9144,0,460,1105,2857,4205,601,10.0,200,0,1,788.6253,0,0,07_08_2014 level23_spatial_F+V 10_58 Block6-52.txt,37,37,1203,47.0,-20.0,2014-08-07,False,colocated,left
33,291.881,0,460,1105,2857,4205,651,10.0,200,0,1,292.9606,0,0,30_09_2014 level23_spatial_F+V 10_33 Block6-90.txt,37,37,1203,47.0,-20.0,2014-09-30,False,colocated,left
51,463.6459,0,460,1105,2857,4205,701,10.0,200,0,1,464.2805,0,0,30_09_2014 level23_spatial_F+V 10_33 Block6-90.txt,37,37,1203,47.0,-20.0,2014-09-30,False,colocated,left
51,526.5213,0,460,1105,2857,4205,601,10.0,200,0,0,529.4123,1,0,09_01_2015 level23_spatial_F+V 10_03 Block7-73.txt,37,37,1203,47.0,-20.0,2015-01-09,False,colocated,left
26,259.0597,0,460,1105,2857,4205,1001,10.0,200,0,0,259.2916,1,0,09_01_2015 level23_spatial_F+V 10_03 Block7-73.txt,37,37,1203,47.0,-20.0,2015-01-09,False,colocated,left
49,741.0366,0,460,1105,2857,4205,501,10.0,200,0,0,741.9545,1,0,02_02_2015 level23_spatial_F+V 15_29 Block8-22.txt,37,37,1203,47.0,-20.0,2015-02-02,False,colocated,left
3,30.9338,0,460,1105,2857,4205,1001,10.0,200,0,0,31.9823,1,0,01_04_2015 level23_spatial_F+V 09_00 Block9-7.txt,37,37,1203,47.0,-20.0,2015-04-01,False,colocated,left
95,1075.4208,0,460,1105,2857,4205,501,10.0,200,0,0,1075.8377,1,0,21_05_2015 level23_spatial_F+V 15_25 Block10-50.txt,37,37,1203,47.0,-20.0,2015-05-21,False,colocated,left
79,1094.0529,0,460,1105,2857,4205,501,10.0,200,0,0,1095.0919,1,0,14_10_2014 level23_spatial_F+V 11_14 Block7-3.txt,37,37,1203,47.0,-20.0,2014-10-14,False,colocated,left
7,73.9089,0,460,1105,2857,4205,851,10.0,200,0,1,74.6716,0,0,01_05_2015 level23_spatial_F+V 11_01 Block10-20.txt,37,37,1203,47.0,-20.0,2015-05-01,False,colocated,left
79,700.7776,0,460,1105,2857,4205,501,10.0,200,0,0,701.8664,1,0,27_11_2014 level23_spatial_F+V 10_30 Block7-35.txt,37,37,1203,47.0,-20.0,2014-11-27,False,colocated,left
33,291.881,0,460,1105,2857,4205,651,10.0,200,0,1,292.9606,0,0,30_09_2014 level23_spatial_F+V 10_33 Block6-90.txt,37,37,1203,47.0,-20.0,2014-09-30,False,colocated,left
50,732.4313,0,460,1105,2857,4205,501,10.0,200,0,1,733.3444,0,0,14_10_2014 level23_spatial_F+V 11_14 Block7-3.txt,37,37,1203,47.0,-20.0,2014-10-14,False,colocated,left
93,1361.4112,0,460,1105,2857,4205,801,10.0,200,0,0,1361.9803,1,0,02_02_2015 level23_spatial_F+V 15_29 Block8-22.txt,37,37,1203,47.0,-20.0,2015-02-02,False,colocated,left
101,875.9365,0,460,1105,2857,4205,801,10.0,200,0,0,876.3797,1,0,27_11_2014 level23_spatial_F+V 10_30 Block7-35.txt,37,37,1203,47.0,-20.0,2014-11-27,False,colocated,left
63,731.5424,0,460,1105,2857,4205,651,10.0,200,0,0,732.1244,1,0,30_04_2015 level23_spatial_F+V 09_28 Block10-18.txt,37,37,1203,47.0,-20.0,2015-04-30,False,colocated,left
93,1361.4112,0,460,1105,2857,4205,801,10.0,200,0,0,1361.9803,1,0,02_02_2015 level23_spatial_F+V 15_29 Block8-22.txt,37,37,1203,47.0,-20.0,2015-02-02,False,colocated,left
71,910.2043,0,460,1105,2857,4205,501,10.0,200,0,0,910.8158,1,0,21_05_2015 level23_spatial_F+V 09_38 Block10-49.txt,37,37,1203,47.0,-20.0,2015-05-21,False,colocated,left
114,1280.9055,0,460,1105,2857,4205,951,10.0,200,0,1,1281.8231,0,0,21_05_2015 level23_spatial_F+V 15_25 Block10-50.txt,37,37,1203,47.0,-20.0,2015-05-21,False,colocated,left
80,857.617,0,460,1105,2857,4205,751,10.0,200,0,1,858.7365,0,0,02_02_2015 level23_spatial_F+V 09_47 Block8-20.txt,37,37,1203,47.0,-20.0,2015-02-02,False,colocated,left
105,904.2942,0,460,1105,2857,4205,901,10.0,200,0,0,904.6059,1,0,27_11_2014 level23_spatial_F+V 10_30 Block7-35.txt,37,37,1203,47.0,-20.0,2014-11-27,False,colocated,left
93,1361.4112,0,460,1105,2857,4205,801,10.0,200,0,0,1361.9803,1,0,02_02_2015 level23_spatial_F+V 15_29 Block8-22.txt,37,37,1203,47.0,-20.0,2015-02-02,False,colocated,left
68,692.6735,0,460,1105,2857,4205,701,10.0,200,0,0,693.5314,1,0,09_01_2015 level23_spatial_F+V 10_03 Block7-73.txt,37,37,1203,47.0,-20.0,2015-01-09,False,colocated,left
38,412.5396,0,460,1105,2857,4205,551,10.0,200,0,0,412.9685,1,0,01_05_2015 level23_spatial_F+V 11_01 Block10-20.txt,37,37,1203,47.0,-20.0,2015-05-01,False,colocated,left
67,944.5484,0,460,1105,2857,4205,801,10.0,200,0,0,946.1134,1,0,14_10_2014 level23_spatial_F+V 11_14 Block7-3.txt,37,37,1203,47.0,-20.0,2014-10-14,False,colocated,left
48,486.0058,0,460,1105,2857,4205,701,10.0,200,0,0,486.412,1,0,01_04_2015 level23_spatial_F+V 14_59 Block9-8.txt,37,37,1203,47.0,-20.0,2015-04-01,False,colocated,left
13,162.5584,0,460,1105,2857,4205,701,10.0,200,0,0,163.2286,1,0,02_02_2015 level23_spatial_F+V 09_47 Block8-20.txt,37,37,1203,47.0,-20.0,2015-02-02,False,colocated,left
71,655.1661,0,460,1105,2857,4205,901,10.0,200,0,1,655.6956,0,0,30_09_2014 level23_spatial_F+V 10_33 Block6-90.txt,37,37,1203,47.0,-20.0,2014-09-30,False,colocated,left
74,723.4189,0,460,1105,2857,4205,501,10.0,200,0,0,724.2624,1,0,01_04_2015 level23_spatial_F+V 14_59 Block9-8.txt,37,37,1203,47.0,-20.0,2015-04-01,False,colocated,left
16,148.6347,0,460,1105,2857,4205,501,10.0,200,0,0,148.995,1,0,27_11_2014 level23_spatial_F+V 10_30 Block7-35.txt,37,37,1203,47.0,-20.0,2014-11-27,False,colocated,left
124,1402.097,0,460,1105,2857,4205,701,10.0,200,0,0,1402.5725,1,0,21_05_2015 level23_spatial_F+V 15_25 Block10-50.txt,37,37,1203,47.0,-20.0,2015-05-21,False,colocated,left
73,768.2132,0,460,1105,2857,4205,901,10.0,200,0,0,769.009,1,0,20_03_2015 level23_spatial_F+V 09_02 Block9-1.txt,37,37,1203,47.0,-20.0,2015-03-20,False,colocated,left
78,974.561,0,460,1105,2857,4205,951,10.0,200,0,0,974.89,1,0,21_05_2015 level23_spatial_F+V 09_38 Block10-49.txt,37,37,1203,47.0,-20.0,2015-05-21,False,colocated,left
3,36.0888,0,460,1105,2857,4205,951,10.0,200,0,0,36.5094,1,0,02_02_2015 level23_spatial_F+V 15_29 Block8-22.txt,37,37,1203,47.0,-20.0,2015-02-02,False,colocated,left
48,731.6555,0,460,1105,2857,4205,701,10.0,200,0,0,732.4301,1,0,02_02_2015 level23_spatial_F+V 15_29 Block8-22.txt,37,37,1203,47.0,-20.0,2015-02-02,False,colocated,left
3,36.0888,0,460,1105,2857,4205,951,10.0,200,0,0,36.5094,1,0,02_02_2015 level23_spatial_F+V 15_29 Block8-22.txt,37,37,1203,47.0,-20.0,2015-02-02,False,colocated,left
101,875.9365,0,460,1105,2857,4205,801,10.0,200,0,0,876.3797,1,0,27_11_2014 level23_spatial_F+V 10_30 Block7-35.txt,37,37,1203,47.0,-20.0,2014-11-27,False,colocated,left
25,196.2586,0,460,1105,2857,4205,1001,10.0,200,0,0,196.804,1,0,10_12_2014 level23_spatial_F+V 15_48 Block7-51.txt,37,37,1203,47.0,-20.0,2014-12-10,False,colocated,left
98,1342.4962,0,460,1105,2857,4205,901,10.0,200,0,1,1343.2211,0,0,01_05_2015 level23_spatial_F+V 11_01 Block10-20.txt,37,37,1203,47.0,-20.0,2015-05-01,False,colocated,left
16,148.6347,0,460,1105,2857,4205,501,10.0,200,0,0,148.995,1,0,27_11_2014 level23_spatial_F+V 10_30 Block7-35.txt,37,37,1203,47.0,-20.0,2014-11-27,False,colocated,left
101,1366.2377,0,460,1105,2857,4205,901,10.0,200,0,0,1366.7289,1,0,01_05_2015 level23_spatial_F+V 11_01 Block10-20.txt,37,37,1203,47.0,-20.0,2015-05-01,False,colocated,left
97,1087.7928,0,460,1105,2857,4205,601,10.0,200,0,0,1088.2351,1,0,21_05_2015 level23_spatial_F+V 15_25 Block10-50.txt,37,37,1203,47.0,-20.0,2015-05-21,False,colocated,left
11,100.6849,0,460,1105,2857,4205,851,10.0,200,0,0,100.9406,1,0,27_11_2014 level23_spatial_F+V 10_30 Block7-35.txt,37,37,1203,47.0,-20.0,2014-11-27,False,colocated,left
18,197.131,0,460,1105,2857,4205,601,10.0,200,0,0,197.6631,1,0,21_05_2015 level23_spatial_F+V 09_38 Block10-49.txt,37,37,1203,47.0,-20.0,2015-05-21,False,colocated,left
67,944.5484,0,460,1105,2857,4205,801,10.0,200,0,0,946.1134,1,0,14_10_2014 level23_spatial_F+V 11_14 Block7-3.txt,37,37,1203,47.0,-20.0,2014-10-14,False,colocated,left
88,1224.4777,0,460,1105,2857,4205,851,10.0,200,0,0,1225.6587,1,0,14_10_2014 level23_spatial_F+V 11_14 Block7-3.txt,37,37,1203,47.0,-20.0,2014-10-14,False,colocated,left
66,590.2965,0,460,1105,2857,4205,551,10.0,200,0,0,594.4298,1,0,27_11_2014 level23_spatial_F+V 10_30 Block7-35.txt,37,37,1203,47.0,-20.0,2014-11-27,False,colocated,left
73,717.561,0,460,1105,2857,4205,651,10.0,200,0,0,718.0445,1,0,01_04_2015 level23_spatial_F+V 14_59 Block9-8.txt,37,37,1203,47.0,-20.0,2015-04-01,False,colocated,left
73,768.2132,0,460,1105,2857,4205,901,10.0,200,0,0,769.009,1,0,20_03_2015 level23_spatial_F+V 09_02 Block9-1.txt,37,37,1203,47.0,-20.0,2015-03-20,False,colocated,left
81,787.9144,0,460,1105,2857,4205,601,10.0,200,0,1,788.6253,0,0,07_08_2014 level23_spatial_F+V 10_58 Block6-52.txt,37,37,1203,47.0,-20.0,2014-08-07,False,colocated,left
13,162.5584,0,460,1105,2857,4205,701,10.0,200,0,0,163.2286,1,0,02_02_2015 level23_spatial_F+V 09_47 Block8-20.txt,37,37,1203,47.0,-20.0,2015-02-02,False,colocated,left
33,291.881,0,460,1105,2857,4205,651,10.0,200,0,1,292.9606,0,0,30_09_2014 level23_spatial_F+V 10_33 Block6-90.txt,37,37,1203,47.0,-20.0,2014-09-30,False,colocated,left
27,300.7101,0,460,1105,2857,4205,901,10.0,200,0,1,301.0908,0,0,20_03_2015 level23_spatial_F+V 09_02 Block9-1.txt,37,37,1203,47.0,-20.0,2015-03-20,False,colocated,left
45,497.5964,0,460,1105,2857,4205,1001,10.0,200,0,1,499.0048,0,0,02_02_2015 level23_spatial_F+V 09_47 Block8-20.txt,37,37,1203,47.0,-20.0,2015-02-02,False,colocated,left
3,49.9628,0,460,1105,2857,4205,751,10.0,200,0,1,50.8327,0,0,30_10_2014 level23_spatial_F+V 15_27 Block7-18.txt,37,37,1203,47.0,-20.0,2014-10-30,False,colocated,left
41,444.6735,0,460,1105,2857,4205,551,10.0,200,0,0,445.3336,1,0,01_05_2015 level23_spatial_F+V 11_01 Block10-20.txt,37,37,1203,47.0,-20.0,2015-05-01,False,colocated,left
16,163.3854,0,460,1105,2857,4205,1001,10.0,200,0,0,163.8484,1,0,07_08_2014 level23_spatial_F+V 10_50 Block6-51.txt,37,37,1203,47.0,-20.0,2014-08-07,False,colocated,left
92,1015.3525,0,460,1105,2857,4205,801,10.0,200,0,0,1015.7715,1,0,20_03_2015 level23_spatial_F+V 09_02 Block9-1.txt,37,37,1203,47.0,-20.0,2015-03-20,False,colocated,left
63,731.5424,0,460,1105,2857,4205,651,10.0,200,0,0,732.1244,1,0,30_04_2015 level23_spatial_F+V 09_28 Block10-18.txt,37,37,1203,47.0,-20.0,2015-04-30,False,colocated,left
48,486.0058,0,460,1105,2857,4205,701,10.0,200,0,0,486.412,1,0,01_04_2015 level23_spatial_F+V 14_59 Block9-8.txt,37,37,1203,47.0,-20.0,2015-04-01,False,colocated,left
27,333.5366,0,460,1105,2857,4205,701,10.0,200,0,0,334.4719,1,0,21_05_2015 level23_spatial_F+V 15_25 Block10-50.txt,37,37,1203,47.0,-20.0,2015-05-21,False,colocated,left
45,497.5964,0,460,1105,2857,4205,1001,10.0,200,0,1,499.0048,0,0,02_02_2015 level23_spatial_F+V 09_47 Block8-20.txt,37,37,1203,47.0,-20.0,2015-02-02,False,colocated,left
88,1224.4777,0,460,1105,2857,4205,851,10.0,200,0,0,1225.6587,1,0,14_10_2014 level23_spatial_F+V 11_14 Block7-3.txt,37,37,1203,47.0,-20.0,2014-10-14,False,colocated,left
25,196.2586,0,460,1105,2857,4205,1001,10.0,200,0,0,196.804,1,0,10_12_2014 level23_spatial_F+V 15_48 Block7-51.txt,37,37,1203,47.0,-20.0,2014-12-10,False,colocated,left
68,692.6735,0,460,1105,2857,4205,701,10.0,200,0,0,693.5314,1,0,09_01_2015 level23_spatial_F+V 10_03 Block7-73.txt,37,37,1203,47.0,-20.0,2015-01-09,False,colocated,left
41,444.6735,0,460,1105,2857,4205,551,10.0,200,0,0,445.3336,1,0,01_05_2015 level23_spatial_F+V 11_01 Block10-20.txt,37,37,1203,47.0,-20.0,2015-05-01,False,colocated,left
124,1402.097,0,460,1105,2857,4205,701,10.0,200,0,0,1402.5725,1,0,21_05_2015 level23_spatial_F+V 15_25 Block10-50.txt,37,37,1203,47.0,-20.0,2015-05-21,False,colocated,left
56,698.4912,1,460,1105,2857,4205,501,10.0,200,0,1,699.3594,0,0,21_05_2015 level23_spatial_F+V 09_38 Block10-49.txt,37,37,1203,47.0,-20.0,2015-05-21,False,colocated,left
79,1094.0529,0,460,1105,2857,4205,501,10.0,200,0,0,1095.0919,1,0,14_10_2014 level23_spatial_F+V 11_14 Block7-3.txt,37,37,1203,47.0,-20.0,2014-10-14,False,colocated,left
7,73.9089,0,460,1105,2857,4205,851,10.0,200,0,1,74.6716,0,0,01_05_2015 level23_spatial_F+V 11_01 Block10-20.txt,37,37,1203,47.0,-20.0,2015-05-01,False,colocated,left
50,732.4313,0,460,1105,2857,4205,501,10.0,200,0,1,733.3444,0,0,14_10_2014 level23_spatial_F+V 11_14 Block7-3.txt,37,37,1203,47.0,-20.0,2014-10-14,False,colocated,left
50,519.3196,1,460,1105,2857,4205,851,10.0,200,0,0,519.9942,1,0,09_01_2015 level23_spatial_F+V 10_03 Block7-73.txt,37,37,1203,47.0,-20.0,2015-01-09,False,colocated,left
19,236.7569,0,460,1105,2857,4205,701,10.0,200,0,0,237.183,1,0,30_04_2015 level23_spatial_F+V 09_28 Block10-18.txt,37,37,1203,47.0,-20.0,2015-04-30,False,colocated,left
73,717.561,0,460,1105,2857,4205,651,10.0,200,0,0,718.0445,1,0,01_04_2015 level23_spatial_F+V 14_59 Block9-8.txt,37,37,1203,47.0,-20.0,2015-04-01,False,colocated,left
1,6.8059,0,460,1105,2857,4205,701,10.0,200,0,1,7.4025,0,0,07_08_2014 level23_spatial_F+V 10_58 Block6-52.txt,37,37,1203,47.0,-20.0,2014-08-07,False,colocated,left
50,519.3196,1,460,1105,2857,4205,851,10.0,200,0,0,519.9942,1,0,09_01_2015 level23_spatial_F+V 10_03 Block7-73.txt,37,37,1203,47.0,-20.0,2015-01-09,False,colocated,left
79,1094.0529,0,460,1105,2857,4205,501,10.0,200,0,0,1095.0919,1,0,14_10_2014 level23_spatial_F+V 11_14 Block7-3.txt,37,37,1203,47.0,-20.0,2014-10-14,False,colocated,left
38,412.5396,0,460,1105,2857,4205,551,10.0,200,0,0,412.9685,1,0,01_05_2015 level23_spatial_F+V 11_01 Block10-20.txt,37,37,1203,47.0,-20.0,2015-05-01,False,colocated,left
3,30.9338,0,460,1105,2857,4205,1001,10.0,200,0,0,31.9823,1,0,01_04_2015 level23_spatial_F+V 09_00 Block9-7.txt,37,37,1203,47.0,-20.0,2015-04-01,False,colocated,left
13,162.5584,0,460,1105,2857,4205,701,10.0,200,0,0,163.2286,1,0,02_02_2015 level23_spatial_F+V 09_47 Block8-20.txt,37,37,1203,47.0,-20.0,2015-02-02,False,colocated,left
22,237.9746,0,460,1105,2857,4205,801,10.0,200,0,0,238.512,1,0,20_03_2015 level23_spatial_F+V 09_02 Block9-1.txt,37,37,1203,47.0,-20.0,2015-03-20,False,colocated,left
68,692.6735,0,460,1105,2857,4205,701,10.0,200,0,0,693.5314,1,0,09_01_2015 level23_spatial_F+V 10_03 Block7-73.txt,37,37,1203,47.0,-20.0,2015-01-09,False,colocated,left
38,582.0685,0,460,1105,2857,4205,901,10.0,200,0,0,583.2645,1,0,14_10_2014 level23_spatial_F+V 11_14 Block7-3.txt,37,37,1203,47.0,-20.0,2014-10-14,False,colocated,left
78,974.561,0,460,1105,2857,4205,951,10.0,200,0,0,974.89,1,0,21_05_2015 level23_spatial_F+V 09_38 Block10-49.txt,37,37,1203,47.0,-20.0,2015-05-21,False,colocated,left
67,944.5484,0,460,1105,2857,4205,801,10.0,200,0,0,946.1134,1,0,14_10_2014 level23_spatial_F+V 11_14 Block7-3.txt,37,37,1203,47.0,-20.0,2014-10-14,False,colocated,left
105,904.2942,0,460,1105,2857,4205,901,10.0,200,0,0,904.6059,1,0,27_11_2014 level23_spatial_F+V 10_30 Block7-35.txt,37,37,1203,47.0,-20.0,2014-11-27,False,colocated,left
38,582.0685,0,460,1105,2857,4205,901,10.0,200,0,0,583.2645,1,0,14_10_2014 level23_spatial_F+V 11_14 Block7-3.txt,37,37,1203,47.0,-20.0,2014-10-14,False,colocated,left
95,1075.4208,0,460,1105,2857,4205,501,10.0,200,0,0,1075.8377,1,0,21_05_2015 level23_spatial_F+V 15_25 Block10-50.txt,37,37,1203,47.0,-20.0,2015-05-21,False,colocated,left
71,655.1661,0,460,1105,2857,4205,901,10.0,200,0,1,655.6956,0,0,30_09_2014 level23_spatial_F+V 10_33 Block6-90.txt,37,37,1203,47.0,-20.0,2014-09-30,False,colocated,left
81,787.9144,0,460,1105,2857,4205,601,10.0,200,0,1,788.6253,0,0,07_08_2014 level23_spatial_F+V 10_58 Block6-52.txt,37,37,1203,47.0,-20.0,2014-08-07,False,colocated,left
67,944.5484,0,460,1105,2857,4205,801,10.0,200,0,0,946.1134,1,0,14_10_2014 level23_spatial_F+V 11_14 Block7-3.txt,37,37,1203,47.0,-20.0,2014-10-14,False,colocated,left
20,160.1233,0,730,2058,2857,4205,801,10.0,200,1,1,160.8654,1,0,10_12_2014 level23_spatial_F+V 15_48 Block7-51.txt,37,37,1203,47.0,-20.0,2014-12-10,False,colocated,left
31,490.3877,0,730,2058,2857,4205,951,10.0,200,1,1,505.9997,1,0,30_10_2014 level23_spatial_F+V 15_27 Block7-18.txt,37,37,1203,47.0,-20.0,2014-10-30,False,colocated,left
20,231.0443,0,730,2058,2857,4205,751,10.0,200,1,1,231.7359,1,0,07_08_2014 level23_spatial_F+V 10_58 Block6-52.txt,37,37,1203,47.0,-20.0,2014-08-07,False,colocated,left
96,1319.4478,0,730,2058,2857,4205,851,10.0,200,1,1,1320.4819,1,0,01_05_2015 level23_spatial_F+V 11_01 Block10-20.txt,37,37,1203,47.0,-20.0,2015-05-01,False,colocated,left
26,227.9994,0,730,2058,2857,4205,551,10.0,200,1,1,228.3891,1,0,30_09_2014 level23_spatial_F+V 10_33 Block6-90.txt,37,37,1203,47.0,-20.0,2014-09-30,False,colocated,left
64,682.0073,0,730,2058,2857,4205,951,10.0,200,1,1,682.7173,1,0,20_03_2015 level23_spatial_F+V 09_02 Block9-1.txt,37,37,1203,47.0,-20.0,2015-03-20,False,colocated,left
15,148.0412,0,730,2058,2857,4205,651,10.0,200,1,0,148.4205,0,0,20_03_2015 level23_spatial_F+V 09_02 Block9-1.txt,37,37,1203,47.0,-20.0,2015-03-20,False,colocated,left
124,1243.2503,0,730,2058,2857,4205,801,10.0,200,1,0,1243.985,0,0,09_01_2015 level23_spatial_F+V 10_03 Block7-73.txt,37,37,1203,47.0,-20.0,2015-01-09,False,colocated,left
63,569.4926,0,730,2058,2857,4205,851,10.0,200,1,1,570.2571,1,0,27_11_2014 level23_spatial_F+V 10_30 Block7-35.txt,37,37,1203,47.0,-20.0,2014-11-27,False,colocated,left
100,1453.0068,0,730,2058,2857,4205,1001,10.0,200,1,1,1453.53,1,0,02_02_2015 level23_spatial_F+V 15_29 Block8-22.txt,37,37,1203,47.0,-20.0,2015-02-02,False,colocated,left
27,277.8369,1,730,2058,2857,4205,901,10.0,200,1,0,279.5832,0,0,01_04_2015 level23_spatial_F+V 14_59 Block9-8.txt,37,37,1203,47.0,-20.0,2015-04-01,False,colocated,left
52,554.5721,0,730,2058,2857,4205,651,10.0,200,1,0,560.3931,0,0,20_03_2015 level23_spatial_F+V 09_02 Block9-1.txt,37,37,1203,47.0,-20.0,2015-03-20,False,colocated,left
1,8.595,1,730,2058,2857,4205,801,10.0,200,1,1,9.6781,1,0,01_04_2015 level23_spatial_F+V 09_00 Block9-7.txt,37,37,1203,47.0,-20.0,2015-04-01,False,colocated,left
15,148.0412,0,730,2058,2857,4205,651,10.0,200,1,0,148.4205,0,0,20_03_2015 level23_spatial_F+V 09_02 Block9-1.txt,37,37,1203,47.0,-20.0,2015-03-20,False,colocated,left
22,225.4608,0,730,2058,2857,4205,551,10.0,200,1,0,226.2999,0,0,01_04_2015 level23_spatial_F+V 14_59 Block9-8.txt,37,37,1203,47.0,-20.0,2015-04-01,False,colocated,left
52,554.5721,0,730,2058,2857,4205,651,10.0,200,1,0,560.3931,0,0,20_03_2015 level23_spatial_F+V 09_02 Block9-1.txt,37,37,1203,47.0,-20.0,2015-03-20,False,colocated,left
23,351.2669,0,730,2058,2857,4205,551,10.0,200,1,1,352.1795,1,0,02_02_2015 level23_spatial_F+V 15_29 Block8-22.txt,37,37,1203,47.0,-20.0,2015-02-02,False,colocated,left
21,216.3235,1,730,2058,2857,4205,651,10.0,200,1,0,216.8586,0,0,21_05_2015 level23_spatial_F+V 09_38 Block10-49.txt,37,37,1203,47.0,-20.0,2015-05-21,False,colocated,left
74,746.4192,0,730,2058,2857,4205,601,10.0,200,1,1,747.0769,1,0,07_08_2014 level23_spatial_F+V 10_58 Block6-52.txt,37,37,1203,47.0,-20.0,2014-08-07,False,colocated,left
29,348.359,0,730,2058,2857,4205,751,10.0,200,1,0,348.818,0,0,21_05_2015 level23_spatial_F+V 15_25 Block10-50.txt,37,37,1203,47.0,-20.0,2015-05-21,False,colocated,left
132,1252.3817,1,730,2058,2857,4205,901,10.0,200,1,0,1252.8163,0,0,07_08_2014 level23_spatial_F+V 10_58 Block6-52.txt,37,37,1203,47.0,-20.0,2014-08-07,False,colocated,left
61,622.8431,0,730,2058,2857,4205,801,10.0,200,1,0,623.5852,0,0,09_01_2015 level23_spatial_F+V 10_03 Block7-73.txt,37,37,1203,47.0,-20.0,2015-01-09,False,colocated,left
84,891.4489,0,730,2058,2857,4205,551,10.0,200,1,0,892.0731,0,0,02_02_2015 level23_spatial_F+V 09_47 Block8-20.txt,37,37,1203,47.0,-20.0,2015-02-02,False,colocated,left
63,569.4926,0,730,2058,2857,4205,851,10.0,200,1,1,570.2571,1,0,27_11_2014 level23_spatial_F+V 10_30 Block7-35.txt,37,37,1203,47.0,-20.0,2014-11-27,False,colocated,left
46,676.7252,0,730,2058,2857,4205,601,10.0,200,1,0,679.3221,0,0,14_10_2014 level23_spatial_F+V 11_14 Block7-3.txt,37,37,1203,47.0,-20.0,2014-10-14,False,colocated,left
15,174.8427,0,730,2058,2857,4205,851,10.0,200,1,1,175.521,1,0,21_05_2015 level23_spatial_F+V 15_25 Block10-50.txt,37,37,1203,47.0,-20.0,2015-05-21,False,colocated,left
2,13.198,0,730,2058,2857,4205,501,10.0,200,1,0,13.4813,0,0,21_05_2015 level23_spatial_F+V 09_38 Block10-49.txt,37,37,1203,47.0,-20.0,2015-05-21,False,colocated,left
10,112.1612,0,730,2058,2857,4205,801,10.0,200,1,0,112.7652,0,0,07_08_2014 level23_spatial_F+V 10_58 Block6-52.txt,37,37,1203,47.0,-20.0,2014-08-07,False,colocated,left
63,569.4926,0,730,2058,2857,4205,851,10.0,200,1,1,570.2571,1,0,27_11_2014 level23_spatial_F+V 10_30 Block7-35.txt,37,37,1203,47.0,-20.0,2014-11-27,False,colocated,left
29,348.359,0,730,2058,2857,4205,751,10.0,200,1,0,348.818,0,0,21_05_2015 level23_spatial_F+V 15_25 Block10-50.txt,37,37,1203,47.0,-20.0,2015-05-21,False,colocated,left
1,8.595,1,730,2058,2857,4205,801,10.0,200,1,1,9.6781,1,0,01_04_2015 level23_spatial_F+V 09_00 Block9-7.txt,37,37,1203,47.0,-20.0,2015-04-01,False,colocated,left
23,351.2669,0,730,2058,2857,4205,551,10.0,200,1,1,352.1795,1,0,02_02_2015 level23_spatial_F+V 15_29 Block8-22.txt,37,37,1203,47.0,-20.0,2015-02-02,False,colocated,left
15,148.0412,0,730,2058,2857,4205,651,10.0,200,1,0,148.4205,0,0,20_03_2015 level23_spatial_F+V 09_02 Block9-1.txt,37,37,1203,47.0,-20.0,2015-03-20,False,colocated,left
81,886.9265,0,730,2058,2857,4205,601,10.0,200,1,0,887.3697,0,0,20_03_2015 level23_spatial_F+V 09_02 Block9-1.txt,37,37,1203,47.0,-20.0,2015-03-20,False,colocated,left
51,556.9069,0,730,2058,2857,4205,651,10.0,200,1,1,557.462,1,0,02_02_2015 level23_spatial_F+V 09_47 Block8-20.txt,37,37,1203,47.0,-20.0,2015-02-02,False,colocated,left
19,204.5113,0,730,2058,2857,4205,951,10.0,200,1,1,205.0777,1,0,01_05_2015 level23_spatial_F+V 11_01 Block10-20.txt,37,37,1203,47.0,-20.0,2015-05-01,False,colocated,left
101,1368.588,0,730,2058,2857,4205,651,10.0,200,1,0,1369.5466,0,0,14_10_2014 level23_spatial_F+V 11_14 Block7-3.txt,37,37,1203,47.0,-20.0,2014-10-14,False,colocated,left
81,1224.2572,1,730,2058,2857,4205,751,10.0,200,1,1,1224.9033,1,0,02_02_2015 level23_spatial_F+V 15_29 Block8-22.txt,37,37,1203,47.0,-20.0,2015-02-02,False,colocated,left
64,682.0073,0,730,2058,2857,4205,951,10.0,200,1,1,682.7173,1,0,20_03_2015 level23_spatial_F+V 09_02 Block9-1.txt,37,37,1203,47.0,-20.0,2015-03-20,False,colocated,left
19,186.1401,0,730,2058,2857,4205,501,10.0,200,1,0,188.1246,0,0,07_08_2014 level23_spatial_F+V 10_50 Block6-51.txt,37,37,1203,47.0,-20.0,2014-08-07,False,colocated,left
20,231.0443,0,730,2058,2857,4205,751,10.0,200,1,1,231.7359,1,0,07_08_2014 level23_spatial_F+V 10_58 Block6-52.txt,37,37,1203,47.0,-20.0,2014-08-07,False,colocated,left
2,11.5528,0,730,2058,2857,4205,551,10.0,200,1,1,12.0708,1,0,02_02_2015 level23_spatial_F+V 09_47 Block8-20.txt,37,37,1203,47.0,-20.0,2015-02-02,False,colocated,left
56,994.6182,0,730,2058,2857,4205,601,10.0,200,1,0,995.2806,0,0,30_10_2014 level23_spatial_F+V 15_27 Block7-18.txt,37,37,1203,47.0,-20.0,2014-10-30,False,colocated,left
52,637.9484,0,730,2058,2857,4205,601,10.0,200,1,0,638.4882,0,0,21_05_2015 level23_spatial_F+V 09_38 Block10-49.txt,37,37,1203,47.0,-20.0,2015-05-21,False,colocated,left
96,1319.4478,0,730,2058,2857,4205,851,10.0,200,1,1,1320.4819,1,0,01_05_2015 level23_spatial_F+V 11_01 Block10-20.txt,37,37,1203,47.0,-20.0,2015-05-01,False,colocated,left
60,611.7272,0,730,2058,2857,4205,551,10.0,200,1,1,612.498,1,0,09_01_2015 level23_spatial_F+V 10_03 Block7-73.txt,37,37,1203,47.0,-20.0,2015-01-09,False,colocated,left
48,520.0771,0,730,2058,2857,4205,551,10.0,200,1,0,520.5561,0,0,20_03_2015 level23_spatial_F+V 09_02 Block9-1.txt,37,37,1203,47.0,-20.0,2015-03-20,False,colocated,left
53,541.1244,0,730,2058,2857,4205,651,10.0,200,1,0,546.1764,0,0,09_01_2015 level23_spatial_F+V 10_03 Block7-73.txt,37,37,1203,47.0,-20.0,2015-01-09,False,colocated,left
74,746.4192,0,730,2058,2857,4205,601,10.0,200,1,1,747.0769,1,0,07_08_2014 level23_spatial_F+V 10_58 Block6-52.txt,37,37,1203,47.0,-20.0,2014-08-07,False,colocated,left
105,1019.4638,1,730,2058,2857,4205,1001,10.0,200,1,1,1020.1075,1,0,07_08_2014 level23_spatial_F+V 10_58 Block6-52.txt,37,37,1203,47.0,-20.0,2014-08-07,False,colocated,left
75,872.2301,0,730,2058,2857,4205,801,10.0,200,1,1,872.9896,1,0,30_04_2015 level23_spatial_F+V 09_28 Block10-18.txt,37,37,1203,47.0,-20.0,2015-04-30,False,colocated,left
61,656.9152,0,730,2058,2857,4205,801,10.0,200,1,1,657.4533,1,0,02_02_2015 level23_spatial_F+V 09_47 Block8-20.txt,37,37,1203,47.0,-20.0,2015-02-02,False,colocated,left
19,204.5113,0,730,2058,2857,4205,951,10.0,200,1,1,205.0777,1,0,01_05_2015 level23_spatial_F+V 11_01 Block10-20.txt,37,37,1203,47.0,-20.0,2015-05-01,False,colocated,left
89,1023.3821,0,730,2058,2857,4205,901,10.0,200,1,1,1023.3886,1,0,21_05_2015 level23_spatial_F+V 15_25 Block10-50.txt,37,37,1203,47.0,-20.0,2015-05-21,False,colocated,left
95,1300.3402,1,730,2058,2857,4205,701,10.0,200,1,1,1301.6394,1,0,14_10_2014 level23_spatial_F+V 11_14 Block7-3.txt,37,37,1203,47.0,-20.0,2014-10-14,False,colocated,left
104,1226.9415,0,730,2058,2857,4205,851,10.0,200,1,0,1227.484,0,0,30_04_2015 level23_spatial_F+V 09_28 Block10-18.txt,37,37,1203,47.0,-20.0,2015-04-30,False,colocated,left
33,361.5397,0,730,2058,2857,4205,651,10.0,200,1,0,363.3036,0,0,07_08_2014 level23_spatial_F+V 10_58 Block6-52.txt,37,37,1203,47.0,-20.0,2014-08-07,False,colocated,left
14,166.5273,1,730,2058,2857,4205,851,10.0,200,1,1,167.6044,1,0,14_10_2014 level23_spatial_F+V 11_14 Block7-3.txt,37,37,1203,47.0,-20.0,2014-10-14,False,colocated,left
78,883.3998,0,730,2058,2857,4205,751,10.0,200,1,1,884.2992,1,0,01_05_2015 level23_spatial_F+V 11_01 Block10-20.txt,37,37,1203,47.0,-20.0,2015-05-01,False,colocated,left
20,231.0443,0,730,2058,2857,4205,751,10.0,200,1,1,231.7359,1,0,07_08_2014 level23_spatial_F+V 10_58 Block6-52.txt,37,37,1203,47.0,-20.0,2014-08-07,False,colocated,left
24,223.6724,1,730,2058,2857,4205,601,10.0,200,1,0,224.4148,0,0,09_01_2015 level23_spatial_F+V 10_03 Block7-73.txt,37,37,1203,47.0,-20.0,2015-01-09,False,colocated,left
70,799.6676,1,730,2058,2857,4205,1001,10.0,200,1,0,807.5017,0,0,30_04_2015 level23_spatial_F+V 09_28 Block10-18.txt,37,37,1203,47.0,-20.0,2015-04-30,False,colocated,left
38,434.0772,0,730,2058,2857,4205,501,10.0,200,1,0,435.028,0,0,30_04_2015 level23_spatial_F+V 09_28 Block10-18.txt,37,37,1203,47.0,-20.0,2015-04-30,False,colocated,left
47,710.0437,0,730,2058,2857,4205,851,10.0,200,1,1,712.6739,1,0,02_02_2015 level23_spatial_F+V 15_29 Block8-22.txt,37,37,1203,47.0,-20.0,2015-02-02,False,colocated,left
28,309.0085,0,730,2058,2857,4205,1001,10.0,200,1,1,309.4276,1,0,02_02_2015 level23_spatial_F+V 09_47 Block8-20.txt,37,37,1203,47.0,-20.0,2015-02-02,False,colocated,left
31,272.0163,0,730,2058,2857,4205,551,10.0,200,1,1,272.9325,1,0,30_09_2014 level23_spatial_F+V 10_33 Block6-90.txt,37,37,1203,47.0,-20.0,2014-09-30,False,colocated,left
82,947.1246,0,730,2058,2857,4205,901,10.0,200,1,0,947.5845,0,0,01_05_2015 level23_spatial_F+V 11_01 Block10-20.txt,37,37,1203,47.0,-20.0,2015-05-01,False,colocated,left
22,225.4608,0,730,2058,2857,4205,551,10.0,200,1,0,226.2999,0,0,01_04_2015 level23_spatial_F+V 14_59 Block9-8.txt,37,37,1203,47.0,-20.0,2015-04-01,False,colocated,left
74,746.4192,0,730,2058,2857,4205,601,10.0,200,1,1,747.0769,1,0,07_08_2014 level23_spatial_F+V 10_58 Block6-52.txt,37,37,1203,47.0,-20.0,2014-08-07,False,colocated,left
33,361.5397,0,730,2058,2857,4205,651,10.0,200,1,0,363.3036,0,0,07_08_2014 level23_spatial_F+V 10_58 Block6-52.txt,37,37,1203,47.0,-20.0,2014-08-07,False,colocated,left
31,490.3877,0,730,2058,2857,4205,951,10.0,200,1,1,505.9997,1,0,30_10_2014 level23_spatial_F+V 15_27 Block7-18.txt,37,37,1203,47.0,-20.0,2014-10-30,False,colocated,left
20,231.0443,0,730,2058,2857,4205,751,10.0,200,1,1,231.7359,1,0,07_08_2014 level23_spatial_F+V 10_58 Block6-52.txt,37,37,1203,47.0,-20.0,2014-08-07,False,colocated,left
37,357.118,0,730,2058,2857,4205,1001,10.0,200,1,0,357.6583,0,0,09_01_2015 level23_spatial_F+V 10_03 Block7-73.txt,37,37,1203,47.0,-20.0,2015-01-09,False,colocated,left
2,11.5528,0,730,2058,2857,4205,551,10.0,200,1,1,12.0708,1,0,02_02_2015 level23_spatial_F+V 09_47 Block8-20.txt,37,37,1203,47.0,-20.0,2015-02-02,False,colocated,left
53,541.1244,0,730,2058,2857,4205,651,10.0,200,1,0,546.1764,0,0,09_01_2015 level23_spatial_F+V 10_03 Block7-73.txt,37,37,1203,47.0,-20.0,2015-01-09,False,colocated,left
24,281.9239,0,730,2058,2857,4205,601,10.0,200,1,1,286.5508,1,0,30_04_2015 level23_spatial_F+V 09_28 Block10-18.txt,37,37,1203,47.0,-20.0,2015-04-30,False,colocated,left
48,520.0771,0,730,2058,2857,4205,551,10.0,200,1,0,520.5561,0,0,20_03_2015 level23_spatial_F+V 09_02 Block9-1.txt,37,37,1203,47.0,-20.0,2015-03-20,False,colocated,left
79,734.647,0,730,2058,2857,4205,851,10.0,200,1,0,735.321,0,0,30_09_2014 level23_spatial_F+V 10_33 Block6-90.txt,37,37,1203,47.0,-20.0,2014-09-30,False,colocated,left
74,746.4192,0,730,2058,2857,4205,601,10.0,200,1,1,747.0769,1,0,07_08_2014 level23_spatial_F+V 10_58 Block6-52.txt,37,37,1203,47.0,-20.0,2014-08-07,False,colocated,left
15,174.8427,0,730,2058,2857,4205,851,10.0,200,1,1,175.521,1,0,21_05_2015 level23_spatial_F+V 15_25 Block10-50.txt,37,37,1203,47.0,-20.0,2015-05-21,False,colocated,left
56,994.6182,0,730,2058,2857,4205,601,10.0,200,1,0,995.2806,0,0,30_10_2014 level23_spatial_F+V 15_27 Block7-18.txt,37,37,1203,47.0,-20.0,2014-10-30,False,colocated,left
12,115.6758,0,730,2058,2857,4205,801,10.0,200,1,1,116.3219,1,0,27_11_2014 level23_spatial_F+V 10_30 Block7-35.txt,37,37,1203,47.0,-20.0,2014-11-27,False,colocated,left
61,656.9152,0,730,2058,2857,4205,801,10.0,200,1,1,657.4533,1,0,02_02_2015 level23_spatial_F+V 09_47 Block8-20.txt,37,37,1203,47.0,-20.0,2015-02-02,False,colocated,left
24,281.9239,0,730,2058,2857,4205,601,10.0,200,1,1,286.5508,1,0,30_04_2015 level23_spatial_F+V 09_28 Block10-18.txt,37,37,1203,47.0,-20.0,2015-04-30,False,colocated,left
105,1019.4638,1,730,2058,2857,4205,1001,10.0,200,1,1,1020.1075,1,0,07_08_2014 level23_spatial_F+V 10_58 Block6-52.txt,37,37,1203,47.0,-20.0,2014-08-07,False,colocated,left
100,1453.0068,0,730,2058,2857,4205,1001,10.0,200,1,1,1453.53,1,0,02_02_2015 level23_spatial_F+V 15_29 Block8-22.txt,37,37,1203,47.0,-20.0,2015-02-02,False,colocated,left
52,554.5721,0,730,2058,2857,4205,651,10.0,200,1,0,560.3931,0,0,20_03_2015 level23_spatial_F+V 09_02 Block9-1.txt,37,37,1203,47.0,-20.0,2015-03-20,False,colocated,left
70,745.3262,0,730,2058,2857,4205,501,10.0,200,1,1,745.9829,1,0,02_02_2015 level23_spatial_F+V 09_47 Block8-20.txt,37,37,1203,47.0,-20.0,2015-02-02,False,colocated,left
98,1094.1937,0,730,2058,2857,4205,651,10.0,200,1,0,1094.6861,0,0,21_05_2015 level23_spatial_F+V 15_25 Block10-50.txt,37,37,1203,47.0,-20.0,2015-05-21,False,colocated,left
124,1243.2503,0,730,2058,2857,4205,801,10.0,200,1,0,1243.985,0,0,09_01_2015 level23_spatial_F+V 10_03 Block7-73.txt,37,37,1203,47.0,-20.0,2015-01-09,False,colocated,left
14,166.5273,1,730,2058,2857,4205,851,10.0,200,1,1,167.6044,1,0,14_10_2014 level23_spatial_F+V 11_14 Block7-3.txt,37,37,1203,47.0,-20.0,2014-10-14,False,colocated,left
9,85.0306,0,460,1105,2857,4205,701,10.0,200,0,0,85.2719,1,1,27_11_2014 level23_spatial_F+V 10_30 Block7-35.txt,37,37,1203,47.0,-20.0,2014-11-27,False,colocated,right
35,345.1087,0,460,1105,2857,4205,651,10.0,200,0,0,345.4659,1,1,09_01_2015 level23_spatial_F+V 10_03 Block7-73.txt,37,37,1203,47.0,-20.0,2015-01-09,False,colocated,right
74,739.8556,1,460,1105,2857,4205,901,10.0,200,0,0,740.3328,1,1,09_01_2015 level23_spatial_F+V 10_03 Block7-73.txt,37,37,1203,47.0,-20.0,2015-01-09,False,colocated,right
85,992.1674,0,460,1105,2857,4205,801,10.0,200,0,0,992.6307,1,1,21_05_2015 level23_spatial_F+V 15_25 Block10-50.txt,37,37,1203,47.0,-20.0,2015-05-21,False,colocated,right
21,224.5985,0,460,1105,2857,4205,851,10.0,200,0,0,224.8888,1,1,01_05_2015 level23_spatial_F+V 11_01 Block10-20.txt,37,37,1203,47.0,-20.0,2015-05-01,False,colocated,right
67,662.921,0,460,1105,2857,4205,901,10.0,200,0,0,663.1468,1,1,01_04_2015 level23_spatial_F+V 14_59 Block9-8.txt,37,37,1203,47.0,-20.0,2015-04-01,False,colocated,right
52,566.1696,0,460,1105,2857,4205,851,10.0,200,0,0,567.0042,1,1,02_02_2015 level23_spatial_F+V 09_47 Block8-20.txt,37,37,1203,47.0,-20.0,2015-02-02,False,colocated,right
14,260.6085,0,460,1105,2857,4205,651,10.0,200,0,0,261.261,1,1,30_10_2014 level23_spatial_F+V 09_35 Block7-22.txt,37,37,1203,47.0,-20.0,2014-10-30,False,colocated,right
16,167.1079,0,460,1105,2857,4205,551,10.0,200,0,0,167.9658,1,1,01_04_2015 level23_spatial_F+V 14_59 Block9-8.txt,37,37,1203,47.0,-20.0,2015-04-01,False,colocated,right
78,825.6832,0,460,1105,2857,4205,501,10.0,200,0,0,826.2649,1,1,02_02_2015 level23_spatial_F+V 09_47 Block8-20.txt,37,37,1203,47.0,-20.0,2015-02-02,False,colocated,right
95,1128.0124,0,460,1105,2857,4205,801,10.0,200,0,0,1128.6178,1,1,30_04_2015 level23_spatial_F+V 09_28 Block10-18.txt,37,37,1203,47.0,-20.0,2015-04-30,False,colocated,right
61,609.9026,0,460,1105,2857,4205,801,10.0,200,0,0,610.3333,1,1,01_04_2015 level23_spatial_F+V 14_59 Block9-8.txt,37,37,1203,47.0,-20.0,2015-04-01,False,colocated,right
30,291.5574,0,460,1105,2857,4205,501,10.0,200,0,0,292.0779,1,1,09_01_2015 level23_spatial_F+V 10_03 Block7-73.txt,37,37,1203,47.0,-20.0,2015-01-09,False,colocated,right
34,266.2485,0,460,1105,2857,4205,901,10.0,200,0,0,266.6894,1,1,10_12_2014 level23_spatial_F+V 15_48 Block7-51.txt,37,37,1203,47.0,-20.0,2014-12-10,False,colocated,right
119,1137.297,0,460,1105,2857,4205,1001,10.0,200,0,0,1138.1869,1,1,07_08_2014 level23_spatial_F+V 10_58 Block6-52.txt,37,37,1203,47.0,-20.0,2014-08-07,False,colocated,right
67,684.8989,0,460,1105,2857,4205,951,10.0,200,0,0,687.0322,1,1,09_01_2015 level23_spatial_F+V 10_03 Block7-73.txt,37,37,1203,47.0,-20.0,2015-01-09,False,colocated,right
58,822.9449,1,460,1105,2857,4205,851,10.0,200,0,1,823.6642,0,1,14_10_2014 level23_spatial_F+V 11_14 Block7-3.txt,37,37,1203,47.0,-20.0,2014-10-14,False,colocated,right
16,167.1079,0,460,1105,2857,4205,551,10.0,200,0,0,167.9658,1,1,01_04_2015 level23_spatial_F+V 14_59 Block9-8.txt,37,37,1203,47.0,-20.0,2015-04-01,False,colocated,right
39,594.2598,0,460,1105,2857,4205,601,10.0,200,0,0,594.7822,1,1,14_10_2014 level23_spatial_F+V 11_14 Block7-3.txt,37,37,1203,47.0,-20.0,2014-10-14,False,colocated,right
35,359.0532,0,460,1105,2857,4205,901,10.0,200,0,0,359.5671,1,1,01_04_2015 level23_spatial_F+V 14_59 Block9-8.txt,37,37,1203,47.0,-20.0,2015-04-01,False,colocated,right
17,190.4589,0,460,1105,2857,4205,501,10.0,200,0,1,197.982,0,1,07_08_2014 level23_spatial_F+V 10_58 Block6-52.txt,37,37,1203,47.0,-20.0,2014-08-07,False,colocated,right
22,170.7452,0,460,1105,2857,4205,651,10.0,200,0,0,171.1225,1,1,10_12_2014 level23_spatial_F+V 15_48 Block7-51.txt,37,37,1203,47.0,-20.0,2014-12-10,False,colocated,right
17,190.4589,0,460,1105,2857,4205,501,10.0,200,0,1,197.982,0,1,07_08_2014 level23_spatial_F+V 10_58 Block6-52.txt,37,37,1203,47.0,-20.0,2014-08-07,False,colocated,right
24,293.605,0,460,1105,2857,4205,901,10.0,200,0,0,293.8723,1,1,21_05_2015 level23_spatial_F+V 15_25 Block10-50.txt,37,37,1203,47.0,-20.0,2015-05-21,False,colocated,right
122,1373.9838,0,460,1105,2857,4205,601,10.0,200,0,0,1374.8314,1,1,21_05_2015 level23_spatial_F+V 15_25 Block10-50.txt,37,37,1203,47.0,-20.0,2015-05-21,False,colocated,right
68,616.269,0,460,1105,2857,4205,1001,10.0,200,0,0,616.64,1,1,27_11_2014 level23_spatial_F+V 10_30 Block7-35.txt,37,37,1203,47.0,-20.0,2014-11-27,False,colocated,right
53,570.7977,0,460,1105,2857,4205,551,10.0,200,0,0,571.1293,1,1,07_08_2014 level23_spatial_F+V 10_58 Block6-52.txt,37,37,1203,47.0,-20.0,2014-08-07,False,colocated,right
14,183.8532,0,460,1105,2857,4205,1001,10.0,200,0,0,184.2904,1,1,30_04_2015 level23_spatial_F+V 09_28 Block10-18.txt,37,37,1203,47.0,-20.0,2015-04-30,False,colocated,right
48,537.2837,1,460,1105,2857,4205,901,10.0,200,0,0,537.7184,1,1,01_04_2015 level23_spatial_F+V 09_00 Block9-7.txt,37,37,1203,47.0,-20.0,2015-04-01,False,colocated,right
69,738.728,0,460,1105,2857,4205,651,10.0,200,0,0,739.2552,1,1,02_02_2015 level23_spatial_F+V 09_47 Block8-20.txt,37,37,1203,47.0,-20.0,2015-02-02,False,colocated,right
31,364.9756,0,460,1105,2857,4205,1001,10.0,200,0,0,365.269,1,1,30_04_2015 level23_spatial_F+V 09_28 Block10-18.txt,37,37,1203,47.0,-20.0,2015-04-30,False,colocated,right
28,319.66,0,460,1105,2857,4205,851,10.0,200,0,0,320.8073,1,1,07_08_2014 level23_spatial_F+V 10_58 Block6-52.txt,37,37,1203,47.0,-20.0,2014-08-07,False,colocated,right
51,548.5054,1,460,1105,2857,4205,601,10.0,200,0,0,548.8315,1,1,20_03_2015 level23_spatial_F+V 09_02 Block9-1.txt,37,37,1203,47.0,-20.0,2015-03-20,False,colocated,right
86,997.9308,0,460,1105,2857,4205,651,10.0,200,0,0,998.5402,1,1,21_05_2015 level23_spatial_F+V 15_25 Block10-50.txt,37,37,1203,47.0,-20.0,2015-05-21,False,colocated,right
67,684.8989,0,460,1105,2857,4205,951,10.0,200,0,0,687.0322,1,1,09_01_2015 level23_spatial_F+V 10_03 Block7-73.txt,37,37,1203,47.0,-20.0,2015-01-09,False,colocated,right
104,1408.4663,0,460,1105,2857,4205,1001,10.0,200,0,0,1408.791,1,1,01_05_2015 level23_spatial_F+V 11_01 Block10-20.txt,37,37,1203,47.0,-20.0,2015-05-01,False,colocated,right
67,684.8989,0,460,1105,2857,4205,951,10.0,200,0,0,687.0322,1,1,09_01_2015 level23_spatial_F+V 10_03 Block7-73.txt,37,37,1203,47.0,-20.0,2015-01-09,False,colocated,right
78,825.6832,0,460,1105,2857,4205,501,10.0,200,0,0,826.2649,1,1,02_02_2015 level23_spatial_F+V 09_47 Block8-20.txt,37,37,1203,47.0,-20.0,2015-02-02,False,colocated,right
4,48.7931,0,460,1105,2857,4205,651,10.0,200,0,0,49.2657,1,1,09_01_2015 level23_spatial_F+V 10_03 Block7-73.txt,37,37,1203,47.0,-20.0,2015-01-09,False,colocated,right
99,1349.422,0,460,1105,2857,4205,501,10.0,200,0,0,1350.5684,1,1,14_10_2014 level23_spatial_F+V 11_14 Block7-3.txt,37,37,1203,47.0,-20.0,2014-10-14,False,colocated,right
63,664.2414,0,460,1105,2857,4205,701,10.0,200,0,0,664.4679,1,1,20_03_2015 level23_spatial_F+V 09_02 Block9-1.txt,37,37,1203,47.0,-20.0,2015-03-20,False,colocated,right
34,266.2485,0,460,1105,2857,4205,901,10.0,200,0,0,266.6894,1,1,10_12_2014 level23_spatial_F+V 15_48 Block7-51.txt,37,37,1203,47.0,-20.0,2014-12-10,False,colocated,right
52,639.6842,1,460,1105,2857,4205,951,10.0,200,0,0,639.9702,1,1,21_05_2015 level23_spatial_F+V 15_25 Block10-50.txt,37,37,1203,47.0,-20.0,2015-05-21,False,colocated,right
74,739.8556,1,460,1105,2857,4205,901,10.0,200,0,0,740.3328,1,1,09_01_2015 level23_spatial_F+V 10_03 Block7-73.txt,37,37,1203,47.0,-20.0,2015-01-09,False,colocated,right
22,343.2138,0,460,1105,2857,4205,601,10.0,200,0,0,343.8123,1,1,02_02_2015 level23_spatial_F+V 15_29 Block8-22.txt,37,37,1203,47.0,-20.0,2015-02-02,False,colocated,right
53,958.3576,0,460,1105,2857,4205,751,10.0,200,0,0,959.2816,1,1,30_10_2014 level23_spatial_F+V 15_27 Block7-18.txt,37,37,1203,47.0,-20.0,2014-10-30,False,colocated,right
29,323.7227,0,460,1105,2857,4205,601,10.0,200,0,0,324.146,1,1,20_03_2015 level23_spatial_F+V 09_02 Block9-1.txt,37,37,1203,47.0,-20.0,2015-03-20,False,colocated,right
101,1462.0816,0,460,1105,2857,4205,701,10.0,200,0,0,1462.7566,1,1,02_02_2015 level23_spatial_F+V 15_29 Block8-22.txt,37,37,1203,47.0,-20.0,2015-02-02,False,colocated,right
74,739.8556,1,460,1105,2857,4205,901,10.0,200,0,0,740.3328,1,1,09_01_2015 level23_spatial_F+V 10_03 Block7-73.txt,37,37,1203,47.0,-20.0,2015-01-09,False,colocated,right
63,664.2414,0,460,1105,2857,4205,701,10.0,200,0,0,664.4679,1,1,20_03_2015 level23_spatial_F+V 09_02 Block9-1.txt,37,37,1203,47.0,-20.0,2015-03-20,False,colocated,right
9,112.183,0,460,1105,2857,4205,601,10.0,200,0,0,113.0529,1,1,01_04_2015 level23_spatial_F+V 09_00 Block9-7.txt,37,37,1203,47.0,-20.0,2015-04-01,False,colocated,right
14,183.8532,0,460,1105,2857,4205,1001,10.0,200,0,0,184.2904,1,1,30_04_2015 level23_spatial_F+V 09_28 Block10-18.txt,37,37,1203,47.0,-20.0,2015-04-30,False,colocated,right
119,1137.297,0,460,1105,2857,4205,1001,10.0,200,0,0,1138.1869,1,1,07_08_2014 level23_spatial_F+V 10_58 Block6-52.txt,37,37,1203,47.0,-20.0,2014-08-07,False,colocated,right
28,319.66,0,460,1105,2857,4205,851,10.0,200,0,0,320.8073,1,1,07_08_2014 level23_spatial_F+V 10_58 Block6-52.txt,37,37,1203,47.0,-20.0,2014-08-07,False,colocated,right
16,167.1079,0,460,1105,2857,4205,551,10.0,200,0,0,167.9658,1,1,01_04_2015 level23_spatial_F+V 14_59 Block9-8.txt,37,37,1203,47.0,-20.0,2015-04-01,False,colocated,right
122,1373.9838,0,460,1105,2857,4205,601,10.0,200,0,0,1374.8314,1,1,21_05_2015 level23_spatial_F+V 15_25 Block10-50.txt,37,37,1203,47.0,-20.0,2015-05-21,False,colocated,right
52,639.6842,1,460,1105,2857,4205,951,10.0,200,0,0,639.9702,1,1,21_05_2015 level23_spatial_F+V 15_25 Block10-50.txt,37,37,1203,47.0,-20.0,2015-05-21,False,colocated,right
57,603.755,0,460,1105,2857,4205,851,10.0,200,0,0,604.1513,1,1,07_08_2014 level23_spatial_F+V 10_58 Block6-52.txt,37,37,1203,47.0,-20.0,2014-08-07,False,colocated,right
69,631.2721,0,460,1105,2857,4205,501,10.0,200,0,1,632.1616,0,1,30_09_2014 level23_spatial_F+V 10_33 Block6-90.txt,37,37,1203,47.0,-20.0,2014-09-30,False,colocated,right
57,603.755,0,460,1105,2857,4205,851,10.0,200,0,0,604.1513,1,1,07_08_2014 level23_spatial_F+V 10_58 Block6-52.txt,37,37,1203,47.0,-20.0,2014-08-07,False,colocated,right
2,18.5308,1,460,1105,2857,4205,651,10.0,200,0,1,19.1398,0,1,20_03_2015 level23_spatial_F+V 09_02 Block9-1.txt,37,37,1203,47.0,-20.0,2015-03-20,False,colocated,right
29,323.7227,0,460,1105,2857,4205,601,10.0,200,0,0,324.146,1,1,20_03_2015 level23_spatial_F+V 09_02 Block9-1.txt,37,37,1203,47.0,-20.0,2015-03-20,False,colocated,right
57,603.755,0,460,1105,2857,4205,851,10.0,200,0,0,604.1513,1,1,07_08_2014 level23_spatial_F+V 10_58 Block6-52.txt,37,37,1203,47.0,-20.0,2014-08-07,False,colocated,right
35,359.0532,0,460,1105,2857,4205,901,10.0,200,0,0,359.5671,1,1,01_04_2015 level23_spatial_F+V 14_59 Block9-8.txt,37,37,1203,47.0,-20.0,2015-04-01,False,colocated,right
35,345.1087,0,460,1105,2857,4205,651,10.0,200,0,0,345.4659,1,1,09_01_2015 level23_spatial_F+V 10_03 Block7-73.txt,37,37,1203,47.0,-20.0,2015-01-09,False,colocated,right
7,120.8808,0,460,1105,2857,4205,951,10.0,200,0,1,121.8788,0,1,30_10_2014 level23_spatial_F+V 15_27 Block7-18.txt,37,37,1203,47.0,-20.0,2014-10-30,False,colocated,right
15,171.1812,0,460,1105,2857,4205,551,10.0,200,0,0,171.6221,1,1,21_05_2015 level23_spatial_F+V 09_38 Block10-49.txt,37,37,1203,47.0,-20.0,2015-05-21,False,colocated,right
57,603.755,0,460,1105,2857,4205,851,10.0,200,0,0,604.1513,1,1,07_08_2014 level23_spatial_F+V 10_58 Block6-52.txt,37,37,1203,47.0,-20.0,2014-08-07,False,colocated,right
99,1349.422,0,460,1105,2857,4205,501,10.0,200,0,0,1350.5684,1,1,14_10_2014 level23_spatial_F+V 11_14 Block7-3.txt,37,37,1203,47.0,-20.0,2014-10-14,False,colocated,right
74,739.8556,1,460,1105,2857,4205,901,10.0,200,0,0,740.3328,1,1,09_01_2015 level23_spatial_F+V 10_03 Block7-73.txt,37,37,1203,47.0,-20.0,2015-01-09,False,colocated,right
22,170.7452,0,460,1105,2857,4205,651,10.0,200,0,0,171.1225,1,1,10_12_2014 level23_spatial_F+V 15_48 Block7-51.txt,37,37,1203,47.0,-20.0,2014-12-10,False,colocated,right
27,233.4587,0,460,1105,2857,4205,501,10.0,200,0,0,234.3062,1,1,27_11_2014 level23_spatial_F+V 10_30 Block7-35.txt,37,37,1203,47.0,-20.0,2014-11-27,False,colocated,right
32,472.3076,1,460,1105,2857,4205,751,10.0,200,0,0,472.8307,1,1,02_02_2015 level23_spatial_F+V 15_29 Block8-22.txt,37,37,1203,47.0,-20.0,2015-02-02,False,colocated,right
15,171.1812,0,460,1105,2857,4205,551,10.0,200,0,0,171.6221,1,1,21_05_2015 level23_spatial_F+V 09_38 Block10-49.txt,37,37,1203,47.0,-20.0,2015-05-21,False,colocated,right
99,1349.422,0,460,1105,2857,4205,501,10.0,200,0,0,1350.5684,1,1,14_10_2014 level23_spatial_F+V 11_14 Block7-3.txt,37,37,1203,47.0,-20.0,2014-10-14,False,colocated,right
39,389.6704,0,460,1105,2857,4205,851,10.0,200,0,0,390.3376,1,1,07_08_2014 level23_spatial_F+V 10_50 Block6-51.txt,37,37,1203,47.0,-20.0,2014-08-07,False,colocated,right
39,389.6704,0,460,1105,2857,4205,851,10.0,200,0,0,390.3376,1,1,07_08_2014 level23_spatial_F+V 10_50 Block6-51.txt,37,37,1203,47.0,-20.0,2014-08-07,False,colocated,right
74,739.8556,1,460,1105,2857,4205,901,10.0,200,0,0,740.3328,1,1,09_01_2015 level23_spatial_F+V 10_03 Block7-73.txt,37,37,1203,47.0,-20.0,2015-01-09,False,colocated,right
69,631.2721,0,460,1105,2857,4205,501,10.0,200,0,1,632.1616,0,1,30_09_2014 level23_spatial_F+V 10_33 Block6-90.txt,37,37,1203,47.0,-20.0,2014-09-30,False,colocated,right
22,343.2138,0,460,1105,2857,4205,601,10.0,200,0,0,343.8123,1,1,02_02_2015 level23_spatial_F+V 15_29 Block8-22.txt,37,37,1203,47.0,-20.0,2015-02-02,False,colocated,right
34,266.2485,0,460,1105,2857,4205,901,10.0,200,0,0,266.6894,1,1,10_12_2014 level23_spatial_F+V 15_48 Block7-51.txt,37,37,1203,47.0,-20.0,2014-12-10,False,colocated,right
17,219.5939,0,460,1105,2857,4205,1001,10.0,200,0,1,220.9007,0,1,14_10_2014 level23_spatial_F+V 11_14 Block7-3.txt,37,37,1203,47.0,-20.0,2014-10-14,False,colocated,right
139,1734.4248,0,460,1105,2857,4205,951,10.0,200,0,0,1734.7348,1,1,30_04_2015 level23_spatial_F+V 09_28 Block10-18.txt,37,37,1203,47.0,-20.0,2015-04-30,False,colocated,right
29,323.7227,0,460,1105,2857,4205,601,10.0,200,0,0,324.146,1,1,20_03_2015 level23_spatial_F+V 09_02 Block9-1.txt,37,37,1203,47.0,-20.0,2015-03-20,False,colocated,right
20,168.454,0,460,1105,2857,4205,601,10.0,200,0,1,169.1507,0,1,30_09_2014 level23_spatial_F+V 10_33 Block6-90.txt,37,37,1203,47.0,-20.0,2014-09-30,False,colocated,right
22,343.2138,0,460,1105,2857,4205,601,10.0,200,0,0,343.8123,1,1,02_02_2015 level23_spatial_F+V 15_29 Block8-22.txt,37,37,1203,47.0,-20.0,2015-02-02,False,colocated,right
35,345.1087,0,460,1105,2857,4205,651,10.0,200,0,0,345.4659,1,1,09_01_2015 level23_spatial_F+V 10_03 Block7-73.txt,37,37,1203,47.0,-20.0,2015-01-09,False,colocated,right
48,537.2837,1,460,1105,2857,4205,901,10.0,200,0,0,537.7184,1,1,01_04_2015 level23_spatial_F+V 09_00 Block9-7.txt,37,37,1203,47.0,-20.0,2015-04-01,False,colocated,right
22,343.2138,0,460,1105,2857,4205,601,10.0,200,0,0,343.8123,1,1,02_02_2015 level23_spatial_F+V 15_29 Block8-22.txt,37,37,1203,47.0,-20.0,2015-02-02,False,colocated,right
11,102.7302,0,460,1105,2857,4205,701,10.0,200,0,0,103.1095,1,1,01_05_2015 level23_spatial_F+V 11_01 Block10-20.txt,37,37,1203,47.0,-20.0,2015-05-01,False,colocated,right
64,725.6204,0,460,1105,2857,4205,601,10.0,200,0,0,726.3308,1,1,01_05_2015 level23_spatial_F+V 11_01 Block10-20.txt,37,37,1203,47.0,-20.0,2015-05-01,False,colocated,right
30,327.2003,0,730,2058,2857,4205,501,10.0,200,1,0,327.8805,0,1,02_02_2015 level23_spatial_F+V 09_47 Block8-20.txt,37,37,1203,47.0,-20.0,2015-02-02,False,colocated,right
33,476.7096,0,730,2058,2857,4205,551,10.0,200,1,0,477.9534,0,1,02_02_2015 level23_spatial_F+V 15_29 Block8-22.txt,37,37,1203,47.0,-20.0,2015-02-02,False,colocated,right
1,4.6702,0,730,2058,2857,4205,851,10.0,200,1,1,5.034,1,1,07_08_2014 level23_spatial_F+V 10_50 Block6-51.txt,37,37,1203,47.0,-20.0,2014-08-07,False,colocated,right
41,322.7582,0,730,2058,2857,4205,951,10.0,200,1,0,323.5244,0,1,10_12_2014 level23_spatial_F+V 15_48 Block7-51.txt,37,37,1203,47.0,-20.0,2014-12-10,False,colocated,right
62,769.8726,0,730,2058,2857,4205,551,10.0,200,1,1,771.548,1,1,21_05_2015 level23_spatial_F+V 09_38 Block10-49.txt,37,37,1203,47.0,-20.0,2015-05-21,False,colocated,right
74,1028.0282,0,730,2058,2857,4205,951,10.0,200,1,1,1029.161,1,1,14_10_2014 level23_spatial_F+V 11_14 Block7-3.txt,37,37,1203,47.0,-20.0,2014-10-14,False,colocated,right
16,189.0225,0,730,2058,2857,4205,1001,10.0,200,1,0,189.7458,0,1,01_04_2015 level23_spatial_F+V 09_00 Block9-7.txt,37,37,1203,47.0,-20.0,2015-04-01,False,colocated,right
30,327.2003,0,730,2058,2857,4205,501,10.0,200,1,0,327.8805,0,1,02_02_2015 level23_spatial_F+V 09_47 Block8-20.txt,37,37,1203,47.0,-20.0,2015-02-02,False,colocated,right
29,296.6257,0,730,2058,2857,4205,1001,10.0,200,1,0,297.2343,0,1,01_04_2015 level23_spatial_F+V 14_59 Block9-8.txt,37,37,1203,47.0,-20.0,2015-04-01,False,colocated,right
38,347.3432,0,730,2058,2857,4205,951,10.0,200,1,0,348.4316,0,1,27_11_2014 level23_spatial_F+V 10_30 Block7-35.txt,37,37,1203,47.0,-20.0,2014-11-27,False,colocated,right
102,1128.2844,0,730,2058,2857,4205,951,10.0,200,1,0,1128.7373,0,1,21_05_2015 level23_spatial_F+V 15_25 Block10-50.txt,37,37,1203,47.0,-20.0,2015-05-21,False,colocated,right
22,343.8409,0,730,2058,2857,4205,801,10.0,200,1,0,344.995,0,1,30_10_2014 level23_spatial_F+V 09_35 Block7-22.txt,37,37,1203,47.0,-20.0,2014-10-30,False,colocated,right
100,1172.4412,0,730,2058,2857,4205,1001,10.0,200,1,0,1176.355,0,1,30_04_2015 level23_spatial_F+V 09_28 Block10-18.txt,37,37,1203,47.0,-20.0,2015-04-30,False,colocated,right
100,1172.4412,0,730,2058,2857,4205,1001,10.0,200,1,0,1176.355,0,1,30_04_2015 level23_spatial_F+V 09_28 Block10-18.txt,37,37,1203,47.0,-20.0,2015-04-30,False,colocated,right
49,550.6623,0,730,2058,2857,4205,951,10.0,200,1,1,551.7479,1,1,01_04_2015 level23_spatial_F+V 09_00 Block9-7.txt,37,37,1203,47.0,-20.0,2015-04-01,False,colocated,right
85,751.3416,0,730,2058,2857,4205,601,10.0,200,1,1,752.5584,1,1,27_11_2014 level23_spatial_F+V 10_30 Block7-35.txt,37,37,1203,47.0,-20.0,2014-11-27,False,colocated,right
47,426.9953,0,730,2058,2857,4205,1001,10.0,200,1,1,427.3324,1,1,27_11_2014 level23_spatial_F+V 10_30 Block7-35.txt,37,37,1203,47.0,-20.0,2014-11-27,False,colocated,right
9,73.2842,0,730,2058,2857,4205,801,10.0,200,1,0,74.2933,0,1,30_09_2014 level23_spatial_F+V 10_33 Block6-90.txt,37,37,1203,47.0,-20.0,2014-09-30,False,colocated,right
33,326.5876,0,730,2058,2857,4205,601,10.0,200,1,0,327.8733,0,1,07_08_2014 level23_spatial_F+V 10_50 Block6-51.txt,37,37,1203,47.0,-20.0,2014-08-07,False,colocated,right
10,105.8779,0,730,2058,2857,4205,1001,10.0,200,1,0,106.2187,0,1,02_02_2015 level23_spatial_F+V 15_29 Block8-22.txt,37,37,1203,47.0,-20.0,2015-02-02,False,colocated,right
94,914.4336,0,730,2058,2857,4205,1001,10.0,200,1,0,915.0779,0,1,01_04_2015 level23_spatial_F+V 14_59 Block9-8.txt,37,37,1203,47.0,-20.0,2015-04-01,False,colocated,right
2,13.9906,1,730,2058,2857,4205,501,10.0,200,1,0,15.7517,0,1,07_08_2014 level23_spatial_F+V 10_50 Block6-51.txt,37,37,1203,47.0,-20.0,2014-08-07,False,colocated,right
66,752.197,0,730,2058,2857,4205,901,10.0,200,1,0,755.0897,0,1,30_04_2015 level23_spatial_F+V 09_28 Block10-18.txt,37,37,1203,47.0,-20.0,2015-04-30,False,colocated,right
53,645.3646,1,730,2058,2857,4205,701,10.0,200,1,0,651.875,0,1,21_05_2015 level23_spatial_F+V 15_25 Block10-50.txt,37,37,1203,47.0,-20.0,2015-05-21,False,colocated,right
134,1682.8134,0,730,2058,2857,4205,601,10.0,200,1,0,1683.4286,0,1,30_04_2015 level23_spatial_F+V 09_28 Block10-18.txt,37,37,1203,47.0,-20.0,2015-04-30,False,colocated,right
64,686.1,0,730,2058,2857,4205,551,10.0,200,1,0,687.2058,0,1,02_02_2015 level23_spatial_F+V 09_47 Block8-20.txt,37,37,1203,47.0,-20.0,2015-02-02,False,colocated,right
54,974.585,0,730,2058,2857,4205,651,10.0,200,1,0,975.2385,0,1,30_10_2014 level23_spatial_F+V 15_27 Block7-18.txt,37,37,1203,47.0,-20.0,2014-10-30,False,colocated,right
9,73.2842,0,730,2058,2857,4205,801,10.0,200,1,0,74.2933,0,1,30_09_2014 level23_spatial_F+V 10_33 Block6-90.txt,37,37,1203,47.0,-20.0,2014-09-30,False,colocated,right
128,1451.3286,0,730,2058,2857,4205,701,10.0,200,1,0,1451.6755,0,1,21_05_2015 level23_spatial_F+V 15_25 Block10-50.txt,37,37,1203,47.0,-20.0,2015-05-21,False,colocated,right
22,343.8409,0,730,2058,2857,4205,801,10.0,200,1,0,344.995,0,1,30_10_2014 level23_spatial_F+V 09_35 Block7-22.txt,37,37,1203,47.0,-20.0,2014-10-30,False,colocated,right
63,772.4826,0,730,2058,2857,4205,851,10.0,200,1,0,772.7975,0,1,21_05_2015 level23_spatial_F+V 15_25 Block10-50.txt,37,37,1203,47.0,-20.0,2015-05-21,False,colocated,right
134,1682.8134,0,730,2058,2857,4205,601,10.0,200,1,0,1683.4286,0,1,30_04_2015 level23_spatial_F+V 09_28 Block10-18.txt,37,37,1203,47.0,-20.0,2015-04-30,False,colocated,right
8,71.065,0,730,2058,2857,4205,951,10.0,200,1,1,71.7122,1,1,30_09_2014 level23_spatial_F+V 10_33 Block6-90.txt,37,37,1203,47.0,-20.0,2014-09-30,False,colocated,right
55,619.7374,1,730,2058,2857,4205,551,10.0,200,1,0,620.1938,0,1,30_04_2015 level23_spatial_F+V 09_28 Block10-18.txt,37,37,1203,47.0,-20.0,2015-04-30,False,colocated,right
1,8.5644,0,730,2058,2857,4205,601,10.0,200,1,0,9.3586,0,1,14_10_2014 level23_spatial_F+V 11_14 Block7-3.txt,37,37,1203,47.0,-20.0,2014-10-14,False,colocated,right
8,71.065,0,730,2058,2857,4205,951,10.0,200,1,1,71.7122,1,1,30_09_2014 level23_spatial_F+V 10_33 Block6-90.txt,37,37,1203,47.0,-20.0,2014-09-30,False,colocated,right
53,645.3646,1,730,2058,2857,4205,701,10.0,200,1,0,651.875,0,1,21_05_2015 level23_spatial_F+V 15_25 Block10-50.txt,37,37,1203,47.0,-20.0,2015-05-21,False,colocated,right
93,1274.7892,0,730,2058,2857,4205,601,10.0,200,1,0,1275.6356,0,1,14_10_2014 level23_spatial_F+V 11_14 Block7-3.txt,37,37,1203,47.0,-20.0,2014-10-14,False,colocated,right
1,4.6702,0,730,2058,2857,4205,851,10.0,200,1,1,5.034,1,1,07_08_2014 level23_spatial_F+V 10_50 Block6-51.txt,37,37,1203,47.0,-20.0,2014-08-07,False,colocated,right
102,1128.2844,0,730,2058,2857,4205,951,10.0,200,1,0,1128.7373,0,1,21_05_2015 level23_spatial_F+V 15_25 Block10-50.txt,37,37,1203,47.0,-20.0,2015-05-21,False,colocated,right
92,1085.5218,0,730,2058,2857,4205,601,10.0,200,1,0,1086.3187,0,1,30_04_2015 level23_spatial_F+V 09_28 Block10-18.txt,37,37,1203,47.0,-20.0,2015-04-30,False,colocated,right
74,1028.0282,0,730,2058,2857,4205,951,10.0,200,1,1,1029.161,1,1,14_10_2014 level23_spatial_F+V 11_14 Block7-3.txt,37,37,1203,47.0,-20.0,2014-10-14,False,colocated,right
23,249.6434,0,730,2058,2857,4205,951,10.0,200,1,1,250.364,1,1,20_03_2015 level23_spatial_F+V 09_02 Block9-1.txt,37,37,1203,47.0,-20.0,2015-03-20,False,colocated,right
23,249.6434,0,730,2058,2857,4205,951,10.0,200,1,1,250.364,1,1,20_03_2015 level23_spatial_F+V 09_02 Block9-1.txt,37,37,1203,47.0,-20.0,2015-03-20,False,colocated,right
16,189.0225,0,730,2058,2857,4205,1001,10.0,200,1,0,189.7458,0,1,01_04_2015 level23_spatial_F+V 09_00 Block9-7.txt,37,37,1203,47.0,-20.0,2015-04-01,False,colocated,right
33,348.7841,0,730,2058,2857,4205,601,10.0,200,1,1,349.7336,1,1,01_05_2015 level23_spatial_F+V 11_01 Block10-20.txt,37,37,1203,47.0,-20.0,2015-05-01,False,colocated,right
107,1435.3403,0,730,2058,2857,4205,601,10.0,200,1,0,1435.9493,0,1,01_05_2015 level23_spatial_F+V 11_01 Block10-20.txt,37,37,1203,47.0,-20.0,2015-05-01,False,colocated,right
1,4.6702,0,730,2058,2857,4205,851,10.0,200,1,1,5.034,1,1,07_08_2014 level23_spatial_F+V 10_50 Block6-51.txt,37,37,1203,47.0,-20.0,2014-08-07,False,colocated,right
134,1267.1462,0,730,2058,2857,4205,501,10.0,200,1,0,1268.1861,0,1,07_08_2014 level23_spatial_F+V 10_58 Block6-52.txt,37,37,1203,47.0,-20.0,2014-08-07,False,colocated,right
97,1408.3544,0,730,2058,2857,4205,751,10.0,200,1,0,1408.8731,0,1,02_02_2015 level23_spatial_F+V 15_29 Block8-22.txt,37,37,1203,47.0,-20.0,2015-02-02,False,colocated,right
80,779.8056,0,730,2058,2857,4205,901,10.0,200,1,1,780.2513,1,1,07_08_2014 level23_spatial_F+V 10_58 Block6-52.txt,37,37,1203,47.0,-20.0,2014-08-07,False,colocated,right
43,517.4168,0,730,2058,2857,4205,501,10.0,200,1,0,518.114,0,1,21_05_2015 level23_spatial_F+V 09_38 Block10-49.txt,37,37,1203,47.0,-20.0,2015-05-21,False,colocated,right
22,252.7898,0,730,2058,2857,4205,701,10.0,200,1,0,253.2948,0,1,02_02_2015 level23_spatial_F+V 09_47 Block8-20.txt,37,37,1203,47.0,-20.0,2015-02-02,False,colocated,right
1,7.7465,0,730,2058,2857,4205,501,10.0,200,1,0,8.6219,0,1,10_12_2014 level23_spatial_F+V 15_48 Block7-51.txt,37,37,1203,47.0,-20.0,2014-12-10,False,colocated,right
63,772.4826,0,730,2058,2857,4205,851,10.0,200,1,0,772.7975,0,1,21_05_2015 level23_spatial_F+V 15_25 Block10-50.txt,37,37,1203,47.0,-20.0,2015-05-21,False,colocated,right
107,1435.3403,0,730,2058,2857,4205,601,10.0,200,1,0,1435.9493,0,1,01_05_2015 level23_spatial_F+V 11_01 Block10-20.txt,37,37,1203,47.0,-20.0,2015-05-01,False,colocated,right
2,13.9906,1,730,2058,2857,4205,501,10.0,200,1,0,15.7517,0,1,07_08_2014 level23_spatial_F+V 10_50 Block6-51.txt,37,37,1203,47.0,-20.0,2014-08-07,False,colocated,right
22,252.7898,0,730,2058,2857,4205,701,10.0,200,1,0,253.2948,0,1,02_02_2015 level23_spatial_F+V 09_47 Block8-20.txt,37,37,1203,47.0,-20.0,2015-02-02,False,colocated,right
41,322.7582,0,730,2058,2857,4205,951,10.0,200,1,0,323.5244,0,1,10_12_2014 level23_spatial_F+V 15_48 Block7-51.txt,37,37,1203,47.0,-20.0,2014-12-10,False,colocated,right
84,809.7572,0,730,2058,2857,4205,551,10.0,200,1,0,810.019,0,1,07_08_2014 level23_spatial_F+V 10_58 Block6-52.txt,37,37,1203,47.0,-20.0,2014-08-07,False,colocated,right
108,1181.0094,0,730,2058,2857,4205,851,10.0,200,1,0,1181.2232,0,1,20_03_2015 level23_spatial_F+V 09_02 Block9-1.txt,37,37,1203,47.0,-20.0,2015-03-20,False,colocated,right
65,1009.2958,0,730,2058,2857,4205,551,10.0,200,1,0,1010.0163,0,1,02_02_2015 level23_spatial_F+V 15_29 Block8-22.txt,37,37,1203,47.0,-20.0,2015-02-02,False,colocated,right
12,138.8526,0,730,2058,2857,4205,951,10.0,200,1,1,139.6218,1,1,14_10_2014 level23_spatial_F+V 11_14 Block7-3.txt,37,37,1203,47.0,-20.0,2014-10-14,False,colocated,right
92,1085.5218,0,730,2058,2857,4205,601,10.0,200,1,0,1086.3187,0,1,30_04_2015 level23_spatial_F+V 09_28 Block10-18.txt,37,37,1203,47.0,-20.0,2015-04-30,False,colocated,right
80,779.8056,0,730,2058,2857,4205,901,10.0,200,1,1,780.2513,1,1,07_08_2014 level23_spatial_F+V 10_58 Block6-52.txt,37,37,1203,47.0,-20.0,2014-08-07,False,colocated,right
102,1371.9835,0,730,2058,2857,4205,501,10.0,200,1,1,1374.1145,1,1,01_05_2015 level23_spatial_F+V 11_01 Block10-20.txt,37,37,1203,47.0,-20.0,2015-05-01,False,colocated,right
22,252.7898,0,730,2058,2857,4205,701,10.0,200,1,0,253.2948,0,1,02_02_2015 level23_spatial_F+V 09_47 Block8-20.txt,37,37,1203,47.0,-20.0,2015-02-02,False,colocated,right
43,517.4168,0,730,2058,2857,4205,501,10.0,200,1,0,518.114,0,1,21_05_2015 level23_spatial_F+V 09_38 Block10-49.txt,37,37,1203,47.0,-20.0,2015-05-21,False,colocated,right
107,1435.3403,0,730,2058,2857,4205,601,10.0,200,1,0,1435.9493,0,1,01_05_2015 level23_spatial_F+V 11_01 Block10-20.txt,37,37,1203,47.0,-20.0,2015-05-01,False,colocated,right
42,458.3522,0,730,2058,2857,4205,901,10.0,200,1,0,458.9886,0,1,01_05_2015 level23_spatial_F+V 11_01 Block10-20.txt,37,37,1203,47.0,-20.0,2015-05-01,False,colocated,right
11,112.4337,0,730,2058,2857,4205,601,10.0,200,1,0,113.0829,0,1,20_03_2015 level23_spatial_F+V 09_02 Block9-1.txt,37,37,1203,47.0,-20.0,2015-03-20,False,colocated,right
6,74.403,0,730,2058,2857,4205,501,10.0,200,1,0,74.8017,0,1,30_04_2015 level23_spatial_F+V 09_28 Block10-18.txt,37,37,1203,47.0,-20.0,2015-04-30,False,colocated,right
120,1397.8386,0,730,2058,2857,4205,601,10.0,200,1,0,1398.4806,0,1,30_04_2015 level23_spatial_F+V 09_28 Block10-18.txt,37,37,1203,47.0,-20.0,2015-04-30,False,colocated,right
94,914.4336,0,730,2058,2857,4205,1001,10.0,200,1,0,915.0779,0,1,01_04_2015 level23_spatial_F+V 14_59 Block9-8.txt,37,37,1203,47.0,-20.0,2015-04-01,False,colocated,right
70,739.9872,0,730,2058,2857,4205,751,10.0,200,1,0,740.5568,0,1,20_03_2015 level23_spatial_F+V 09_02 Block9-1.txt,37,37,1203,47.0,-20.0,2015-03-20,False,colocated,right
53,541.5483,0,730,2058,2857,4205,1001,10.0,200,1,1,541.7634,1,1,10_12_2014 level23_spatial_F+V 15_48 Block7-51.txt,37,37,1203,47.0,-20.0,2014-12-10,False,colocated,right
11,185.497,0,730,2058,2857,4205,501,10.0,200,1,0,186.0953,0,1,30_10_2014 level23_spatial_F+V 15_27 Block7-18.txt,37,37,1203,47.0,-20.0,2014-10-30,False,colocated,right
93,1274.7892,0,730,2058,2857,4205,601,10.0,200,1,0,1275.6356,0,1,14_10_2014 level23_spatial_F+V 11_14 Block7-3.txt,37,37,1203,47.0,-20.0,2014-10-14,False,colocated,right
34,462.8761,0,730,2058,2857,4205,801,10.0,200,1,0,464.1882,0,1,30_10_2014 level23_spatial_F+V 09_35 Block7-22.txt,37,37,1203,47.0,-20.0,2014-10-30,False,colocated,right
81,806.4123,0,730,2058,2857,4205,951,10.0,200,1,0,807.3315,0,1,09_01_2015 level23_spatial_F+V 10_03 Block7-73.txt,37,37,1203,47.0,-20.0,2015-01-09,False,colocated,right
1,7.7465,0,730,2058,2857,4205,501,10.0,200,1,0,8.6219,0,1,10_12_2014 level23_spatial_F+V 15_48 Block7-51.txt,37,37,1203,47.0,-20.0,2014-12-10,False,colocated,right
53,541.5483,0,730,2058,2857,4205,1001,10.0,200,1,1,541.7634,1,1,10_12_2014 level23_spatial_F+V 15_48 Block7-51.txt,37,37,1203,47.0,-20.0,2014-12-10,False,colocated,right
81,790.8187,0,730,2058,2857,4205,951,10.0,200,1,0,791.3406,0,1,01_04_2015 level23_spatial_F+V 14_59 Block9-8.txt,37,37,1203,47.0,-20.0,2015-04-01,False,colocated,right
19,230.1831,0,730,2058,2857,4205,951,10.0,200,1,1,233.0777,1,1,21_05_2015 level23_spatial_F+V 15_25 Block10-50.txt,37,37,1203,47.0,-20.0,2015-05-21,False,colocated,right
84,809.7572,0,730,2058,2857,4205,551,10.0,200,1,0,810.019,0,1,07_08_2014 level23_spatial_F+V 10_58 Block6-52.txt,37,37,1203,47.0,-20.0,2014-08-07,False,colocated,right
63,772.4826,0,730,2058,2857,4205,851,10.0,200,1,0,772.7975,0,1,21_05_2015 level23_spatial_F+V 15_25 Block10-50.txt,37,37,1203,47.0,-20.0,2015-05-21,False,colocated,right
112,1260.6886,1,730,2058,2857,4205,1001,10.0,200,1,1,1265.2542,1,1,21_05_2015 level23_spatial_F+V 15_25 Block10-50.txt,37,37,1203,47.0,-20.0,2015-05-21,False,colocated,right
38,377.8456,0,730,2058,2857,4205,551,10.0,200,1,0,378.9781,0,1,01_04_2015 level23_spatial_F+V 14_59 Block9-8.txt,37,37,1203,47.0,-20.0,2015-04-01,False,colocated,right
79,909.8691,0,730,2058,2857,4205,1001,10.0,200,1,0,910.2547,0,1,01_05_2015 level23_spatial_F+V 11_01 Block10-20.txt,37,37,1203,47.0,-20.0,2015-05-01,False,colocated,right
81,806.4123,0,730,2058,2857,4205,951,10.0,200,1,0,807.3315,0,1,09_01_2015 level23_spatial_F+V 10_03 Block7-73.txt,37,37,1203,47.0,-20.0,2015-01-09,False,colocated,right
134,1267.1462,0,730,2058,2857,4205,501,10.0,200,1,0,1268.1861,0,1,07_08_2014 level23_spatial_F+V 10_58 Block6-52.txt,37,37,1203,47.0,-20.0,2014-08-07,False,colocated,right
113,1014.9987,0,460,1105,2857,4205,801,0.0,200,0,1,1015.6808,0,0,10_07_2014 level23_spatial_F+V 10_40 Block6-23.txt,37,37,1203,57.0,-10.0,2014-07-10,False,colocated,left
84,790.1972,0,460,1105,2857,4205,951,0.0,200,0,1,790.7461,0,0,10_07_2014 level23_spatial_F+V 10_40 Block6-23.txt,37,37,1203,57.0,-10.0,2014-07-10,False,colocated,left
113,1014.9987,0,460,1105,2857,4205,801,0.0,200,0,1,1015.6808,0,0,10_07_2014 level23_spatial_F+V 10_40 Block6-23.txt,37,37,1203,57.0,-10.0,2014-07-10,False,colocated,left
136,1328.3832,0,460,1105,2857,4205,651,0.0,200,0,0,1328.8944,1,0,16_07_2014 level23_spatial_F+V 15_27 Block6-32.txt,37,37,1203,57.0,-10.0,2014-07-16,False,colocated,left
124,1102.0824,0,460,1105,2857,4205,551,0.0,200,0,0,1102.5457,1,0,10_07_2014 level23_spatial_F+V 10_40 Block6-23.txt,37,37,1203,57.0,-10.0,2014-07-10,False,colocated,left
118,1160.0105,0,460,1105,2857,4205,701,0.0,200,0,0,1160.3357,1,0,16_07_2014 level23_spatial_F+V 15_27 Block6-32.txt,37,37,1203,57.0,-10.0,2014-07-16,False,colocated,left
124,1102.0824,0,460,1105,2857,4205,551,0.0,200,0,0,1102.5457,1,0,10_07_2014 level23_spatial_F+V 10_40 Block6-23.txt,37,37,1203,57.0,-10.0,2014-07-10,False,colocated,left
136,1328.3832,0,460,1105,2857,4205,651,0.0,200,0,0,1328.8944,1,0,16_07_2014 level23_spatial_F+V 15_27 Block6-32.txt,37,37,1203,57.0,-10.0,2014-07-16,False,colocated,left
138,1194.8719,0,460,1105,2857,4205,751,0.0,200,0,0,1196.8383,1,0,10_07_2014 level23_spatial_F+V 10_40 Block6-23.txt,37,37,1203,57.0,-10.0,2014-07-10,False,colocated,left
81,763.2955,0,460,1105,2857,4205,601,0.0,200,0,0,764.0641,1,0,10_07_2014 level23_spatial_F+V 10_40 Block6-23.txt,37,37,1203,57.0,-10.0,2014-07-10,False,colocated,left
118,1160.0105,0,460,1105,2857,4205,701,0.0,200,0,0,1160.3357,1,0,16_07_2014 level23_spatial_F+V 15_27 Block6-32.txt,37,37,1203,57.0,-10.0,2014-07-16,False,colocated,left
11,134.9334,0,460,1105,2857,4205,651,0.0,200,0,0,135.3699,1,0,16_07_2014 level23_spatial_F+V 15_27 Block6-32.txt,37,37,1203,57.0,-10.0,2014-07-16,False,colocated,left
38,355.9507,0,460,1105,2857,4205,701,0.0,200,0,0,356.6606,1,0,10_07_2014 level23_spatial_F+V 10_40 Block6-23.txt,37,37,1203,57.0,-10.0,2014-07-10,False,colocated,left
11,112.3619,0,460,1105,2857,4205,501,0.0,200,0,1,113.0028,0,0,10_07_2014 level23_spatial_F+V 10_40 Block6-23.txt,37,37,1203,57.0,-10.0,2014-07-10,False,colocated,left
38,355.9507,0,460,1105,2857,4205,701,0.0,200,0,0,356.6606,1,0,10_07_2014 level23_spatial_F+V 10_40 Block6-23.txt,37,37,1203,57.0,-10.0,2014-07-10,False,colocated,left
20,180.2979,0,460,1105,2857,4205,1001,0.0,200,0,0,183.599,1,0,10_07_2014 level23_spatial_F+V 10_40 Block6-23.txt,37,37,1203,57.0,-10.0,2014-07-10,False,colocated,left
98,999.833,0,460,1105,2857,4205,551,0.0,200,0,1,1000.8587,0,0,16_07_2014 level23_spatial_F+V 15_27 Block6-32.txt,37,37,1203,57.0,-10.0,2014-07-16,False,colocated,left
81,763.2955,0,460,1105,2857,4205,601,0.0,200,0,0,764.0641,1,0,10_07_2014 level23_spatial_F+V 10_40 Block6-23.txt,37,37,1203,57.0,-10.0,2014-07-10,False,colocated,left
136,1328.3832,0,460,1105,2857,4205,651,0.0,200,0,0,1328.8944,1,0,16_07_2014 level23_spatial_F+V 15_27 Block6-32.txt,37,37,1203,57.0,-10.0,2014-07-16,False,colocated,left
124,1102.0824,0,460,1105,2857,4205,551,0.0,200,0,0,1102.5457,1,0,10_07_2014 level23_spatial_F+V 10_40 Block6-23.txt,37,37,1203,57.0,-10.0,2014-07-10,False,colocated,left
113,1014.9987,0,460,1105,2857,4205,801,0.0,200,0,1,1015.6808,0,0,10_07_2014 level23_spatial_F+V 10_40 Block6-23.txt,37,37,1203,57.0,-10.0,2014-07-10,False,colocated,left
20,180.2979,0,460,1105,2857,4205,1001,0.0,200,0,0,183.599,1,0,10_07_2014 level23_spatial_F+V 10_40 Block6-23.txt,37,37,1203,57.0,-10.0,2014-07-10,False,colocated,left
83,783.7041,0,460,1105,2857,4205,801,0.0,200,0,0,784.3491,1,0,10_07_2014 level23_spatial_F+V 10_40 Block6-23.txt,37,37,1203,57.0,-10.0,2014-07-10,False,colocated,left
83,783.7041,0,460,1105,2857,4205,801,0.0,200,0,0,784.3491,1,0,10_07_2014 level23_spatial_F+V 10_40 Block6-23.txt,37,37,1203,57.0,-10.0,2014-07-10,False,colocated,left
144,1245.9532,0,460,1105,2857,4205,601,0.0,200,0,0,1246.9124,1,0,10_07_2014 level23_spatial_F+V 10_40 Block6-23.txt,37,37,1203,57.0,-10.0,2014-07-10,False,colocated,left
11,134.9334,0,460,1105,2857,4205,651,0.0,200,0,0,135.3699,1,0,16_07_2014 level23_spatial_F+V 15_27 Block6-32.txt,37,37,1203,57.0,-10.0,2014-07-16,False,colocated,left
103,1045.119,0,460,1105,2857,4205,901,0.0,200,0,0,1045.4804,1,0,16_07_2014 level23_spatial_F+V 15_27 Block6-32.txt,37,37,1203,57.0,-10.0,2014-07-16,False,colocated,left
64,670.4323,0,460,1105,2857,4205,951,0.0,200,0,0,670.7671,1,0,16_07_2014 level23_spatial_F+V 15_27 Block6-32.txt,37,37,1203,57.0,-10.0,2014-07-16,False,colocated,left
169,1444.7234,0,460,1105,2857,4205,951,0.0,200,0,0,1445.2421,1,0,10_07_2014 level23_spatial_F+V 10_40 Block6-23.txt,37,37,1203,57.0,-10.0,2014-07-10,False,colocated,left
138,1194.8719,0,460,1105,2857,4205,751,0.0,200,0,0,1196.8383,1,0,10_07_2014 level23_spatial_F+V 10_40 Block6-23.txt,37,37,1203,57.0,-10.0,2014-07-10,False,colocated,left
9,120.8671,0,460,1105,2857,4205,551,0.0,200,0,0,121.3586,1,0,16_07_2014 level23_spatial_F+V 15_27 Block6-32.txt,37,37,1203,57.0,-10.0,2014-07-16,False,colocated,left
64,670.4323,0,460,1105,2857,4205,951,0.0,200,0,0,670.7671,1,0,16_07_2014 level23_spatial_F+V 15_27 Block6-32.txt,37,37,1203,57.0,-10.0,2014-07-16,False,colocated,left
103,1045.119,0,460,1105,2857,4205,901,0.0,200,0,0,1045.4804,1,0,16_07_2014 level23_spatial_F+V 15_27 Block6-32.txt,37,37,1203,57.0,-10.0,2014-07-16,False,colocated,left
113,1014.9987,0,460,1105,2857,4205,801,0.0,200,0,1,1015.6808,0,0,10_07_2014 level23_spatial_F+V 10_40 Block6-23.txt,37,37,1203,57.0,-10.0,2014-07-10,False,colocated,left
124,1102.0824,0,460,1105,2857,4205,551,0.0,200,0,0,1102.5457,1,0,10_07_2014 level23_spatial_F+V 10_40 Block6-23.txt,37,37,1203,57.0,-10.0,2014-07-10,False,colocated,left
144,1245.9532,0,460,1105,2857,4205,601,0.0,200,0,0,1246.9124,1,0,10_07_2014 level23_spatial_F+V 10_40 Block6-23.txt,37,37,1203,57.0,-10.0,2014-07-10,False,colocated,left
64,670.4323,0,460,1105,2857,4205,951,0.0,200,0,0,670.7671,1,0,16_07_2014 level23_spatial_F+V 15_27 Block6-32.txt,37,37,1203,57.0,-10.0,2014-07-16,False,colocated,left
9,120.8671,0,460,1105,2857,4205,551,0.0,200,0,0,121.3586,1,0,16_07_2014 level23_spatial_F+V 15_27 Block6-32.txt,37,37,1203,57.0,-10.0,2014-07-16,False,colocated,left
124,1102.0824,0,460,1105,2857,4205,551,0.0,200,0,0,1102.5457,1,0,10_07_2014 level23_spatial_F+V 10_40 Block6-23.txt,37,37,1203,57.0,-10.0,2014-07-10,False,colocated,left
9,120.8671,0,460,1105,2857,4205,551,0.0,200,0,0,121.3586,1,0,16_07_2014 level23_spatial_F+V 15_27 Block6-32.txt,37,37,1203,57.0,-10.0,2014-07-16,False,colocated,left
98,999.833,0,460,1105,2857,4205,551,0.0,200,0,1,1000.8587,0,0,16_07_2014 level23_spatial_F+V 15_27 Block6-32.txt,37,37,1203,57.0,-10.0,2014-07-16,False,colocated,left
103,1045.119,0,460,1105,2857,4205,901,0.0,200,0,0,1045.4804,1,0,16_07_2014 level23_spatial_F+V 15_27 Block6-32.txt,37,37,1203,57.0,-10.0,2014-07-16,False,colocated,left
124,1102.0824,0,460,1105,2857,4205,551,0.0,200,0,0,1102.5457,1,0,10_07_2014 level23_spatial_F+V 10_40 Block6-23.txt,37,37,1203,57.0,-10.0,2014-07-10,False,colocated,left
124,1102.0824,0,460,1105,2857,4205,551,0.0,200,0,0,1102.5457,1,0,10_07_2014 level23_spatial_F+V 10_40 Block6-23.txt,37,37,1203,57.0,-10.0,2014-07-10,False,colocated,left
38,355.9507,0,460,1105,2857,4205,701,0.0,200,0,0,356.6606,1,0,10_07_2014 level23_spatial_F+V 10_40 Block6-23.txt,37,37,1203,57.0,-10.0,2014-07-10,False,colocated,left
83,783.7041,0,460,1105,2857,4205,801,0.0,200,0,0,784.3491,1,0,10_07_2014 level23_spatial_F+V 10_40 Block6-23.txt,37,37,1203,57.0,-10.0,2014-07-10,False,colocated,left
98,999.833,0,460,1105,2857,4205,551,0.0,200,0,1,1000.8587,0,0,16_07_2014 level23_spatial_F+V 15_27 Block6-32.txt,37,37,1203,57.0,-10.0,2014-07-16,False,colocated,left
138,1194.8719,0,460,1105,2857,4205,751,0.0,200,0,0,1196.8383,1,0,10_07_2014 level23_spatial_F+V 10_40 Block6-23.txt,37,37,1203,57.0,-10.0,2014-07-10,False,colocated,left
38,355.9507,0,460,1105,2857,4205,701,0.0,200,0,0,356.6606,1,0,10_07_2014 level23_spatial_F+V 10_40 Block6-23.txt,37,37,1203,57.0,-10.0,2014-07-10,False,colocated,left
103,1045.119,0,460,1105,2857,4205,901,0.0,200,0,0,1045.4804,1,0,16_07_2014 level23_spatial_F+V 15_27 Block6-32.txt,37,37,1203,57.0,-10.0,2014-07-16,False,colocated,left
169,1444.7234,0,460,1105,2857,4205,951,0.0,200,0,0,1445.2421,1,0,10_07_2014 level23_spatial_F+V 10_40 Block6-23.txt,37,37,1203,57.0,-10.0,2014-07-10,False,colocated,left
38,355.9507,0,460,1105,2857,4205,701,0.0,200,0,0,356.6606,1,0,10_07_2014 level23_spatial_F+V 10_40 Block6-23.txt,37,37,1203,57.0,-10.0,2014-07-10,False,colocated,left
81,763.2955,0,460,1105,2857,4205,601,0.0,200,0,0,764.0641,1,0,10_07_2014 level23_spatial_F+V 10_40 Block6-23.txt,37,37,1203,57.0,-10.0,2014-07-10,False,colocated,left
11,112.3619,0,460,1105,2857,4205,501,0.0,200,0,1,113.0028,0,0,10_07_2014 level23_spatial_F+V 10_40 Block6-23.txt,37,37,1203,57.0,-10.0,2014-07-10,False,colocated,left
124,1102.0824,0,460,1105,2857,4205,551,0.0,200,0,0,1102.5457,1,0,10_07_2014 level23_spatial_F+V 10_40 Block6-23.txt,37,37,1203,57.0,-10.0,2014-07-10,False,colocated,left
113,1014.9987,0,460,1105,2857,4205,801,0.0,200,0,1,1015.6808,0,0,10_07_2014 level23_spatial_F+V 10_40 Block6-23.txt,37,37,1203,57.0,-10.0,2014-07-10,False,colocated,left
144,1245.9532,0,460,1105,2857,4205,601,0.0,200,0,0,1246.9124,1,0,10_07_2014 level23_spatial_F+V 10_40 Block6-23.txt,37,37,1203,57.0,-10.0,2014-07-10,False,colocated,left
169,1444.7234,0,460,1105,2857,4205,951,0.0,200,0,0,1445.2421,1,0,10_07_2014 level23_spatial_F+V 10_40 Block6-23.txt,37,37,1203,57.0,-10.0,2014-07-10,False,colocated,left
124,1102.0824,0,460,1105,2857,4205,551,0.0,200,0,0,1102.5457,1,0,10_07_2014 level23_spatial_F+V 10_40 Block6-23.txt,37,37,1203,57.0,-10.0,2014-07-10,False,colocated,left
113,1014.9987,0,460,1105,2857,4205,801,0.0,200,0,1,1015.6808,0,0,10_07_2014 level23_spatial_F+V 10_40 Block6-23.txt,37,37,1203,57.0,-10.0,2014-07-10,False,colocated,left
138,1194.8719,0,460,1105,2857,4205,751,0.0,200,0,0,1196.8383,1,0,10_07_2014 level23_spatial_F+V 10_40 Block6-23.txt,37,37,1203,57.0,-10.0,2014-07-10,False,colocated,left
84,790.1972,0,460,1105,2857,4205,951,0.0,200,0,1,790.7461,0,0,10_07_2014 level23_spatial_F+V 10_40 Block6-23.txt,37,37,1203,57.0,-10.0,2014-07-10,False,colocated,left
81,763.2955,0,460,1105,2857,4205,601,0.0,200,0,0,764.0641,1,0,10_07_2014 level23_spatial_F+V 10_40 Block6-23.txt,37,37,1203,57.0,-10.0,2014-07-10,False,colocated,left
11,134.9334,0,460,1105,2857,4205,651,0.0,200,0,0,135.3699,1,0,16_07_2014 level23_spatial_F+V 15_27 Block6-32.txt,37,37,1203,57.0,-10.0,2014-07-16,False,colocated,left
94,975.8141,0,460,1105,2857,4205,701,0.0,200,0,0,976.1601,1,0,16_07_2014 level23_spatial_F+V 15_27 Block6-32.txt,37,37,1203,57.0,-10.0,2014-07-16,False,colocated,left
103,1045.119,0,460,1105,2857,4205,901,0.0,200,0,0,1045.4804,1,0,16_07_2014 level23_spatial_F+V 15_27 Block6-32.txt,37,37,1203,57.0,-10.0,2014-07-16,False,colocated,left
126,1117.9763,0,460,1105,2857,4205,801,0.0,200,0,0,1118.9671,1,0,10_07_2014 level23_spatial_F+V 10_40 Block6-23.txt,37,37,1203,57.0,-10.0,2014-07-10,False,colocated,left
113,1014.9987,0,460,1105,2857,4205,801,0.0,200,0,1,1015.6808,0,0,10_07_2014 level23_spatial_F+V 10_40 Block6-23.txt,37,37,1203,57.0,-10.0,2014-07-10,False,colocated,left
9,120.8671,0,460,1105,2857,4205,551,0.0,200,0,0,121.3586,1,0,16_07_2014 level23_spatial_F+V 15_27 Block6-32.txt,37,37,1203,57.0,-10.0,2014-07-16,False,colocated,left
136,1328.3832,0,460,1105,2857,4205,651,0.0,200,0,0,1328.8944,1,0,16_07_2014 level23_spatial_F+V 15_27 Block6-32.txt,37,37,1203,57.0,-10.0,2014-07-16,False,colocated,left
103,1045.119,0,460,1105,2857,4205,901,0.0,200,0,0,1045.4804,1,0,16_07_2014 level23_spatial_F+V 15_27 Block6-32.txt,37,37,1203,57.0,-10.0,2014-07-16,False,colocated,left
138,1194.8719,0,460,1105,2857,4205,751,0.0,200,0,0,1196.8383,1,0,10_07_2014 level23_spatial_F+V 10_40 Block6-23.txt,37,37,1203,57.0,-10.0,2014-07-10,False,colocated,left
11,134.9334,0,460,1105,2857,4205,651,0.0,200,0,0,135.3699,1,0,16_07_2014 level23_spatial_F+V 15_27 Block6-32.txt,37,37,1203,57.0,-10.0,2014-07-16,False,colocated,left
83,783.7041,0,460,1105,2857,4205,801,0.0,200,0,0,784.3491,1,0,10_07_2014 level23_spatial_F+V 10_40 Block6-23.txt,37,37,1203,57.0,-10.0,2014-07-10,False,colocated,left
113,1014.9987,0,460,1105,2857,4205,801,0.0,200,0,1,1015.6808,0,0,10_07_2014 level23_spatial_F+V 10_40 Block6-23.txt,37,37,1203,57.0,-10.0,2014-07-10,False,colocated,left
103,1045.119,0,460,1105,2857,4205,901,0.0,200,0,0,1045.4804,1,0,16_07_2014 level23_spatial_F+V 15_27 Block6-32.txt,37,37,1203,57.0,-10.0,2014-07-16,False,colocated,left
38,355.9507,0,460,1105,2857,4205,701,0.0,200,0,0,356.6606,1,0,10_07_2014 level23_spatial_F+V 10_40 Block6-23.txt,37,37,1203,57.0,-10.0,2014-07-10,False,colocated,left
94,975.8141,0,460,1105,2857,4205,701,0.0,200,0,0,976.1601,1,0,16_07_2014 level23_spatial_F+V 15_27 Block6-32.txt,37,37,1203,57.0,-10.0,2014-07-16,False,colocated,left
64,670.4323,0,460,1105,2857,4205,951,0.0,200,0,0,670.7671,1,0,16_07_2014 level23_spatial_F+V 15_27 Block6-32.txt,37,37,1203,57.0,-10.0,2014-07-16,False,colocated,left
144,1245.9532,0,460,1105,2857,4205,601,0.0,200,0,0,1246.9124,1,0,10_07_2014 level23_spatial_F+V 10_40 Block6-23.txt,37,37,1203,57.0,-10.0,2014-07-10,False,colocated,left
124,1102.0824,0,460,1105,2857,4205,551,0.0,200,0,0,1102.5457,1,0,10_07_2014 level23_spatial_F+V 10_40 Block6-23.txt,37,37,1203,57.0,-10.0,2014-07-10,False,colocated,left
11,134.9334,0,460,1105,2857,4205,651,0.0,200,0,0,135.3699,1,0,16_07_2014 level23_spatial_F+V 15_27 Block6-32.txt,37,37,1203,57.0,-10.0,2014-07-16,False,colocated,left
144,1245.9532,0,460,1105,2857,4205,601,0.0,200,0,0,1246.9124,1,0,10_07_2014 level23_spatial_F+V 10_40 Block6-23.txt,37,37,1203,57.0,-10.0,2014-07-10,False,colocated,left
64,670.4323,0,460,1105,2857,4205,951,0.0,200,0,0,670.7671,1,0,16_07_2014 level23_spatial_F+V 15_27 Block6-32.txt,37,37,1203,57.0,-10.0,2014-07-16,False,colocated,left
9,120.8671,0,460,1105,2857,4205,551,0.0,200,0,0,121.3586,1,0,16_07_2014 level23_spatial_F+V 15_27 Block6-32.txt,37,37,1203,57.0,-10.0,2014-07-16,False,colocated,left
103,1045.119,0,460,1105,2857,4205,901,0.0,200,0,0,1045.4804,1,0,16_07_2014 level23_spatial_F+V 15_27 Block6-32.txt,37,37,1203,57.0,-10.0,2014-07-16,False,colocated,left
9,120.8671,0,460,1105,2857,4205,551,0.0,200,0,0,121.3586,1,0,16_07_2014 level23_spatial_F+V 15_27 Block6-32.txt,37,37,1203,57.0,-10.0,2014-07-16,False,colocated,left
11,112.3619,0,460,1105,2857,4205,501,0.0,200,0,1,113.0028,0,0,10_07_2014 level23_spatial_F+V 10_40 Block6-23.txt,37,37,1203,57.0,-10.0,2014-07-10,False,colocated,left
11,112.3619,0,460,1105,2857,4205,501,0.0,200,0,1,113.0028,0,0,10_07_2014 level23_spatial_F+V 10_40 Block6-23.txt,37,37,1203,57.0,-10.0,2014-07-10,False,colocated,left
113,1014.9987,0,460,1105,2857,4205,801,0.0,200,0,1,1015.6808,0,0,10_07_2014 level23_spatial_F+V 10_40 Block6-23.txt,37,37,1203,57.0,-10.0,2014-07-10,False,colocated,left
113,1014.9987,0,460,1105,2857,4205,801,0.0,200,0,1,1015.6808,0,0,10_07_2014 level23_spatial_F+V 10_40 Block6-23.txt,37,37,1203,57.0,-10.0,2014-07-10,False,colocated,left
65,677.6637,0,730,2058,2857,4205,601,0.0,200,1,1,678.1607,1,0,16_07_2014 level23_spatial_F+V 15_27 Block6-32.txt,37,37,1203,57.0,-10.0,2014-07-16,False,colocated,left
109,1087.8006,0,730,2058,2857,4205,751,0.0,200,1,1,1088.2259,1,0,16_07_2014 level23_spatial_F+V 15_27 Block6-32.txt,37,37,1203,57.0,-10.0,2014-07-16,False,colocated,left
14,136.7313,0,730,2058,2857,4205,651,0.0,200,1,1,137.4011,1,0,10_07_2014 level23_spatial_F+V 10_40 Block6-23.txt,37,37,1203,57.0,-10.0,2014-07-10,False,colocated,left
143,1236.2088,0,730,2058,2857,4205,701,0.0,200,1,1,1236.6497,1,0,10_07_2014 level23_spatial_F+V 10_40 Block6-23.txt,37,37,1203,57.0,-10.0,2014-07-10,False,colocated,left
109,1087.8006,0,730,2058,2857,4205,751,0.0,200,1,1,1088.2259,1,0,16_07_2014 level23_spatial_F+V 15_27 Block6-32.txt,37,37,1203,57.0,-10.0,2014-07-16,False,colocated,left
2,32.539,0,730,2058,2857,4205,501,0.0,200,1,0,33.6661,0,0,16_07_2014 level23_spatial_F+V 15_27 Block6-32.txt,37,37,1203,57.0,-10.0,2014-07-16,False,colocated,left
144,1388.4957,0,730,2058,2857,4205,501,0.0,200,1,1,1389.2964,1,0,16_07_2014 level23_spatial_F+V 15_27 Block6-32.txt,37,37,1203,57.0,-10.0,2014-07-16,False,colocated,left
130,1142.3678,0,730,2058,2857,4205,651,0.0,200,1,1,1143.2644,1,0,10_07_2014 level23_spatial_F+V 10_40 Block6-23.txt,37,37,1203,57.0,-10.0,2014-07-10,False,colocated,left
6,85.0639,0,730,2058,2857,4205,901,0.0,200,1,0,85.5477,0,0,16_07_2014 level23_spatial_F+V 15_27 Block6-32.txt,37,37,1203,57.0,-10.0,2014-07-16,False,colocated,left
21,240.9499,0,730,2058,2857,4205,601,0.0,200,1,0,241.8298,0,0,16_07_2014 level23_spatial_F+V 15_27 Block6-32.txt,37,37,1203,57.0,-10.0,2014-07-16,False,colocated,left
47,430.2804,0,730,2058,2857,4205,801,0.0,200,1,1,430.6972,1,0,10_07_2014 level23_spatial_F+V 10_40 Block6-23.txt,37,37,1203,57.0,-10.0,2014-07-10,False,colocated,left
139,1353.1868,0,730,2058,2857,4205,1001,0.0,200,1,1,1353.7112,1,0,16_07_2014 level23_spatial_F+V 15_27 Block6-32.txt,37,37,1203,57.0,-10.0,2014-07-16,False,colocated,left
57,521.2557,0,730,2058,2857,4205,901,0.0,200,1,1,521.6703,1,0,10_07_2014 level23_spatial_F+V 10_40 Block6-23.txt,37,37,1203,57.0,-10.0,2014-07-10,False,colocated,left
65,677.6637,0,730,2058,2857,4205,601,0.0,200,1,1,678.1607,1,0,16_07_2014 level23_spatial_F+V 15_27 Block6-32.txt,37,37,1203,57.0,-10.0,2014-07-16,False,colocated,left
109,1087.8006,0,730,2058,2857,4205,751,0.0,200,1,1,1088.2259,1,0,16_07_2014 level23_spatial_F+V 15_27 Block6-32.txt,37,37,1203,57.0,-10.0,2014-07-16,False,colocated,left
2,32.539,0,730,2058,2857,4205,501,0.0,200,1,0,33.6661,0,0,16_07_2014 level23_spatial_F+V 15_27 Block6-32.txt,37,37,1203,57.0,-10.0,2014-07-16,False,colocated,left
143,1236.2088,0,730,2058,2857,4205,701,0.0,200,1,1,1236.6497,1,0,10_07_2014 level23_spatial_F+V 10_40 Block6-23.txt,37,37,1203,57.0,-10.0,2014-07-10,False,colocated,left
2,32.539,0,730,2058,2857,4205,501,0.0,200,1,0,33.6661,0,0,16_07_2014 level23_spatial_F+V 15_27 Block6-32.txt,37,37,1203,57.0,-10.0,2014-07-16,False,colocated,left
2,32.539,0,730,2058,2857,4205,501,0.0,200,1,0,33.6661,0,0,16_07_2014 level23_spatial_F+V 15_27 Block6-32.txt,37,37,1203,57.0,-10.0,2014-07-16,False,colocated,left
158,1353.772,0,730,2058,2857,4205,501,0.0,200,1,1,1354.4697,1,0,10_07_2014 level23_spatial_F+V 10_40 Block6-23.txt,37,37,1203,57.0,-10.0,2014-07-10,False,colocated,left
52,491.4996,0,730,2058,2857,4205,801,0.0,200,1,1,492.2808,1,0,10_07_2014 level23_spatial_F+V 10_40 Block6-23.txt,37,37,1203,57.0,-10.0,2014-07-10,False,colocated,left
2,32.539,0,730,2058,2857,4205,501,0.0,200,1,0,33.6661,0,0,16_07_2014 level23_spatial_F+V 15_27 Block6-32.txt,37,37,1203,57.0,-10.0,2014-07-16,False,colocated,left
21,240.9499,0,730,2058,2857,4205,601,0.0,200,1,0,241.8298,0,0,16_07_2014 level23_spatial_F+V 15_27 Block6-32.txt,37,37,1203,57.0,-10.0,2014-07-16,False,colocated,left
90,831.7356,0,730,2058,2857,4205,801,0.0,200,1,1,834.9655,1,0,10_07_2014 level23_spatial_F+V 10_40 Block6-23.txt,37,37,1203,57.0,-10.0,2014-07-10,False,colocated,left
39,362.779,0,730,2058,2857,4205,501,0.0,200,1,1,363.3493,1,0,10_07_2014 level23_spatial_F+V 10_40 Block6-23.txt,37,37,1203,57.0,-10.0,2014-07-10,False,colocated,left
52,491.4996,0,730,2058,2857,4205,801,0.0,200,1,1,492.2808,1,0,10_07_2014 level23_spatial_F+V 10_40 Block6-23.txt,37,37,1203,57.0,-10.0,2014-07-10,False,colocated,left
2,32.539,0,730,2058,2857,4205,501,0.0,200,1,0,33.6661,0,0,16_07_2014 level23_spatial_F+V 15_27 Block6-32.txt,37,37,1203,57.0,-10.0,2014-07-16,False,colocated,left
2,32.539,0,730,2058,2857,4205,501,0.0,200,1,0,33.6661,0,0,16_07_2014 level23_spatial_F+V 15_27 Block6-32.txt,37,37,1203,57.0,-10.0,2014-07-16,False,colocated,left
130,1142.3678,0,730,2058,2857,4205,651,0.0,200,1,1,1143.2644,1,0,10_07_2014 level23_spatial_F+V 10_40 Block6-23.txt,37,37,1203,57.0,-10.0,2014-07-10,False,colocated,left
65,677.6637,0,730,2058,2857,4205,601,0.0,200,1,1,678.1607,1,0,16_07_2014 level23_spatial_F+V 15_27 Block6-32.txt,37,37,1203,57.0,-10.0,2014-07-16,False,colocated,left
57,521.2557,0,730,2058,2857,4205,901,0.0,200,1,1,521.6703,1,0,10_07_2014 level23_spatial_F+V 10_40 Block6-23.txt,37,37,1203,57.0,-10.0,2014-07-10,False,colocated,left
159,1360.7525,0,730,2058,2857,4205,601,0.0,200,1,1,1361.8837,1,0,10_07_2014 level23_spatial_F+V 10_40 Block6-23.txt,37,37,1203,57.0,-10.0,2014-07-10,False,colocated,left
21,240.9499,0,730,2058,2857,4205,601,0.0,200,1,0,241.8298,0,0,16_07_2014 level23_spatial_F+V 15_27 Block6-32.txt,37,37,1203,57.0,-10.0,2014-07-16,False,colocated,left
82,868.3922,0,730,2058,2857,4205,901,0.0,200,1,1,869.1832,1,0,16_07_2014 level23_spatial_F+V 15_27 Block6-32.txt,37,37,1203,57.0,-10.0,2014-07-16,False,colocated,left
159,1360.7525,0,730,2058,2857,4205,601,0.0,200,1,1,1361.8837,1,0,10_07_2014 level23_spatial_F+V 10_40 Block6-23.txt,37,37,1203,57.0,-10.0,2014-07-10,False,colocated,left
139,1353.1868,0,730,2058,2857,4205,1001,0.0,200,1,1,1353.7112,1,0,16_07_2014 level23_spatial_F+V 15_27 Block6-32.txt,37,37,1203,57.0,-10.0,2014-07-16,False,colocated,left
52,491.4996,0,730,2058,2857,4205,801,0.0,200,1,1,492.2808,1,0,10_07_2014 level23_spatial_F+V 10_40 Block6-23.txt,37,37,1203,57.0,-10.0,2014-07-10,False,colocated,left
39,362.779,0,730,2058,2857,4205,501,0.0,200,1,1,363.3493,1,0,10_07_2014 level23_spatial_F+V 10_40 Block6-23.txt,37,37,1203,57.0,-10.0,2014-07-10,False,colocated,left
14,136.7313,0,730,2058,2857,4205,651,0.0,200,1,1,137.4011,1,0,10_07_2014 level23_spatial_F+V 10_40 Block6-23.txt,37,37,1203,57.0,-10.0,2014-07-10,False,colocated,left
139,1353.1868,0,730,2058,2857,4205,1001,0.0,200,1,1,1353.7112,1,0,16_07_2014 level23_spatial_F+V 15_27 Block6-32.txt,37,37,1203,57.0,-10.0,2014-07-16,False,colocated,left
65,677.6637,0,730,2058,2857,4205,601,0.0,200,1,1,678.1607,1,0,16_07_2014 level23_spatial_F+V 15_27 Block6-32.txt,37,37,1203,57.0,-10.0,2014-07-16,False,colocated,left
9,98.9328,0,730,2058,2857,4205,1001,0.0,200,1,1,99.4828,1,0,10_07_2014 level23_spatial_F+V 10_40 Block6-23.txt,37,37,1203,57.0,-10.0,2014-07-10,False,colocated,left
82,868.3922,0,730,2058,2857,4205,901,0.0,200,1,1,869.1832,1,0,16_07_2014 level23_spatial_F+V 15_27 Block6-32.txt,37,37,1203,57.0,-10.0,2014-07-16,False,colocated,left
127,1124.2315,0,730,2058,2857,4205,901,0.0,200,1,1,1124.7827,1,0,10_07_2014 level23_spatial_F+V 10_40 Block6-23.txt,37,37,1203,57.0,-10.0,2014-07-10,False,colocated,left
2,32.539,0,730,2058,2857,4205,501,0.0,200,1,0,33.6661,0,0,16_07_2014 level23_spatial_F+V 15_27 Block6-32.txt,37,37,1203,57.0,-10.0,2014-07-16,False,colocated,left
144,1388.4957,0,730,2058,2857,4205,501,0.0,200,1,1,1389.2964,1,0,16_07_2014 level23_spatial_F+V 15_27 Block6-32.txt,37,37,1203,57.0,-10.0,2014-07-16,False,colocated,left
144,1388.4957,0,730,2058,2857,4205,501,0.0,200,1,1,1389.2964,1,0,16_07_2014 level23_spatial_F+V 15_27 Block6-32.txt,37,37,1203,57.0,-10.0,2014-07-16,False,colocated,left
52,491.4996,0,730,2058,2857,4205,801,0.0,200,1,1,492.2808,1,0,10_07_2014 level23_spatial_F+V 10_40 Block6-23.txt,37,37,1203,57.0,-10.0,2014-07-10,False,colocated,left
127,1124.2315,0,730,2058,2857,4205,901,0.0,200,1,1,1124.7827,1,0,10_07_2014 level23_spatial_F+V 10_40 Block6-23.txt,37,37,1203,57.0,-10.0,2014-07-10,False,colocated,left
139,1353.1868,0,730,2058,2857,4205,1001,0.0,200,1,1,1353.7112,1,0,16_07_2014 level23_spatial_F+V 15_27 Block6-32.txt,37,37,1203,57.0,-10.0,2014-07-16,False,colocated,left
139,1353.1868,0,730,2058,2857,4205,1001,0.0,200,1,1,1353.7112,1,0,16_07_2014 level23_spatial_F+V 15_27 Block6-32.txt,37,37,1203,57.0,-10.0,2014-07-16,False,colocated,left
109,1087.8006,0,730,2058,2857,4205,751,0.0,200,1,1,1088.2259,1,0,16_07_2014 level23_spatial_F+V 15_27 Block6-32.txt,37,37,1203,57.0,-10.0,2014-07-16,False,colocated,left
57,521.2557,0,730,2058,2857,4205,901,0.0,200,1,1,521.6703,1,0,10_07_2014 level23_spatial_F+V 10_40 Block6-23.txt,37,37,1203,57.0,-10.0,2014-07-10,False,colocated,left
158,1353.772,0,730,2058,2857,4205,501,0.0,200,1,1,1354.4697,1,0,10_07_2014 level23_spatial_F+V 10_40 Block6-23.txt,37,37,1203,57.0,-10.0,2014-07-10,False,colocated,left
47,430.2804,0,730,2058,2857,4205,801,0.0,200,1,1,430.6972,1,0,10_07_2014 level23_spatial_F+V 10_40 Block6-23.txt,37,37,1203,57.0,-10.0,2014-07-10,False,colocated,left
47,430.2804,0,730,2058,2857,4205,801,0.0,200,1,1,430.6972,1,0,10_07_2014 level23_spatial_F+V 10_40 Block6-23.txt,37,37,1203,57.0,-10.0,2014-07-10,False,colocated,left
90,831.7356,0,730,2058,2857,4205,801,0.0,200,1,1,834.9655,1,0,10_07_2014 level23_spatial_F+V 10_40 Block6-23.txt,37,37,1203,57.0,-10.0,2014-07-10,False,colocated,left
82,868.3922,0,730,2058,2857,4205,901,0.0,200,1,1,869.1832,1,0,16_07_2014 level23_spatial_F+V 15_27 Block6-32.txt,37,37,1203,57.0,-10.0,2014-07-16,False,colocated,left
109,1087.8006,0,730,2058,2857,4205,751,0.0,200,1,1,1088.2259,1,0,16_07_2014 level23_spatial_F+V 15_27 Block6-32.txt,37,37,1203,57.0,-10.0,2014-07-16,False,colocated,left
130,1142.3678,0,730,2058,2857,4205,651,0.0,200,1,1,1143.2644,1,0,10_07_2014 level23_spatial_F+V 10_40 Block6-23.txt,37,37,1203,57.0,-10.0,2014-07-10,False,colocated,left
65,677.6637,0,730,2058,2857,4205,601,0.0,200,1,1,678.1607,1,0,16_07_2014 level23_spatial_F+V 15_27 Block6-32.txt,37,37,1203,57.0,-10.0,2014-07-16,False,colocated,left
21,240.9499,0,730,2058,2857,4205,601,0.0,200,1,0,241.8298,0,0,16_07_2014 level23_spatial_F+V 15_27 Block6-32.txt,37,37,1203,57.0,-10.0,2014-07-16,False,colocated,left
143,1236.2088,0,730,2058,2857,4205,701,0.0,200,1,1,1236.6497,1,0,10_07_2014 level23_spatial_F+V 10_40 Block6-23.txt,37,37,1203,57.0,-10.0,2014-07-10,False,colocated,left
9,98.9328,0,730,2058,2857,4205,1001,0.0,200,1,1,99.4828,1,0,10_07_2014 level23_spatial_F+V 10_40 Block6-23.txt,37,37,1203,57.0,-10.0,2014-07-10,False,colocated,left
143,1236.2088,0,730,2058,2857,4205,701,0.0,200,1,1,1236.6497,1,0,10_07_2014 level23_spatial_F+V 10_40 Block6-23.txt,37,37,1203,57.0,-10.0,2014-07-10,False,colocated,left
82,868.3922,0,730,2058,2857,4205,901,0.0,200,1,1,869.1832,1,0,16_07_2014 level23_spatial_F+V 15_27 Block6-32.txt,37,37,1203,57.0,-10.0,2014-07-16,False,colocated,left
39,362.779,0,730,2058,2857,4205,501,0.0,200,1,1,363.3493,1,0,10_07_2014 level23_spatial_F+V 10_40 Block6-23.txt,37,37,1203,57.0,-10.0,2014-07-10,False,colocated,left
158,1353.772,0,730,2058,2857,4205,501,0.0,200,1,1,1354.4697,1,0,10_07_2014 level23_spatial_F+V 10_40 Block6-23.txt,37,37,1203,57.0,-10.0,2014-07-10,False,colocated,left
47,430.2804,0,730,2058,2857,4205,801,0.0,200,1,1,430.6972,1,0,10_07_2014 level23_spatial_F+V 10_40 Block6-23.txt,37,37,1203,57.0,-10.0,2014-07-10,False,colocated,left
139,1353.1868,0,730,2058,2857,4205,1001,0.0,200,1,1,1353.7112,1,0,16_07_2014 level23_spatial_F+V 15_27 Block6-32.txt,37,37,1203,57.0,-10.0,2014-07-16,False,colocated,left
6,85.0639,0,730,2058,2857,4205,901,0.0,200,1,0,85.5477,0,0,16_07_2014 level23_spatial_F+V 15_27 Block6-32.txt,37,37,1203,57.0,-10.0,2014-07-16,False,colocated,left
130,1142.3678,0,730,2058,2857,4205,651,0.0,200,1,1,1143.2644,1,0,10_07_2014 level23_spatial_F+V 10_40 Block6-23.txt,37,37,1203,57.0,-10.0,2014-07-10,False,colocated,left
82,868.3922,0,730,2058,2857,4205,901,0.0,200,1,1,869.1832,1,0,16_07_2014 level23_spatial_F+V 15_27 Block6-32.txt,37,37,1203,57.0,-10.0,2014-07-16,False,colocated,left
14,136.7313,0,730,2058,2857,4205,651,0.0,200,1,1,137.4011,1,0,10_07_2014 level23_spatial_F+V 10_40 Block6-23.txt,37,37,1203,57.0,-10.0,2014-07-10,False,colocated,left
158,1353.772,0,730,2058,2857,4205,501,0.0,200,1,1,1354.4697,1,0,10_07_2014 level23_spatial_F+V 10_40 Block6-23.txt,37,37,1203,57.0,-10.0,2014-07-10,False,colocated,left
143,1236.2088,0,730,2058,2857,4205,701,0.0,200,1,1,1236.6497,1,0,10_07_2014 level23_spatial_F+V 10_40 Block6-23.txt,37,37,1203,57.0,-10.0,2014-07-10,False,colocated,left
159,1360.7525,0,730,2058,2857,4205,601,0.0,200,1,1,1361.8837,1,0,10_07_2014 level23_spatial_F+V 10_40 Block6-23.txt,37,37,1203,57.0,-10.0,2014-07-10,False,colocated,left
39,362.779,0,730,2058,2857,4205,501,0.0,200,1,1,363.3493,1,0,10_07_2014 level23_spatial_F+V 10_40 Block6-23.txt,37,37,1203,57.0,-10.0,2014-07-10,False,colocated,left
158,1353.772,0,730,2058,2857,4205,501,0.0,200,1,1,1354.4697,1,0,10_07_2014 level23_spatial_F+V 10_40 Block6-23.txt,37,37,1203,57.0,-10.0,2014-07-10,False,colocated,left
9,98.9328,0,730,2058,2857,4205,1001,0.0,200,1,1,99.4828,1,0,10_07_2014 level23_spatial_F+V 10_40 Block6-23.txt,37,37,1203,57.0,-10.0,2014-07-10,False,colocated,left
130,1142.3678,0,730,2058,2857,4205,651,0.0,200,1,1,1143.2644,1,0,10_07_2014 level23_spatial_F+V 10_40 Block6-23.txt,37,37,1203,57.0,-10.0,2014-07-10,False,colocated,left
62,645.1794,0,730,2058,2857,4205,551,0.0,200,1,0,645.9745,0,0,16_07_2014 level23_spatial_F+V 15_27 Block6-32.txt,37,37,1203,57.0,-10.0,2014-07-16,False,colocated,left
14,136.7313,0,730,2058,2857,4205,651,0.0,200,1,1,137.4011,1,0,10_07_2014 level23_spatial_F+V 10_40 Block6-23.txt,37,37,1203,57.0,-10.0,2014-07-10,False,colocated,left
90,831.7356,0,730,2058,2857,4205,801,0.0,200,1,1,834.9655,1,0,10_07_2014 level23_spatial_F+V 10_40 Block6-23.txt,37,37,1203,57.0,-10.0,2014-07-10,False,colocated,left
82,868.3922,0,730,2058,2857,4205,901,0.0,200,1,1,869.1832,1,0,16_07_2014 level23_spatial_F+V 15_27 Block6-32.txt,37,37,1203,57.0,-10.0,2014-07-16,False,colocated,left
82,868.3922,0,730,2058,2857,4205,901,0.0,200,1,1,869.1832,1,0,16_07_2014 level23_spatial_F+V 15_27 Block6-32.txt,37,37,1203,57.0,-10.0,2014-07-16,False,colocated,left
109,1087.8006,0,730,2058,2857,4205,751,0.0,200,1,1,1088.2259,1,0,16_07_2014 level23_spatial_F+V 15_27 Block6-32.txt,37,37,1203,57.0,-10.0,2014-07-16,False,colocated,left
158,1353.772,0,730,2058,2857,4205,501,0.0,200,1,1,1354.4697,1,0,10_07_2014 level23_spatial_F+V 10_40 Block6-23.txt,37,37,1203,57.0,-10.0,2014-07-10,False,colocated,left
39,362.779,0,730,2058,2857,4205,501,0.0,200,1,1,363.3493,1,0,10_07_2014 level23_spatial_F+V 10_40 Block6-23.txt,37,37,1203,57.0,-10.0,2014-07-10,False,colocated,left
21,240.9499,0,730,2058,2857,4205,601,0.0,200,1,0,241.8298,0,0,16_07_2014 level23_spatial_F+V 15_27 Block6-32.txt,37,37,1203,57.0,-10.0,2014-07-16,False,colocated,left
9,98.9328,0,730,2058,2857,4205,1001,0.0,200,1,1,99.4828,1,0,10_07_2014 level23_spatial_F+V 10_40 Block6-23.txt,37,37,1203,57.0,-10.0,2014-07-10,False,colocated,left
133,1307.3365,0,460,1105,2857,4205,1001,0.0,200,0,0,1307.7142,1,1,16_07_2014 level23_spatial_F+V 15_27 Block6-32.txt,37,37,1203,57.0,-10.0,2014-07-16,False,colocated,right
145,1253.4973,0,460,1105,2857,4205,801,0.0,200,0,0,1254.352,1,1,10_07_2014 level23_spatial_F+V 10_40 Block6-23.txt,37,37,1203,57.0,-10.0,2014-07-10,False,colocated,right
87,914.8002,0,460,1105,2857,4205,851,0.0,200,0,0,915.2379,1,1,16_07_2014 level23_spatial_F+V 15_27 Block6-32.txt,37,37,1203,57.0,-10.0,2014-07-16,False,colocated,right
48,438.6796,0,460,1105,2857,4205,751,0.0,200,0,0,439.7498,1,1,10_07_2014 level23_spatial_F+V 10_40 Block6-23.txt,37,37,1203,57.0,-10.0,2014-07-10,False,colocated,right
145,1253.4973,0,460,1105,2857,4205,801,0.0,200,0,0,1254.352,1,1,10_07_2014 level23_spatial_F+V 10_40 Block6-23.txt,37,37,1203,57.0,-10.0,2014-07-10,False,colocated,right
141,1365.8856,0,460,1105,2857,4205,951,0.0,200,0,1,1366.4266,0,1,16_07_2014 level23_spatial_F+V 15_27 Block6-32.txt,37,37,1203,57.0,-10.0,2014-07-16,False,colocated,right
8,112.5774,0,460,1105,2857,4205,1001,0.0,200,0,0,112.952,1,1,16_07_2014 level23_spatial_F+V 15_27 Block6-32.txt,37,37,1203,57.0,-10.0,2014-07-16,False,colocated,right
145,1253.4973,0,460,1105,2857,4205,801,0.0,200,0,0,1254.352,1,1,10_07_2014 level23_spatial_F+V 10_40 Block6-23.txt,37,37,1203,57.0,-10.0,2014-07-10,False,colocated,right
43,441.2842,0,460,1105,2857,4205,551,0.0,200,0,0,441.8973,1,1,16_07_2014 level23_spatial_F+V 15_27 Block6-32.txt,37,37,1203,57.0,-10.0,2014-07-16,False,colocated,right
87,914.8002,0,460,1105,2857,4205,851,0.0,200,0,0,915.2379,1,1,16_07_2014 level23_spatial_F+V 15_27 Block6-32.txt,37,37,1203,57.0,-10.0,2014-07-16,False,colocated,right
18,206.1553,0,460,1105,2857,4205,751,0.0,200,0,0,206.3881,1,1,16_07_2014 level23_spatial_F+V 15_27 Block6-32.txt,37,37,1203,57.0,-10.0,2014-07-16,False,colocated,right
48,438.6796,0,460,1105,2857,4205,751,0.0,200,0,0,439.7498,1,1,10_07_2014 level23_spatial_F+V 10_40 Block6-23.txt,37,37,1203,57.0,-10.0,2014-07-10,False,colocated,right
96,878.1358,0,460,1105,2857,4205,701,0.0,200,0,0,879.0487,1,1,10_07_2014 level23_spatial_F+V 10_40 Block6-23.txt,37,37,1203,57.0,-10.0,2014-07-10,False,colocated,right
43,441.2842,0,460,1105,2857,4205,551,0.0,200,0,0,441.8973,1,1,16_07_2014 level23_spatial_F+V 15_27 Block6-32.txt,37,37,1203,57.0,-10.0,2014-07-16,False,colocated,right
161,1382.0723,0,460,1105,2857,4205,551,0.0,200,0,0,1383.5497,1,1,10_07_2014 level23_spatial_F+V 10_40 Block6-23.txt,37,37,1203,57.0,-10.0,2014-07-10,False,colocated,right
133,1307.3365,0,460,1105,2857,4205,1001,0.0,200,0,0,1307.7142,1,1,16_07_2014 level23_spatial_F+V 15_27 Block6-32.txt,37,37,1203,57.0,-10.0,2014-07-16,False,colocated,right
42,392.4182,0,460,1105,2857,4205,601,0.0,200,0,0,393.0706,1,1,10_07_2014 level23_spatial_F+V 10_40 Block6-23.txt,37,37,1203,57.0,-10.0,2014-07-10,False,colocated,right
145,1253.4973,0,460,1105,2857,4205,801,0.0,200,0,0,1254.352,1,1,10_07_2014 level23_spatial_F+V 10_40 Block6-23.txt,37,37,1203,57.0,-10.0,2014-07-10,False,colocated,right
161,1382.0723,0,460,1105,2857,4205,551,0.0,200,0,0,1383.5497,1,1,10_07_2014 level23_spatial_F+V 10_40 Block6-23.txt,37,37,1203,57.0,-10.0,2014-07-10,False,colocated,right
87,914.8002,0,460,1105,2857,4205,851,0.0,200,0,0,915.2379,1,1,16_07_2014 level23_spatial_F+V 15_27 Block6-32.txt,37,37,1203,57.0,-10.0,2014-07-16,False,colocated,right
42,392.4182,0,460,1105,2857,4205,601,0.0,200,0,0,393.0706,1,1,10_07_2014 level23_spatial_F+V 10_40 Block6-23.txt,37,37,1203,57.0,-10.0,2014-07-10,False,colocated,right
145,1253.4973,0,460,1105,2857,4205,801,0.0,200,0,0,1254.352,1,1,10_07_2014 level23_spatial_F+V 10_40 Block6-23.txt,37,37,1203,57.0,-10.0,2014-07-10,False,colocated,right
175,1485.147,0,460,1105,2857,4205,801,0.0,200,0,0,1485.5497,1,1,10_07_2014 level23_spatial_F+V 10_40 Block6-23.txt,37,37,1203,57.0,-10.0,2014-07-10,False,colocated,right
48,438.6796,0,460,1105,2857,4205,751,0.0,200,0,0,439.7498,1,1,10_07_2014 level23_spatial_F+V 10_40 Block6-23.txt,37,37,1203,57.0,-10.0,2014-07-10,False,colocated,right
42,392.4182,0,460,1105,2857,4205,601,0.0,200,0,0,393.0706,1,1,10_07_2014 level23_spatial_F+V 10_40 Block6-23.txt,37,37,1203,57.0,-10.0,2014-07-10,False,colocated,right
48,438.6796,0,460,1105,2857,4205,751,0.0,200,0,0,439.7498,1,1,10_07_2014 level23_spatial_F+V 10_40 Block6-23.txt,37,37,1203,57.0,-10.0,2014-07-10,False,colocated,right
100,908.065,1,460,1105,2857,4205,951,0.0,200,0,1,908.5001,0,1,10_07_2014 level23_spatial_F+V 10_40 Block6-23.txt,37,37,1203,57.0,-10.0,2014-07-10,False,colocated,right
69,710.8836,0,460,1105,2857,4205,901,0.0,200,0,0,711.5218,1,1,16_07_2014 level23_spatial_F+V 15_27 Block6-32.txt,37,37,1203,57.0,-10.0,2014-07-16,False,colocated,right
154,1320.6163,0,460,1105,2857,4205,651,0.0,200,0,1,1321.0685,0,1,10_07_2014 level23_spatial_F+V 10_40 Block6-23.txt,37,37,1203,57.0,-10.0,2014-07-10,False,colocated,right
10,103.3909,0,460,1105,2857,4205,701,0.0,200,0,0,104.2265,1,1,10_07_2014 level23_spatial_F+V 10_40 Block6-23.txt,37,37,1203,57.0,-10.0,2014-07-10,False,colocated,right
96,878.1358,0,460,1105,2857,4205,701,0.0,200,0,0,879.0487,1,1,10_07_2014 level23_spatial_F+V 10_40 Block6-23.txt,37,37,1203,57.0,-10.0,2014-07-10,False,colocated,right
134,1314.2212,0,460,1105,2857,4205,501,0.0,200,0,0,1315.2768,1,1,16_07_2014 level23_spatial_F+V 15_27 Block6-32.txt,37,37,1203,57.0,-10.0,2014-07-16,False,colocated,right
171,1457.2623,0,460,1105,2857,4205,551,0.0,200,0,1,1457.9311,0,1,10_07_2014 level23_spatial_F+V 10_40 Block6-23.txt,37,37,1203,57.0,-10.0,2014-07-10,False,colocated,right
171,1457.2623,0,460,1105,2857,4205,551,0.0,200,0,1,1457.9311,0,1,10_07_2014 level23_spatial_F+V 10_40 Block6-23.txt,37,37,1203,57.0,-10.0,2014-07-10,False,colocated,right
100,908.065,1,460,1105,2857,4205,951,0.0,200,0,1,908.5001,0,1,10_07_2014 level23_spatial_F+V 10_40 Block6-23.txt,37,37,1203,57.0,-10.0,2014-07-10,False,colocated,right
154,1320.6163,0,460,1105,2857,4205,651,0.0,200,0,1,1321.0685,0,1,10_07_2014 level23_spatial_F+V 10_40 Block6-23.txt,37,37,1203,57.0,-10.0,2014-07-10,False,colocated,right
154,1320.6163,0,460,1105,2857,4205,651,0.0,200,0,1,1321.0685,0,1,10_07_2014 level23_spatial_F+V 10_40 Block6-23.txt,37,37,1203,57.0,-10.0,2014-07-10,False,colocated,right
24,209.1355,1,460,1105,2857,4205,751,0.0,200,0,0,213.7245,1,1,10_07_2014 level23_spatial_F+V 10_40 Block6-23.txt,37,37,1203,57.0,-10.0,2014-07-10,False,colocated,right
100,908.065,1,460,1105,2857,4205,951,0.0,200,0,1,908.5001,0,1,10_07_2014 level23_spatial_F+V 10_40 Block6-23.txt,37,37,1203,57.0,-10.0,2014-07-10,False,colocated,right
66,619.2211,0,460,1105,2857,4205,501,0.0,200,0,0,619.7598,1,1,10_07_2014 level23_spatial_F+V 10_40 Block6-23.txt,37,37,1203,57.0,-10.0,2014-07-10,False,colocated,right
87,914.8002,0,460,1105,2857,4205,851,0.0,200,0,0,915.2379,1,1,16_07_2014 level23_spatial_F+V 15_27 Block6-32.txt,37,37,1203,57.0,-10.0,2014-07-16,False,colocated,right
161,1382.0723,0,460,1105,2857,4205,551,0.0,200,0,0,1383.5497,1,1,10_07_2014 level23_spatial_F+V 10_40 Block6-23.txt,37,37,1203,57.0,-10.0,2014-07-10,False,colocated,right
65,612.6831,0,460,1105,2857,4205,551,0.0,200,0,0,613.168,1,1,10_07_2014 level23_spatial_F+V 10_40 Block6-23.txt,37,37,1203,57.0,-10.0,2014-07-10,False,colocated,right
161,1382.0723,0,460,1105,2857,4205,551,0.0,200,0,0,1383.5497,1,1,10_07_2014 level23_spatial_F+V 10_40 Block6-23.txt,37,37,1203,57.0,-10.0,2014-07-10,False,colocated,right
171,1457.2623,0,460,1105,2857,4205,551,0.0,200,0,1,1457.9311,0,1,10_07_2014 level23_spatial_F+V 10_40 Block6-23.txt,37,37,1203,57.0,-10.0,2014-07-10,False,colocated,right
8,112.5774,0,460,1105,2857,4205,1001,0.0,200,0,0,112.952,1,1,16_07_2014 level23_spatial_F+V 15_27 Block6-32.txt,37,37,1203,57.0,-10.0,2014-07-16,False,colocated,right
