Trial,StartTime,CenterReward,F1,F2,F3,F4,HoldTime,Atten,Pitch,Side,Response,RespTime,Correct,SpatialMask,originalFile,LeftTemperature,RightTemperature,fNum,vowel_level,SNR,day,treatment,SpatialCondition,VowelLocation
121,1096.6912,0,460,1105,2857,4205,951,10.0,200,1,1,1097.3112,1,0,07_08_2014 level23_spatial_Clio 15_05 log.txt,37,37,1217,47.0,-20.0,2014-08-07,False,colocated,left
130,1196.3782,0,460,1105,2857,4205,701,10.0,200,1,1,1197.1371,1,0,07_08_2014 level23_spatial_Clio 15_05 log.txt,37,37,1217,47.0,-20.0,2014-08-07,False,colocated,left
86,965.4895,1,460,1105,2857,4205,901,10.0,200,1,0,969.8188,0,0,07_08_2014 level23_spatial_Clio 09_14 log.txt,37,37,1217,47.0,-20.0,2014-08-07,False,colocated,left
117,1023.505,0,460,1105,2857,4205,801,10.0,200,1,1,1024.3735,1,0,06_08_2014 level23_spatial_Clio 15_42 log.txt,37,37,1217,47.0,-20.0,2014-08-06,False,colocated,left
69,803.4743,0,460,1105,2857,4205,1001,10.0,200,1,0,804.8022,0,0,07_08_2014 level23_spatial_Clio 09_14 log.txt,37,37,1217,47.0,-20.0,2014-08-07,False,colocated,left
44,527.0999,0,460,1105,2857,4205,601,10.0,200,1,1,528.1729,1,0,08_08_2014 level23_spatial_Clio 09_37 log.txt,37,37,1217,47.0,-20.0,2014-08-08,False,colocated,left
125,1068.4812,0,460,1105,2857,4205,901,10.0,200,1,1,1069.3518,1,0,06_08_2014 level23_spatial_Clio 15_42 log.txt,37,37,1217,47.0,-20.0,2014-08-06,False,colocated,left
74,734.4158,0,460,1105,2857,4205,851,10.0,200,1,0,735.7614,0,0,08_08_2014 level23_spatial_Clio 15_31 log.txt,37,37,1217,47.0,-20.0,2014-08-08,False,colocated,left
86,965.4895,1,460,1105,2857,4205,901,10.0,200,1,0,969.8188,0,0,07_08_2014 level23_spatial_Clio 09_14 log.txt,37,37,1217,47.0,-20.0,2014-08-07,False,colocated,left
55,601.8968,0,460,1105,2857,4205,851,10.0,200,1,0,603.7872,0,0,08_08_2014 level23_spatial_Clio 15_31 log.txt,37,37,1217,47.0,-20.0,2014-08-08,False,colocated,left
138,1281.9115,1,460,1105,2857,4205,801,10.0,200,1,1,1282.5349,1,0,08_08_2014 level23_spatial_Clio 15_31 log.txt,37,37,1217,47.0,-20.0,2014-08-08,False,colocated,left
38,367.4691,0,460,1105,2857,4205,601,10.0,200,1,1,368.4861,1,0,07_08_2014 level23_spatial_Clio 15_05 log.txt,37,37,1217,47.0,-20.0,2014-08-07,False,colocated,left
118,1027.8093,0,460,1105,2857,4205,551,10.0,200,1,1,1028.296,1,0,06_08_2014 level23_spatial_Clio 15_42 log.txt,37,37,1217,47.0,-20.0,2014-08-06,False,colocated,left
26,283.822,0,460,1105,2857,4205,851,10.0,200,1,0,284.3312,0,0,07_08_2014 level23_spatial_Clio 15_05 log.txt,37,37,1217,47.0,-20.0,2014-08-07,False,colocated,left
40,488.4068,0,460,1105,2857,4205,851,10.0,200,1,1,489.2778,1,0,06_08_2014 level23_spatial_Clio 15_42 log.txt,37,37,1217,47.0,-20.0,2014-08-06,False,colocated,left
103,975.6566,0,460,1105,2857,4205,751,10.0,200,1,1,976.1106,1,0,08_08_2014 level23_spatial_Clio 15_31 log.txt,37,37,1217,47.0,-20.0,2014-08-08,False,colocated,left
21,369.7707,0,460,1105,2857,4205,951,10.0,200,1,1,370.3913,1,0,08_08_2014 level23_spatial_Clio 15_31 log.txt,37,37,1217,47.0,-20.0,2014-08-08,False,colocated,left
21,369.7707,0,460,1105,2857,4205,951,10.0,200,1,1,370.3913,1,0,08_08_2014 level23_spatial_Clio 15_31 log.txt,37,37,1217,47.0,-20.0,2014-08-08,False,colocated,left
121,1096.6912,0,460,1105,2857,4205,951,10.0,200,1,1,1097.3112,1,0,07_08_2014 level23_spatial_Clio 15_05 log.txt,37,37,1217,47.0,-20.0,2014-08-07,False,colocated,left
38,427.6583,0,460,1105,2857,4205,551,10.0,200,1,0,429.6355,0,0,07_08_2014 level23_spatial_Clio 09_14 log.txt,37,37,1217,47.0,-20.0,2014-08-07,False,colocated,left
171,1360.8423,0,460,1105,2857,4205,551,10.0,200,1,0,1364.0393,0,0,06_08_2014 level23_spatial_Clio 15_42 log.txt,37,37,1217,47.0,-20.0,2014-08-06,False,colocated,left
65,754.6057,0,460,1105,2857,4205,651,10.0,200,1,0,755.7279,0,0,07_08_2014 level23_spatial_Clio 09_14 log.txt,37,37,1217,47.0,-20.0,2014-08-07,False,colocated,left
84,826.3832,0,460,1105,2857,4205,901,10.0,200,1,0,827.6108,0,0,08_08_2014 level23_spatial_Clio 15_31 log.txt,37,37,1217,47.0,-20.0,2014-08-08,False,colocated,left
38,427.6583,0,460,1105,2857,4205,551,10.0,200,1,0,429.6355,0,0,07_08_2014 level23_spatial_Clio 09_14 log.txt,37,37,1217,47.0,-20.0,2014-08-07,False,colocated,left
36,416.5011,0,460,1105,2857,4205,951,10.0,200,1,1,416.9599,1,0,07_08_2014 level23_spatial_Clio 09_14 log.txt,37,37,1217,47.0,-20.0,2014-08-07,False,colocated,left
63,653.6725,0,460,1105,2857,4205,701,10.0,200,1,0,654.4182,0,0,08_08_2014 level23_spatial_Clio 15_31 log.txt,37,37,1217,47.0,-20.0,2014-08-08,False,colocated,left
138,1281.9115,1,460,1105,2857,4205,801,10.0,200,1,1,1282.5349,1,0,08_08_2014 level23_spatial_Clio 15_31 log.txt,37,37,1217,47.0,-20.0,2014-08-08,False,colocated,left
121,1096.6912,0,460,1105,2857,4205,951,10.0,200,1,1,1097.3112,1,0,07_08_2014 level23_spatial_Clio 15_05 log.txt,37,37,1217,47.0,-20.0,2014-08-07,False,colocated,left
125,1068.4812,0,460,1105,2857,4205,901,10.0,200,1,1,1069.3518,1,0,06_08_2014 level23_spatial_Clio 15_42 log.txt,37,37,1217,47.0,-20.0,2014-08-06,False,colocated,left
17,239.3433,0,460,1105,2857,4205,1001,10.0,200,1,1,240.7196,1,0,08_08_2014 level23_spatial_Clio 09_37 log.txt,37,37,1217,47.0,-20.0,2014-08-08,False,colocated,left
114,1008.6849,0,460,1105,2857,4205,1001,10.0,200,1,1,1009.0357,1,0,06_08_2014 level23_spatial_Clio 15_42 log.txt,37,37,1217,47.0,-20.0,2014-08-06,False,colocated,left
72,638.3235,0,460,1105,2857,4205,801,10.0,200,1,1,638.8664,1,0,07_08_2014 level23_spatial_Clio 15_05 log.txt,37,37,1217,47.0,-20.0,2014-08-07,False,colocated,left
58,632.2239,0,460,1105,2857,4205,651,10.0,200,1,0,632.7133,0,0,06_08_2014 level23_spatial_Clio 15_42 log.txt,37,37,1217,47.0,-20.0,2014-08-06,False,colocated,left
121,1096.6912,0,460,1105,2857,4205,951,10.0,200,1,1,1097.3112,1,0,07_08_2014 level23_spatial_Clio 15_05 log.txt,37,37,1217,47.0,-20.0,2014-08-07,False,colocated,left
73,645.5722,0,460,1105,2857,4205,901,10.0,200,1,1,646.174,1,0,07_08_2014 level23_spatial_Clio 15_05 log.txt,37,37,1217,47.0,-20.0,2014-08-07,False,colocated,left
111,987.0812,0,460,1105,2857,4205,751,10.0,200,1,0,987.9132,0,0,06_08_2014 level23_spatial_Clio 15_42 log.txt,37,37,1217,47.0,-20.0,2014-08-06,False,colocated,left
55,601.8968,0,460,1105,2857,4205,851,10.0,200,1,0,603.7872,0,0,08_08_2014 level23_spatial_Clio 15_31 log.txt,37,37,1217,47.0,-20.0,2014-08-08,False,colocated,left
121,1096.6912,0,460,1105,2857,4205,951,10.0,200,1,1,1097.3112,1,0,07_08_2014 level23_spatial_Clio 15_05 log.txt,37,37,1217,47.0,-20.0,2014-08-07,False,colocated,left
26,283.822,0,460,1105,2857,4205,851,10.0,200,1,0,284.3312,0,0,07_08_2014 level23_spatial_Clio 15_05 log.txt,37,37,1217,47.0,-20.0,2014-08-07,False,colocated,left
122,1144.0753,0,460,1105,2857,4205,501,10.0,200,1,1,1144.6287,1,0,08_08_2014 level23_spatial_Clio 15_31 log.txt,37,37,1217,47.0,-20.0,2014-08-08,False,colocated,left
125,1068.4812,0,460,1105,2857,4205,901,10.0,200,1,1,1069.3518,1,0,06_08_2014 level23_spatial_Clio 15_42 log.txt,37,37,1217,47.0,-20.0,2014-08-06,False,colocated,left
38,367.4691,0,460,1105,2857,4205,601,10.0,200,1,1,368.4861,1,0,07_08_2014 level23_spatial_Clio 15_05 log.txt,37,37,1217,47.0,-20.0,2014-08-07,False,colocated,left
63,653.6725,0,460,1105,2857,4205,701,10.0,200,1,0,654.4182,0,0,08_08_2014 level23_spatial_Clio 15_31 log.txt,37,37,1217,47.0,-20.0,2014-08-08,False,colocated,left
118,1027.8093,0,460,1105,2857,4205,551,10.0,200,1,1,1028.296,1,0,06_08_2014 level23_spatial_Clio 15_42 log.txt,37,37,1217,47.0,-20.0,2014-08-06,False,colocated,left
117,1023.505,0,460,1105,2857,4205,801,10.0,200,1,1,1024.3735,1,0,06_08_2014 level23_spatial_Clio 15_42 log.txt,37,37,1217,47.0,-20.0,2014-08-06,False,colocated,left
72,638.3235,0,460,1105,2857,4205,801,10.0,200,1,1,638.8664,1,0,07_08_2014 level23_spatial_Clio 15_05 log.txt,37,37,1217,47.0,-20.0,2014-08-07,False,colocated,left
118,1027.8093,0,460,1105,2857,4205,551,10.0,200,1,1,1028.296,1,0,06_08_2014 level23_spatial_Clio 15_42 log.txt,37,37,1217,47.0,-20.0,2014-08-06,False,colocated,left
125,1163.5619,0,460,1105,2857,4205,801,10.0,200,1,0,1164.775,0,0,08_08_2014 level23_spatial_Clio 15_31 log.txt,37,37,1217,47.0,-20.0,2014-08-08,False,colocated,left
121,1096.6912,0,460,1105,2857,4205,951,10.0,200,1,1,1097.3112,1,0,07_08_2014 level23_spatial_Clio 15_05 log.txt,37,37,1217,47.0,-20.0,2014-08-07,False,colocated,left
125,1068.4812,0,460,1105,2857,4205,901,10.0,200,1,1,1069.3518,1,0,06_08_2014 level23_spatial_Clio 15_42 log.txt,37,37,1217,47.0,-20.0,2014-08-06,False,colocated,left
69,803.4743,0,460,1105,2857,4205,1001,10.0,200,1,0,804.8022,0,0,07_08_2014 level23_spatial_Clio 09_14 log.txt,37,37,1217,47.0,-20.0,2014-08-07,False,colocated,left
118,1027.8093,0,460,1105,2857,4205,551,10.0,200,1,1,1028.296,1,0,06_08_2014 level23_spatial_Clio 15_42 log.txt,37,37,1217,47.0,-20.0,2014-08-06,False,colocated,left
65,754.6057,0,460,1105,2857,4205,651,10.0,200,1,0,755.7279,0,0,07_08_2014 level23_spatial_Clio 09_14 log.txt,37,37,1217,47.0,-20.0,2014-08-07,False,colocated,left
118,1027.8093,0,460,1105,2857,4205,551,10.0,200,1,1,1028.296,1,0,06_08_2014 level23_spatial_Clio 15_42 log.txt,37,37,1217,47.0,-20.0,2014-08-06,False,colocated,left
50,574.885,0,460,1105,2857,4205,651,10.0,200,1,0,576.0949,0,0,06_08_2014 level23_spatial_Clio 15_42 log.txt,37,37,1217,47.0,-20.0,2014-08-06,False,colocated,left
40,488.4068,0,460,1105,2857,4205,851,10.0,200,1,1,489.2778,1,0,06_08_2014 level23_spatial_Clio 15_42 log.txt,37,37,1217,47.0,-20.0,2014-08-06,False,colocated,left
73,645.5722,0,460,1105,2857,4205,901,10.0,200,1,1,646.174,1,0,07_08_2014 level23_spatial_Clio 15_05 log.txt,37,37,1217,47.0,-20.0,2014-08-07,False,colocated,left
40,488.4068,0,460,1105,2857,4205,851,10.0,200,1,1,489.2778,1,0,06_08_2014 level23_spatial_Clio 15_42 log.txt,37,37,1217,47.0,-20.0,2014-08-06,False,colocated,left
26,283.822,0,460,1105,2857,4205,851,10.0,200,1,0,284.3312,0,0,07_08_2014 level23_spatial_Clio 15_05 log.txt,37,37,1217,47.0,-20.0,2014-08-07,False,colocated,left
187,1491.1943,0,460,1105,2857,4205,701,10.0,200,1,0,1492.2151,0,0,06_08_2014 level23_spatial_Clio 15_42 log.txt,37,37,1217,47.0,-20.0,2014-08-06,False,colocated,left
40,488.4068,0,460,1105,2857,4205,851,10.0,200,1,1,489.2778,1,0,06_08_2014 level23_spatial_Clio 15_42 log.txt,37,37,1217,47.0,-20.0,2014-08-06,False,colocated,left
44,527.0999,0,460,1105,2857,4205,601,10.0,200,1,1,528.1729,1,0,08_08_2014 level23_spatial_Clio 09_37 log.txt,37,37,1217,47.0,-20.0,2014-08-08,False,colocated,left
26,283.822,0,460,1105,2857,4205,851,10.0,200,1,0,284.3312,0,0,07_08_2014 level23_spatial_Clio 15_05 log.txt,37,37,1217,47.0,-20.0,2014-08-07,False,colocated,left
171,1360.8423,0,460,1105,2857,4205,551,10.0,200,1,0,1364.0393,0,0,06_08_2014 level23_spatial_Clio 15_42 log.txt,37,37,1217,47.0,-20.0,2014-08-06,False,colocated,left
187,1491.1943,0,460,1105,2857,4205,701,10.0,200,1,0,1492.2151,0,0,06_08_2014 level23_spatial_Clio 15_42 log.txt,37,37,1217,47.0,-20.0,2014-08-06,False,colocated,left
118,1027.8093,0,460,1105,2857,4205,551,10.0,200,1,1,1028.296,1,0,06_08_2014 level23_spatial_Clio 15_42 log.txt,37,37,1217,47.0,-20.0,2014-08-06,False,colocated,left
44,527.0999,0,460,1105,2857,4205,601,10.0,200,1,1,528.1729,1,0,08_08_2014 level23_spatial_Clio 09_37 log.txt,37,37,1217,47.0,-20.0,2014-08-08,False,colocated,left
50,574.885,0,460,1105,2857,4205,651,10.0,200,1,0,576.0949,0,0,06_08_2014 level23_spatial_Clio 15_42 log.txt,37,37,1217,47.0,-20.0,2014-08-06,False,colocated,left
111,987.0812,0,460,1105,2857,4205,751,10.0,200,1,0,987.9132,0,0,06_08_2014 level23_spatial_Clio 15_42 log.txt,37,37,1217,47.0,-20.0,2014-08-06,False,colocated,left
38,427.6583,0,460,1105,2857,4205,551,10.0,200,1,0,429.6355,0,0,07_08_2014 level23_spatial_Clio 09_14 log.txt,37,37,1217,47.0,-20.0,2014-08-07,False,colocated,left
115,1012.9229,0,460,1105,2857,4205,701,10.0,200,1,1,1013.4014,1,0,06_08_2014 level23_spatial_Clio 15_42 log.txt,37,37,1217,47.0,-20.0,2014-08-06,False,colocated,left
74,734.4158,0,460,1105,2857,4205,851,10.0,200,1,0,735.7614,0,0,08_08_2014 level23_spatial_Clio 15_31 log.txt,37,37,1217,47.0,-20.0,2014-08-08,False,colocated,left
21,369.7707,0,460,1105,2857,4205,951,10.0,200,1,1,370.3913,1,0,08_08_2014 level23_spatial_Clio 15_31 log.txt,37,37,1217,47.0,-20.0,2014-08-08,False,colocated,left
171,1360.8423,0,460,1105,2857,4205,551,10.0,200,1,0,1364.0393,0,0,06_08_2014 level23_spatial_Clio 15_42 log.txt,37,37,1217,47.0,-20.0,2014-08-06,False,colocated,left
130,1196.3782,0,460,1105,2857,4205,701,10.0,200,1,1,1197.1371,1,0,07_08_2014 level23_spatial_Clio 15_05 log.txt,37,37,1217,47.0,-20.0,2014-08-07,False,colocated,left
65,754.6057,0,460,1105,2857,4205,651,10.0,200,1,0,755.7279,0,0,07_08_2014 level23_spatial_Clio 09_14 log.txt,37,37,1217,47.0,-20.0,2014-08-07,False,colocated,left
138,1281.9115,1,460,1105,2857,4205,801,10.0,200,1,1,1282.5349,1,0,08_08_2014 level23_spatial_Clio 15_31 log.txt,37,37,1217,47.0,-20.0,2014-08-08,False,colocated,left
117,1023.505,0,460,1105,2857,4205,801,10.0,200,1,1,1024.3735,1,0,06_08_2014 level23_spatial_Clio 15_42 log.txt,37,37,1217,47.0,-20.0,2014-08-06,False,colocated,left
84,826.3832,0,460,1105,2857,4205,901,10.0,200,1,0,827.6108,0,0,08_08_2014 level23_spatial_Clio 15_31 log.txt,37,37,1217,47.0,-20.0,2014-08-08,False,colocated,left
86,965.4895,1,460,1105,2857,4205,901,10.0,200,1,0,969.8188,0,0,07_08_2014 level23_spatial_Clio 09_14 log.txt,37,37,1217,47.0,-20.0,2014-08-07,False,colocated,left
138,1281.9115,1,460,1105,2857,4205,801,10.0,200,1,1,1282.5349,1,0,08_08_2014 level23_spatial_Clio 15_31 log.txt,37,37,1217,47.0,-20.0,2014-08-08,False,colocated,left
117,1023.505,0,460,1105,2857,4205,801,10.0,200,1,1,1024.3735,1,0,06_08_2014 level23_spatial_Clio 15_42 log.txt,37,37,1217,47.0,-20.0,2014-08-06,False,colocated,left
138,1281.9115,1,460,1105,2857,4205,801,10.0,200,1,1,1282.5349,1,0,08_08_2014 level23_spatial_Clio 15_31 log.txt,37,37,1217,47.0,-20.0,2014-08-08,False,colocated,left
38,367.4691,0,460,1105,2857,4205,601,10.0,200,1,1,368.4861,1,0,07_08_2014 level23_spatial_Clio 15_05 log.txt,37,37,1217,47.0,-20.0,2014-08-07,False,colocated,left
118,1027.8093,0,460,1105,2857,4205,551,10.0,200,1,1,1028.296,1,0,06_08_2014 level23_spatial_Clio 15_42 log.txt,37,37,1217,47.0,-20.0,2014-08-06,False,colocated,left
103,975.6566,0,460,1105,2857,4205,751,10.0,200,1,1,976.1106,1,0,08_08_2014 level23_spatial_Clio 15_31 log.txt,37,37,1217,47.0,-20.0,2014-08-08,False,colocated,left
74,734.4158,0,460,1105,2857,4205,851,10.0,200,1,0,735.7614,0,0,08_08_2014 level23_spatial_Clio 15_31 log.txt,37,37,1217,47.0,-20.0,2014-08-08,False,colocated,left
84,826.3832,0,460,1105,2857,4205,901,10.0,200,1,0,827.6108,0,0,08_08_2014 level23_spatial_Clio 15_31 log.txt,37,37,1217,47.0,-20.0,2014-08-08,False,colocated,left
19,254.0893,0,730,2058,2857,4205,701,10.0,200,0,0,255.6372,1,0,07_08_2014 level23_spatial_Clio 09_14 log.txt,37,37,1217,47.0,-20.0,2014-08-07,False,colocated,left
91,846.6594,0,730,2058,2857,4205,601,10.0,200,0,0,848.3521,1,0,07_08_2014 level23_spatial_Clio 15_05 log.txt,37,37,1217,47.0,-20.0,2014-08-07,False,colocated,left
33,424.0253,0,730,2058,2857,4205,751,10.0,200,0,0,425.0449,1,0,06_08_2014 level23_spatial_Clio 15_42 log.txt,37,37,1217,47.0,-20.0,2014-08-06,False,colocated,left
182,1437.308,0,730,2058,2857,4205,751,10.0,200,0,0,1438.1774,1,0,06_08_2014 level23_spatial_Clio 15_42 log.txt,37,37,1217,47.0,-20.0,2014-08-06,False,colocated,left
103,927.1261,0,730,2058,2857,4205,651,10.0,200,0,1,927.599,0,0,07_08_2014 level23_spatial_Clio 15_05 log.txt,37,37,1217,47.0,-20.0,2014-08-07,False,colocated,left
34,339.2351,0,730,2058,2857,4205,551,10.0,200,0,0,339.9152,1,0,07_08_2014 level23_spatial_Clio 15_05 log.txt,37,37,1217,47.0,-20.0,2014-08-07,False,colocated,left
153,1386.4868,0,730,2058,2857,4205,551,10.0,200,0,1,1387.2148,0,0,08_08_2014 level23_spatial_Clio 15_31 log.txt,37,37,1217,47.0,-20.0,2014-08-08,False,colocated,left
136,1295.3065,0,730,2058,2857,4205,751,10.0,200,0,1,1295.9109,0,0,07_08_2014 level23_spatial_Clio 15_05 log.txt,37,37,1217,47.0,-20.0,2014-08-07,False,colocated,left
34,417.6904,0,730,2058,2857,4205,951,10.0,200,0,0,418.9364,1,0,08_08_2014 level23_spatial_Clio 09_37 log.txt,37,37,1217,47.0,-20.0,2014-08-08,False,colocated,left
135,1137.6549,0,730,2058,2857,4205,951,10.0,200,0,0,1138.6137,1,0,06_08_2014 level23_spatial_Clio 15_42 log.txt,37,37,1217,47.0,-20.0,2014-08-06,False,colocated,left
79,779.0139,0,730,2058,2857,4205,1001,10.0,200,0,1,779.3592,0,0,08_08_2014 level23_spatial_Clio 15_31 log.txt,37,37,1217,47.0,-20.0,2014-08-08,False,colocated,left
153,1386.4868,0,730,2058,2857,4205,551,10.0,200,0,1,1387.2148,0,0,08_08_2014 level23_spatial_Clio 15_31 log.txt,37,37,1217,47.0,-20.0,2014-08-08,False,colocated,left
33,424.0253,0,730,2058,2857,4205,751,10.0,200,0,0,425.0449,1,0,06_08_2014 level23_spatial_Clio 15_42 log.txt,37,37,1217,47.0,-20.0,2014-08-06,False,colocated,left
204,1619.5936,0,730,2058,2857,4205,901,10.0,200,0,0,1620.6915,1,0,06_08_2014 level23_spatial_Clio 15_42 log.txt,37,37,1217,47.0,-20.0,2014-08-06,False,colocated,left
22,290.0308,1,730,2058,2857,4205,1001,10.0,200,0,1,290.6933,0,0,07_08_2014 level23_spatial_Clio 09_14 log.txt,37,37,1217,47.0,-20.0,2014-08-07,False,colocated,left
91,846.6594,0,730,2058,2857,4205,601,10.0,200,0,0,848.3521,1,0,07_08_2014 level23_spatial_Clio 15_05 log.txt,37,37,1217,47.0,-20.0,2014-08-07,False,colocated,left
163,1316.2927,0,730,2058,2857,4205,601,10.0,200,0,1,1316.9292,0,0,06_08_2014 level23_spatial_Clio 15_42 log.txt,37,37,1217,47.0,-20.0,2014-08-06,False,colocated,left
19,254.0893,0,730,2058,2857,4205,701,10.0,200,0,0,255.6372,1,0,07_08_2014 level23_spatial_Clio 09_14 log.txt,37,37,1217,47.0,-20.0,2014-08-07,False,colocated,left
33,424.0253,0,730,2058,2857,4205,751,10.0,200,0,0,425.0449,1,0,06_08_2014 level23_spatial_Clio 15_42 log.txt,37,37,1217,47.0,-20.0,2014-08-06,False,colocated,left
153,1386.4868,0,730,2058,2857,4205,551,10.0,200,0,1,1387.2148,0,0,08_08_2014 level23_spatial_Clio 15_31 log.txt,37,37,1217,47.0,-20.0,2014-08-08,False,colocated,left
86,840.5275,0,730,2058,2857,4205,901,10.0,200,0,1,841.3324,0,0,08_08_2014 level23_spatial_Clio 15_31 log.txt,37,37,1217,47.0,-20.0,2014-08-08,False,colocated,left
65,669.5367,0,730,2058,2857,4205,1001,10.0,200,0,1,670.0317,0,0,08_08_2014 level23_spatial_Clio 15_31 log.txt,37,37,1217,47.0,-20.0,2014-08-08,False,colocated,left
82,931.6443,0,730,2058,2857,4205,751,10.0,200,0,0,933.6295,1,0,07_08_2014 level23_spatial_Clio 09_14 log.txt,37,37,1217,47.0,-20.0,2014-08-07,False,colocated,left
65,669.5367,0,730,2058,2857,4205,1001,10.0,200,0,1,670.0317,0,0,08_08_2014 level23_spatial_Clio 15_31 log.txt,37,37,1217,47.0,-20.0,2014-08-08,False,colocated,left
64,748.032,1,730,2058,2857,4205,901,10.0,200,0,0,749.1435,1,0,07_08_2014 level23_spatial_Clio 09_14 log.txt,37,37,1217,47.0,-20.0,2014-08-07,False,colocated,left
196,1549.4649,0,730,2058,2857,4205,551,10.0,200,0,1,1550.5952,0,0,06_08_2014 level23_spatial_Clio 15_42 log.txt,37,37,1217,47.0,-20.0,2014-08-06,False,colocated,left
34,417.6904,0,730,2058,2857,4205,951,10.0,200,0,0,418.9364,1,0,08_08_2014 level23_spatial_Clio 09_37 log.txt,37,37,1217,47.0,-20.0,2014-08-08,False,colocated,left
182,1437.308,0,730,2058,2857,4205,751,10.0,200,0,0,1438.1774,1,0,06_08_2014 level23_spatial_Clio 15_42 log.txt,37,37,1217,47.0,-20.0,2014-08-06,False,colocated,left
95,873.3746,0,730,2058,2857,4205,551,10.0,200,0,1,874.1757,0,0,07_08_2014 level23_spatial_Clio 15_05 log.txt,37,37,1217,47.0,-20.0,2014-08-07,False,colocated,left
48,563.7573,0,730,2058,2857,4205,951,10.0,200,0,0,565.6176,1,0,06_08_2014 level23_spatial_Clio 15_42 log.txt,37,37,1217,47.0,-20.0,2014-08-06,False,colocated,left
106,995.5652,0,730,2058,2857,4205,801,10.0,200,0,0,996.8185,1,0,08_08_2014 level23_spatial_Clio 15_31 log.txt,37,37,1217,47.0,-20.0,2014-08-08,False,colocated,left
94,1045.6231,0,730,2058,2857,4205,801,10.0,200,0,1,1046.0878,0,0,07_08_2014 level23_spatial_Clio 09_14 log.txt,37,37,1217,47.0,-20.0,2014-08-07,False,colocated,left
182,1437.308,0,730,2058,2857,4205,751,10.0,200,0,0,1438.1774,1,0,06_08_2014 level23_spatial_Clio 15_42 log.txt,37,37,1217,47.0,-20.0,2014-08-06,False,colocated,left
65,680.2321,0,730,2058,2857,4205,1001,10.0,200,0,0,680.7353,1,0,06_08_2014 level23_spatial_Clio 15_42 log.txt,37,37,1217,47.0,-20.0,2014-08-06,False,colocated,left
76,746.5466,0,730,2058,2857,4205,751,10.0,200,0,1,747.0978,0,0,06_08_2014 level23_spatial_Clio 15_42 log.txt,37,37,1217,47.0,-20.0,2014-08-06,False,colocated,left
38,479.0997,0,730,2058,2857,4205,501,10.0,200,0,1,479.6566,0,0,08_08_2014 level23_spatial_Clio 15_31 log.txt,37,37,1217,47.0,-20.0,2014-08-08,False,colocated,left
22,290.0308,1,730,2058,2857,4205,1001,10.0,200,0,1,290.6933,0,0,07_08_2014 level23_spatial_Clio 09_14 log.txt,37,37,1217,47.0,-20.0,2014-08-07,False,colocated,left
47,547.0636,0,730,2058,2857,4205,651,10.0,200,0,1,548.0638,0,0,08_08_2014 level23_spatial_Clio 15_31 log.txt,37,37,1217,47.0,-20.0,2014-08-08,False,colocated,left
22,290.0308,1,730,2058,2857,4205,1001,10.0,200,0,1,290.6933,0,0,07_08_2014 level23_spatial_Clio 09_14 log.txt,37,37,1217,47.0,-20.0,2014-08-07,False,colocated,left
182,1437.308,0,730,2058,2857,4205,751,10.0,200,0,0,1438.1774,1,0,06_08_2014 level23_spatial_Clio 15_42 log.txt,37,37,1217,47.0,-20.0,2014-08-06,False,colocated,left
38,479.0997,0,730,2058,2857,4205,501,10.0,200,0,1,479.6566,0,0,08_08_2014 level23_spatial_Clio 15_31 log.txt,37,37,1217,47.0,-20.0,2014-08-08,False,colocated,left
136,1295.3065,0,730,2058,2857,4205,751,10.0,200,0,1,1295.9109,0,0,07_08_2014 level23_spatial_Clio 15_05 log.txt,37,37,1217,47.0,-20.0,2014-08-07,False,colocated,left
106,995.5652,0,730,2058,2857,4205,801,10.0,200,0,0,996.8185,1,0,08_08_2014 level23_spatial_Clio 15_31 log.txt,37,37,1217,47.0,-20.0,2014-08-08,False,colocated,left
75,738.2398,0,730,2058,2857,4205,801,10.0,200,0,0,739.3767,1,0,06_08_2014 level23_spatial_Clio 15_42 log.txt,37,37,1217,47.0,-20.0,2014-08-06,False,colocated,left
65,769.3301,0,730,2058,2857,4205,801,10.0,200,0,0,770.1044,1,0,08_08_2014 level23_spatial_Clio 09_37 log.txt,37,37,1217,47.0,-20.0,2014-08-08,False,colocated,left
119,1121.8953,0,730,2058,2857,4205,951,10.0,200,0,1,1122.4841,0,0,08_08_2014 level23_spatial_Clio 15_31 log.txt,37,37,1217,47.0,-20.0,2014-08-08,False,colocated,left
106,995.5652,0,730,2058,2857,4205,801,10.0,200,0,0,996.8185,1,0,08_08_2014 level23_spatial_Clio 15_31 log.txt,37,37,1217,47.0,-20.0,2014-08-08,False,colocated,left
54,610.5598,0,730,2058,2857,4205,951,10.0,200,0,0,611.4276,1,0,06_08_2014 level23_spatial_Clio 15_42 log.txt,37,37,1217,47.0,-20.0,2014-08-06,False,colocated,left
32,329.3174,1,730,2058,2857,4205,501,10.0,200,0,1,329.9904,0,0,07_08_2014 level23_spatial_Clio 15_05 log.txt,37,37,1217,47.0,-20.0,2014-08-07,False,colocated,left
2,71.2207,0,730,2058,2857,4205,901,10.0,200,0,1,71.6935,0,0,07_08_2014 level23_spatial_Clio 09_14 log.txt,37,37,1217,47.0,-20.0,2014-08-07,False,colocated,left
38,479.0997,0,730,2058,2857,4205,501,10.0,200,0,1,479.6566,0,0,08_08_2014 level23_spatial_Clio 15_31 log.txt,37,37,1217,47.0,-20.0,2014-08-08,False,colocated,left
33,424.0253,0,730,2058,2857,4205,751,10.0,200,0,0,425.0449,1,0,06_08_2014 level23_spatial_Clio 15_42 log.txt,37,37,1217,47.0,-20.0,2014-08-06,False,colocated,left
95,873.3746,0,730,2058,2857,4205,551,10.0,200,0,1,874.1757,0,0,07_08_2014 level23_spatial_Clio 15_05 log.txt,37,37,1217,47.0,-20.0,2014-08-07,False,colocated,left
64,748.032,1,730,2058,2857,4205,901,10.0,200,0,0,749.1435,1,0,07_08_2014 level23_spatial_Clio 09_14 log.txt,37,37,1217,47.0,-20.0,2014-08-07,False,colocated,left
87,798.7859,0,730,2058,2857,4205,851,10.0,200,0,0,800.7807,1,0,07_08_2014 level23_spatial_Clio 15_05 log.txt,37,37,1217,47.0,-20.0,2014-08-07,False,colocated,left
135,1137.6549,0,730,2058,2857,4205,951,10.0,200,0,0,1138.6137,1,0,06_08_2014 level23_spatial_Clio 15_42 log.txt,37,37,1217,47.0,-20.0,2014-08-06,False,colocated,left
64,748.032,1,730,2058,2857,4205,901,10.0,200,0,0,749.1435,1,0,07_08_2014 level23_spatial_Clio 09_14 log.txt,37,37,1217,47.0,-20.0,2014-08-07,False,colocated,left
204,1619.5936,0,730,2058,2857,4205,901,10.0,200,0,0,1620.6915,1,0,06_08_2014 level23_spatial_Clio 15_42 log.txt,37,37,1217,47.0,-20.0,2014-08-06,False,colocated,left
163,1316.2927,0,730,2058,2857,4205,601,10.0,200,0,1,1316.9292,0,0,06_08_2014 level23_spatial_Clio 15_42 log.txt,37,37,1217,47.0,-20.0,2014-08-06,False,colocated,left
38,479.0997,0,730,2058,2857,4205,501,10.0,200,0,1,479.6566,0,0,08_08_2014 level23_spatial_Clio 15_31 log.txt,37,37,1217,47.0,-20.0,2014-08-08,False,colocated,left
54,610.5598,0,730,2058,2857,4205,951,10.0,200,0,0,611.4276,1,0,06_08_2014 level23_spatial_Clio 15_42 log.txt,37,37,1217,47.0,-20.0,2014-08-06,False,colocated,left
45,555.2863,0,730,2058,2857,4205,751,10.0,200,0,1,560.7668,0,0,08_08_2014 level23_spatial_Clio 09_37 log.txt,37,37,1217,47.0,-20.0,2014-08-08,False,colocated,left
65,680.2321,0,730,2058,2857,4205,1001,10.0,200,0,0,680.7353,1,0,06_08_2014 level23_spatial_Clio 15_42 log.txt,37,37,1217,47.0,-20.0,2014-08-06,False,colocated,left
54,610.5598,0,730,2058,2857,4205,951,10.0,200,0,0,611.4276,1,0,06_08_2014 level23_spatial_Clio 15_42 log.txt,37,37,1217,47.0,-20.0,2014-08-06,False,colocated,left
86,840.5275,0,730,2058,2857,4205,901,10.0,200,0,1,841.3324,0,0,08_08_2014 level23_spatial_Clio 15_31 log.txt,37,37,1217,47.0,-20.0,2014-08-08,False,colocated,left
139,1165.276,0,730,2058,2857,4205,851,10.0,200,0,0,1166.2091,1,0,06_08_2014 level23_spatial_Clio 15_42 log.txt,37,37,1217,47.0,-20.0,2014-08-06,False,colocated,left
94,1045.6231,0,730,2058,2857,4205,801,10.0,200,0,1,1046.0878,0,0,07_08_2014 level23_spatial_Clio 09_14 log.txt,37,37,1217,47.0,-20.0,2014-08-07,False,colocated,left
65,680.2321,0,730,2058,2857,4205,1001,10.0,200,0,0,680.7353,1,0,06_08_2014 level23_spatial_Clio 15_42 log.txt,37,37,1217,47.0,-20.0,2014-08-06,False,colocated,left
119,1121.8953,0,730,2058,2857,4205,951,10.0,200,0,1,1122.4841,0,0,08_08_2014 level23_spatial_Clio 15_31 log.txt,37,37,1217,47.0,-20.0,2014-08-08,False,colocated,left
2,71.2207,0,730,2058,2857,4205,901,10.0,200,0,1,71.6935,0,0,07_08_2014 level23_spatial_Clio 09_14 log.txt,37,37,1217,47.0,-20.0,2014-08-07,False,colocated,left
139,1165.276,0,730,2058,2857,4205,851,10.0,200,0,0,1166.2091,1,0,06_08_2014 level23_spatial_Clio 15_42 log.txt,37,37,1217,47.0,-20.0,2014-08-06,False,colocated,left
65,769.3301,0,730,2058,2857,4205,801,10.0,200,0,0,770.1044,1,0,08_08_2014 level23_spatial_Clio 09_37 log.txt,37,37,1217,47.0,-20.0,2014-08-08,False,colocated,left
32,329.3174,1,730,2058,2857,4205,501,10.0,200,0,1,329.9904,0,0,07_08_2014 level23_spatial_Clio 15_05 log.txt,37,37,1217,47.0,-20.0,2014-08-07,False,colocated,left
106,995.5652,0,730,2058,2857,4205,801,10.0,200,0,0,996.8185,1,0,08_08_2014 level23_spatial_Clio 15_31 log.txt,37,37,1217,47.0,-20.0,2014-08-08,False,colocated,left
136,1295.3065,0,730,2058,2857,4205,751,10.0,200,0,1,1295.9109,0,0,07_08_2014 level23_spatial_Clio 15_05 log.txt,37,37,1217,47.0,-20.0,2014-08-07,False,colocated,left
94,1045.6231,0,730,2058,2857,4205,801,10.0,200,0,1,1046.0878,0,0,07_08_2014 level23_spatial_Clio 09_14 log.txt,37,37,1217,47.0,-20.0,2014-08-07,False,colocated,left
2,71.2207,0,730,2058,2857,4205,901,10.0,200,0,1,71.6935,0,0,07_08_2014 level23_spatial_Clio 09_14 log.txt,37,37,1217,47.0,-20.0,2014-08-07,False,colocated,left
76,746.5466,0,730,2058,2857,4205,751,10.0,200,0,1,747.0978,0,0,06_08_2014 level23_spatial_Clio 15_42 log.txt,37,37,1217,47.0,-20.0,2014-08-06,False,colocated,left
91,846.6594,0,730,2058,2857,4205,601,10.0,200,0,0,848.3521,1,0,07_08_2014 level23_spatial_Clio 15_05 log.txt,37,37,1217,47.0,-20.0,2014-08-07,False,colocated,left
95,873.3746,0,730,2058,2857,4205,551,10.0,200,0,1,874.1757,0,0,07_08_2014 level23_spatial_Clio 15_05 log.txt,37,37,1217,47.0,-20.0,2014-08-07,False,colocated,left
34,417.6904,0,730,2058,2857,4205,951,10.0,200,0,0,418.9364,1,0,08_08_2014 level23_spatial_Clio 09_37 log.txt,37,37,1217,47.0,-20.0,2014-08-08,False,colocated,left
47,547.0636,0,730,2058,2857,4205,651,10.0,200,0,1,548.0638,0,0,08_08_2014 level23_spatial_Clio 15_31 log.txt,37,37,1217,47.0,-20.0,2014-08-08,False,colocated,left
86,840.5275,0,730,2058,2857,4205,901,10.0,200,0,1,841.3324,0,0,08_08_2014 level23_spatial_Clio 15_31 log.txt,37,37,1217,47.0,-20.0,2014-08-08,False,colocated,left
32,329.3174,1,730,2058,2857,4205,501,10.0,200,0,1,329.9904,0,0,07_08_2014 level23_spatial_Clio 15_05 log.txt,37,37,1217,47.0,-20.0,2014-08-07,False,colocated,left
48,563.7573,0,730,2058,2857,4205,951,10.0,200,0,0,565.6176,1,0,06_08_2014 level23_spatial_Clio 15_42 log.txt,37,37,1217,47.0,-20.0,2014-08-06,False,colocated,left
76,746.5466,0,730,2058,2857,4205,751,10.0,200,0,1,747.0978,0,0,06_08_2014 level23_spatial_Clio 15_42 log.txt,37,37,1217,47.0,-20.0,2014-08-06,False,colocated,left
87,798.7859,0,730,2058,2857,4205,851,10.0,200,0,0,800.7807,1,0,07_08_2014 level23_spatial_Clio 15_05 log.txt,37,37,1217,47.0,-20.0,2014-08-07,False,colocated,left
17,226.1517,0,730,2058,2857,4205,701,10.0,200,0,0,226.9375,1,0,07_08_2014 level23_spatial_Clio 15_05 log.txt,37,37,1217,47.0,-20.0,2014-08-07,False,colocated,left
43,525.8831,0,460,1105,2857,4205,801,10.0,200,1,0,527.1476,0,1,08_08_2014 level23_spatial_Clio 15_31 log.txt,37,37,1217,47.0,-20.0,2014-08-08,False,colocated,right
151,1255.3767,0,460,1105,2857,4205,751,10.0,200,1,1,1255.9444,1,1,06_08_2014 level23_spatial_Clio 15_42 log.txt,37,37,1217,47.0,-20.0,2014-08-06,False,colocated,right
43,525.8831,0,460,1105,2857,4205,801,10.0,200,1,0,527.1476,0,1,08_08_2014 level23_spatial_Clio 15_31 log.txt,37,37,1217,47.0,-20.0,2014-08-08,False,colocated,right
23,297.8839,0,460,1105,2857,4205,751,10.0,200,1,1,299.0357,1,1,08_08_2014 level23_spatial_Clio 09_37 log.txt,37,37,1217,47.0,-20.0,2014-08-08,False,colocated,right
79,912.5712,0,460,1105,2857,4205,851,10.0,200,1,0,913.3102,0,1,08_08_2014 level23_spatial_Clio 09_37 log.txt,37,37,1217,47.0,-20.0,2014-08-08,False,colocated,right
35,344.6028,0,460,1105,2857,4205,1001,10.0,200,1,0,345.248,0,1,07_08_2014 level23_spatial_Clio 15_05 log.txt,37,37,1217,47.0,-20.0,2014-08-07,False,colocated,right
105,951.769,0,460,1105,2857,4205,1001,10.0,200,1,0,952.7969,0,1,06_08_2014 level23_spatial_Clio 15_42 log.txt,37,37,1217,47.0,-20.0,2014-08-06,False,colocated,right
15,202.8254,1,460,1105,2857,4205,501,10.0,200,1,0,207.6236,0,1,07_08_2014 level23_spatial_Clio 15_05 log.txt,37,37,1217,47.0,-20.0,2014-08-07,False,colocated,right
124,1155.2662,0,460,1105,2857,4205,901,10.0,200,1,1,1155.6279,1,1,08_08_2014 level23_spatial_Clio 15_31 log.txt,37,37,1217,47.0,-20.0,2014-08-08,False,colocated,right
46,540.096,1,460,1105,2857,4205,551,10.0,200,1,0,544.1513,0,1,06_08_2014 level23_spatial_Clio 15_42 log.txt,37,37,1217,47.0,-20.0,2014-08-06,False,colocated,right
51,570.4251,0,460,1105,2857,4205,551,10.0,200,1,0,571.8175,0,1,08_08_2014 level23_spatial_Clio 15_31 log.txt,37,37,1217,47.0,-20.0,2014-08-08,False,colocated,right
35,344.6028,0,460,1105,2857,4205,1001,10.0,200,1,0,345.248,0,1,07_08_2014 level23_spatial_Clio 15_05 log.txt,37,37,1217,47.0,-20.0,2014-08-07,False,colocated,right
26,343.9793,0,460,1105,2857,4205,551,10.0,200,1,0,345.3864,0,1,06_08_2014 level23_spatial_Clio 15_42 log.txt,37,37,1217,47.0,-20.0,2014-08-06,False,colocated,right
111,998.8823,0,460,1105,2857,4205,801,10.0,200,1,1,999.528,1,1,07_08_2014 level23_spatial_Clio 15_05 log.txt,37,37,1217,47.0,-20.0,2014-08-07,False,colocated,right
68,694.3864,0,460,1105,2857,4205,951,10.0,200,1,0,694.8825,0,1,06_08_2014 level23_spatial_Clio 15_42 log.txt,37,37,1217,47.0,-20.0,2014-08-06,False,colocated,right
23,297.8839,0,460,1105,2857,4205,751,10.0,200,1,1,299.0357,1,1,08_08_2014 level23_spatial_Clio 09_37 log.txt,37,37,1217,47.0,-20.0,2014-08-08,False,colocated,right
51,570.4251,0,460,1105,2857,4205,551,10.0,200,1,0,571.8175,0,1,08_08_2014 level23_spatial_Clio 15_31 log.txt,37,37,1217,47.0,-20.0,2014-08-08,False,colocated,right
15,202.8254,1,460,1105,2857,4205,501,10.0,200,1,0,207.6236,0,1,07_08_2014 level23_spatial_Clio 15_05 log.txt,37,37,1217,47.0,-20.0,2014-08-07,False,colocated,right
84,969.361,1,460,1105,2857,4205,501,10.0,200,1,0,971.3005,0,1,08_08_2014 level23_spatial_Clio 09_37 log.txt,37,37,1217,47.0,-20.0,2014-08-08,False,colocated,right
111,998.8823,0,460,1105,2857,4205,801,10.0,200,1,1,999.528,1,1,07_08_2014 level23_spatial_Clio 15_05 log.txt,37,37,1217,47.0,-20.0,2014-08-07,False,colocated,right
62,551.6294,0,460,1105,2857,4205,701,10.0,200,1,1,552.4052,1,1,07_08_2014 level23_spatial_Clio 15_05 log.txt,37,37,1217,47.0,-20.0,2014-08-07,False,colocated,right
97,924.9409,0,460,1105,2857,4205,701,10.0,200,1,1,925.6292,1,1,08_08_2014 level23_spatial_Clio 15_31 log.txt,37,37,1217,47.0,-20.0,2014-08-08,False,colocated,right
15,202.8254,1,460,1105,2857,4205,501,10.0,200,1,0,207.6236,0,1,07_08_2014 level23_spatial_Clio 15_05 log.txt,37,37,1217,47.0,-20.0,2014-08-07,False,colocated,right
185,1473.5968,0,460,1105,2857,4205,801,10.0,200,1,0,1474.8944,0,1,06_08_2014 level23_spatial_Clio 15_42 log.txt,37,37,1217,47.0,-20.0,2014-08-06,False,colocated,right
68,694.3864,0,460,1105,2857,4205,951,10.0,200,1,0,694.8825,0,1,06_08_2014 level23_spatial_Clio 15_42 log.txt,37,37,1217,47.0,-20.0,2014-08-06,False,colocated,right
124,1155.2662,0,460,1105,2857,4205,901,10.0,200,1,1,1155.6279,1,1,08_08_2014 level23_spatial_Clio 15_31 log.txt,37,37,1217,47.0,-20.0,2014-08-08,False,colocated,right
20,243.1615,0,460,1105,2857,4205,601,10.0,200,1,0,246.8338,0,1,07_08_2014 level23_spatial_Clio 15_05 log.txt,37,37,1217,47.0,-20.0,2014-08-07,False,colocated,right
35,344.6028,0,460,1105,2857,4205,1001,10.0,200,1,0,345.248,0,1,07_08_2014 level23_spatial_Clio 15_05 log.txt,37,37,1217,47.0,-20.0,2014-08-07,False,colocated,right
123,1113.1534,1,460,1105,2857,4205,801,10.0,200,1,1,1113.7258,1,1,07_08_2014 level23_spatial_Clio 15_05 log.txt,37,37,1217,47.0,-20.0,2014-08-07,False,colocated,right
76,667.7859,0,460,1105,2857,4205,701,10.0,200,1,1,668.2158,1,1,07_08_2014 level23_spatial_Clio 15_05 log.txt,37,37,1217,47.0,-20.0,2014-08-07,False,colocated,right
46,540.096,1,460,1105,2857,4205,551,10.0,200,1,0,544.1513,0,1,06_08_2014 level23_spatial_Clio 15_42 log.txt,37,37,1217,47.0,-20.0,2014-08-06,False,colocated,right
151,1255.3767,0,460,1105,2857,4205,751,10.0,200,1,1,1255.9444,1,1,06_08_2014 level23_spatial_Clio 15_42 log.txt,37,37,1217,47.0,-20.0,2014-08-06,False,colocated,right
106,944.4228,0,460,1105,2857,4205,601,10.0,200,1,1,945.087,1,1,07_08_2014 level23_spatial_Clio 15_05 log.txt,37,37,1217,47.0,-20.0,2014-08-07,False,colocated,right
74,729.5887,0,460,1105,2857,4205,1001,10.0,200,1,1,729.9254,1,1,06_08_2014 level23_spatial_Clio 15_42 log.txt,37,37,1217,47.0,-20.0,2014-08-06,False,colocated,right
68,694.3864,0,460,1105,2857,4205,951,10.0,200,1,0,694.8825,0,1,06_08_2014 level23_spatial_Clio 15_42 log.txt,37,37,1217,47.0,-20.0,2014-08-06,False,colocated,right
111,998.8823,0,460,1105,2857,4205,801,10.0,200,1,1,999.528,1,1,07_08_2014 level23_spatial_Clio 15_05 log.txt,37,37,1217,47.0,-20.0,2014-08-07,False,colocated,right
79,912.5712,0,460,1105,2857,4205,851,10.0,200,1,0,913.3102,0,1,08_08_2014 level23_spatial_Clio 09_37 log.txt,37,37,1217,47.0,-20.0,2014-08-08,False,colocated,right
84,969.361,1,460,1105,2857,4205,501,10.0,200,1,0,971.3005,0,1,08_08_2014 level23_spatial_Clio 09_37 log.txt,37,37,1217,47.0,-20.0,2014-08-08,False,colocated,right
26,343.9793,0,460,1105,2857,4205,551,10.0,200,1,0,345.3864,0,1,06_08_2014 level23_spatial_Clio 15_42 log.txt,37,37,1217,47.0,-20.0,2014-08-06,False,colocated,right
62,551.6294,0,460,1105,2857,4205,701,10.0,200,1,1,552.4052,1,1,07_08_2014 level23_spatial_Clio 15_05 log.txt,37,37,1217,47.0,-20.0,2014-08-07,False,colocated,right
26,334.2932,0,460,1105,2857,4205,951,10.0,200,1,0,336.1886,0,1,07_08_2014 level23_spatial_Clio 09_14 log.txt,37,37,1217,47.0,-20.0,2014-08-07,False,colocated,right
26,343.9793,0,460,1105,2857,4205,551,10.0,200,1,0,345.3864,0,1,06_08_2014 level23_spatial_Clio 15_42 log.txt,37,37,1217,47.0,-20.0,2014-08-06,False,colocated,right
93,899.8435,1,460,1105,2857,4205,801,10.0,200,1,1,900.5163,1,1,08_08_2014 level23_spatial_Clio 15_31 log.txt,37,37,1217,47.0,-20.0,2014-08-08,False,colocated,right
151,1255.3767,0,460,1105,2857,4205,751,10.0,200,1,1,1255.9444,1,1,06_08_2014 level23_spatial_Clio 15_42 log.txt,37,37,1217,47.0,-20.0,2014-08-06,False,colocated,right
51,570.4251,0,460,1105,2857,4205,551,10.0,200,1,0,571.8175,0,1,08_08_2014 level23_spatial_Clio 15_31 log.txt,37,37,1217,47.0,-20.0,2014-08-08,False,colocated,right
63,734.078,0,460,1105,2857,4205,601,10.0,200,1,1,735.3904,1,1,07_08_2014 level23_spatial_Clio 09_14 log.txt,37,37,1217,47.0,-20.0,2014-08-07,False,colocated,right
105,951.769,0,460,1105,2857,4205,1001,10.0,200,1,0,952.7969,0,1,06_08_2014 level23_spatial_Clio 15_42 log.txt,37,37,1217,47.0,-20.0,2014-08-06,False,colocated,right
77,760.4996,0,460,1105,2857,4205,551,10.0,200,1,1,761.0035,1,1,08_08_2014 level23_spatial_Clio 15_31 log.txt,37,37,1217,47.0,-20.0,2014-08-08,False,colocated,right
90,837.6902,0,460,1105,2857,4205,1001,10.0,200,1,1,838.2901,1,1,07_08_2014 level23_spatial_Clio 15_05 log.txt,37,37,1217,47.0,-20.0,2014-08-07,False,colocated,right
90,1007.6332,0,460,1105,2857,4205,851,10.0,200,1,0,1008.1438,0,1,07_08_2014 level23_spatial_Clio 09_14 log.txt,37,37,1217,47.0,-20.0,2014-08-07,False,colocated,right
84,969.361,1,460,1105,2857,4205,501,10.0,200,1,0,971.3005,0,1,08_08_2014 level23_spatial_Clio 09_37 log.txt,37,37,1217,47.0,-20.0,2014-08-08,False,colocated,right
43,525.8831,0,460,1105,2857,4205,801,10.0,200,1,0,527.1476,0,1,08_08_2014 level23_spatial_Clio 15_31 log.txt,37,37,1217,47.0,-20.0,2014-08-08,False,colocated,right
76,667.7859,0,460,1105,2857,4205,701,10.0,200,1,1,668.2158,1,1,07_08_2014 level23_spatial_Clio 15_05 log.txt,37,37,1217,47.0,-20.0,2014-08-07,False,colocated,right
93,899.8435,1,460,1105,2857,4205,801,10.0,200,1,1,900.5163,1,1,08_08_2014 level23_spatial_Clio 15_31 log.txt,37,37,1217,47.0,-20.0,2014-08-08,False,colocated,right
46,540.096,1,460,1105,2857,4205,551,10.0,200,1,0,544.1513,0,1,06_08_2014 level23_spatial_Clio 15_42 log.txt,37,37,1217,47.0,-20.0,2014-08-06,False,colocated,right
19,274.0988,0,460,1105,2857,4205,701,10.0,200,1,0,274.5902,0,1,06_08_2014 level23_spatial_Clio 15_42 log.txt,37,37,1217,47.0,-20.0,2014-08-06,False,colocated,right
105,951.769,0,460,1105,2857,4205,1001,10.0,200,1,0,952.7969,0,1,06_08_2014 level23_spatial_Clio 15_42 log.txt,37,37,1217,47.0,-20.0,2014-08-06,False,colocated,right
23,297.8839,0,460,1105,2857,4205,751,10.0,200,1,1,299.0357,1,1,08_08_2014 level23_spatial_Clio 09_37 log.txt,37,37,1217,47.0,-20.0,2014-08-08,False,colocated,right
35,344.6028,0,460,1105,2857,4205,1001,10.0,200,1,0,345.248,0,1,07_08_2014 level23_spatial_Clio 15_05 log.txt,37,37,1217,47.0,-20.0,2014-08-07,False,colocated,right
15,202.8254,1,460,1105,2857,4205,501,10.0,200,1,0,207.6236,0,1,07_08_2014 level23_spatial_Clio 15_05 log.txt,37,37,1217,47.0,-20.0,2014-08-07,False,colocated,right
111,998.8823,0,460,1105,2857,4205,801,10.0,200,1,1,999.528,1,1,07_08_2014 level23_spatial_Clio 15_05 log.txt,37,37,1217,47.0,-20.0,2014-08-07,False,colocated,right
66,776.1152,0,460,1105,2857,4205,851,10.0,200,1,0,776.8463,0,1,08_08_2014 level23_spatial_Clio 09_37 log.txt,37,37,1217,47.0,-20.0,2014-08-08,False,colocated,right
43,525.8831,0,460,1105,2857,4205,801,10.0,200,1,0,527.1476,0,1,08_08_2014 level23_spatial_Clio 15_31 log.txt,37,37,1217,47.0,-20.0,2014-08-08,False,colocated,right
43,525.8831,0,460,1105,2857,4205,801,10.0,200,1,0,527.1476,0,1,08_08_2014 level23_spatial_Clio 15_31 log.txt,37,37,1217,47.0,-20.0,2014-08-08,False,colocated,right
26,334.2932,0,460,1105,2857,4205,951,10.0,200,1,0,336.1886,0,1,07_08_2014 level23_spatial_Clio 09_14 log.txt,37,37,1217,47.0,-20.0,2014-08-07,False,colocated,right
93,899.8435,1,460,1105,2857,4205,801,10.0,200,1,1,900.5163,1,1,08_08_2014 level23_spatial_Clio 15_31 log.txt,37,37,1217,47.0,-20.0,2014-08-08,False,colocated,right
62,551.6294,0,460,1105,2857,4205,701,10.0,200,1,1,552.4052,1,1,07_08_2014 level23_spatial_Clio 15_05 log.txt,37,37,1217,47.0,-20.0,2014-08-07,False,colocated,right
128,1086.9572,0,460,1105,2857,4205,1001,10.0,200,1,0,1088.1263,0,1,06_08_2014 level23_spatial_Clio 15_42 log.txt,37,37,1217,47.0,-20.0,2014-08-06,False,colocated,right
68,694.3864,0,460,1105,2857,4205,951,10.0,200,1,0,694.8825,0,1,06_08_2014 level23_spatial_Clio 15_42 log.txt,37,37,1217,47.0,-20.0,2014-08-06,False,colocated,right
26,334.2932,0,460,1105,2857,4205,951,10.0,200,1,0,336.1886,0,1,07_08_2014 level23_spatial_Clio 09_14 log.txt,37,37,1217,47.0,-20.0,2014-08-07,False,colocated,right
111,998.8823,0,460,1105,2857,4205,801,10.0,200,1,1,999.528,1,1,07_08_2014 level23_spatial_Clio 15_05 log.txt,37,37,1217,47.0,-20.0,2014-08-07,False,colocated,right
105,951.769,0,460,1105,2857,4205,1001,10.0,200,1,0,952.7969,0,1,06_08_2014 level23_spatial_Clio 15_42 log.txt,37,37,1217,47.0,-20.0,2014-08-06,False,colocated,right
37,445.0363,0,460,1105,2857,4205,501,10.0,200,1,0,447.3016,0,1,08_08_2014 level23_spatial_Clio 09_37 log.txt,37,37,1217,47.0,-20.0,2014-08-08,False,colocated,right
90,837.6902,0,460,1105,2857,4205,1001,10.0,200,1,1,838.2901,1,1,07_08_2014 level23_spatial_Clio 15_05 log.txt,37,37,1217,47.0,-20.0,2014-08-07,False,colocated,right
15,202.8254,1,460,1105,2857,4205,501,10.0,200,1,0,207.6236,0,1,07_08_2014 level23_spatial_Clio 15_05 log.txt,37,37,1217,47.0,-20.0,2014-08-07,False,colocated,right
19,274.0988,0,460,1105,2857,4205,701,10.0,200,1,0,274.5902,0,1,06_08_2014 level23_spatial_Clio 15_42 log.txt,37,37,1217,47.0,-20.0,2014-08-06,False,colocated,right
90,1007.6332,0,460,1105,2857,4205,851,10.0,200,1,0,1008.1438,0,1,07_08_2014 level23_spatial_Clio 09_14 log.txt,37,37,1217,47.0,-20.0,2014-08-07,False,colocated,right
25,330.0499,0,460,1105,2857,4205,651,10.0,200,1,1,330.9483,1,1,07_08_2014 level23_spatial_Clio 09_14 log.txt,37,37,1217,47.0,-20.0,2014-08-07,False,colocated,right
12,182.3524,0,460,1105,2857,4205,701,10.0,200,1,0,183.0033,0,1,07_08_2014 level23_spatial_Clio 09_14 log.txt,37,37,1217,47.0,-20.0,2014-08-07,False,colocated,right
23,297.8839,0,460,1105,2857,4205,751,10.0,200,1,1,299.0357,1,1,08_08_2014 level23_spatial_Clio 09_37 log.txt,37,37,1217,47.0,-20.0,2014-08-08,False,colocated,right
147,1231.3627,0,460,1105,2857,4205,501,10.0,200,1,1,1231.8986,1,1,06_08_2014 level23_spatial_Clio 15_42 log.txt,37,37,1217,47.0,-20.0,2014-08-06,False,colocated,right
54,594.2003,0,460,1105,2857,4205,651,10.0,200,1,1,594.8528,1,1,08_08_2014 level23_spatial_Clio 15_31 log.txt,37,37,1217,47.0,-20.0,2014-08-08,False,colocated,right
63,734.078,0,460,1105,2857,4205,601,10.0,200,1,1,735.3904,1,1,07_08_2014 level23_spatial_Clio 09_14 log.txt,37,37,1217,47.0,-20.0,2014-08-07,False,colocated,right
43,525.8831,0,460,1105,2857,4205,801,10.0,200,1,0,527.1476,0,1,08_08_2014 level23_spatial_Clio 15_31 log.txt,37,37,1217,47.0,-20.0,2014-08-08,False,colocated,right
128,1086.9572,0,460,1105,2857,4205,1001,10.0,200,1,0,1088.1263,0,1,06_08_2014 level23_spatial_Clio 15_42 log.txt,37,37,1217,47.0,-20.0,2014-08-06,False,colocated,right
77,760.4996,0,460,1105,2857,4205,551,10.0,200,1,1,761.0035,1,1,08_08_2014 level23_spatial_Clio 15_31 log.txt,37,37,1217,47.0,-20.0,2014-08-08,False,colocated,right
79,912.5712,0,460,1105,2857,4205,851,10.0,200,1,0,913.3102,0,1,08_08_2014 level23_spatial_Clio 09_37 log.txt,37,37,1217,47.0,-20.0,2014-08-08,False,colocated,right
62,551.6294,0,460,1105,2857,4205,701,10.0,200,1,1,552.4052,1,1,07_08_2014 level23_spatial_Clio 15_05 log.txt,37,37,1217,47.0,-20.0,2014-08-07,False,colocated,right
29,382.8477,0,730,2058,2857,4205,851,10.0,200,0,0,384.3685,1,1,06_08_2014 level23_spatial_Clio 15_42 log.txt,37,37,1217,47.0,-20.0,2014-08-06,False,colocated,right
93,857.9239,0,730,2058,2857,4205,601,10.0,200,0,0,860.1849,1,1,06_08_2014 level23_spatial_Clio 15_42 log.txt,37,37,1217,47.0,-20.0,2014-08-06,False,colocated,right
37,473.4716,0,730,2058,2857,4205,701,10.0,200,0,0,474.4207,1,1,08_08_2014 level23_spatial_Clio 15_31 log.txt,37,37,1217,47.0,-20.0,2014-08-08,False,colocated,right
199,1568.8634,1,730,2058,2857,4205,801,10.0,200,0,1,1569.5997,0,1,06_08_2014 level23_spatial_Clio 15_42 log.txt,37,37,1217,47.0,-20.0,2014-08-06,False,colocated,right
120,1038.1181,0,730,2058,2857,4205,501,10.0,200,0,1,1038.8975,0,1,06_08_2014 level23_spatial_Clio 15_42 log.txt,37,37,1217,47.0,-20.0,2014-08-06,False,colocated,right
96,876.7765,0,730,2058,2857,4205,651,10.0,200,0,1,877.2088,0,1,06_08_2014 level23_spatial_Clio 15_42 log.txt,37,37,1217,47.0,-20.0,2014-08-06,False,colocated,right
93,857.9239,0,730,2058,2857,4205,601,10.0,200,0,0,860.1849,1,1,06_08_2014 level23_spatial_Clio 15_42 log.txt,37,37,1217,47.0,-20.0,2014-08-06,False,colocated,right
117,1053.3584,0,730,2058,2857,4205,851,10.0,200,0,0,1054.2698,1,1,07_08_2014 level23_spatial_Clio 15_05 log.txt,37,37,1217,47.0,-20.0,2014-08-07,False,colocated,right
30,315.9362,0,730,2058,2857,4205,951,10.0,200,0,1,316.4346,0,1,07_08_2014 level23_spatial_Clio 15_05 log.txt,37,37,1217,47.0,-20.0,2014-08-07,False,colocated,right
95,913.418,0,730,2058,2857,4205,551,10.0,200,0,1,914.3942,0,1,08_08_2014 level23_spatial_Clio 15_31 log.txt,37,37,1217,47.0,-20.0,2014-08-08,False,colocated,right
84,950.477,1,730,2058,2857,4205,1001,10.0,200,0,0,950.9975,1,1,07_08_2014 level23_spatial_Clio 09_14 log.txt,37,37,1217,47.0,-20.0,2014-08-07,False,colocated,right
93,857.9239,0,730,2058,2857,4205,601,10.0,200,0,0,860.1849,1,1,06_08_2014 level23_spatial_Clio 15_42 log.txt,37,37,1217,47.0,-20.0,2014-08-06,False,colocated,right
74,861.9889,0,730,2058,2857,4205,701,10.0,200,0,0,862.5047,1,1,08_08_2014 level23_spatial_Clio 09_37 log.txt,37,37,1217,47.0,-20.0,2014-08-08,False,colocated,right
40,492.4705,0,730,2058,2857,4205,951,10.0,200,0,1,494.4495,0,1,08_08_2014 level23_spatial_Clio 09_37 log.txt,37,37,1217,47.0,-20.0,2014-08-08,False,colocated,right
20,264.527,1,730,2058,2857,4205,751,10.0,200,0,1,265.0677,0,1,07_08_2014 level23_spatial_Clio 09_14 log.txt,37,37,1217,47.0,-20.0,2014-08-07,False,colocated,right
69,618.0487,0,730,2058,2857,4205,851,10.0,200,0,1,618.4702,0,1,07_08_2014 level23_spatial_Clio 15_05 log.txt,37,37,1217,47.0,-20.0,2014-08-07,False,colocated,right
84,950.477,1,730,2058,2857,4205,1001,10.0,200,0,0,950.9975,1,1,07_08_2014 level23_spatial_Clio 09_14 log.txt,37,37,1217,47.0,-20.0,2014-08-07,False,colocated,right
94,867.2596,0,730,2058,2857,4205,901,10.0,200,0,0,868.6931,1,1,07_08_2014 level23_spatial_Clio 15_05 log.txt,37,37,1217,47.0,-20.0,2014-08-07,False,colocated,right
93,857.9239,0,730,2058,2857,4205,601,10.0,200,0,0,860.1849,1,1,06_08_2014 level23_spatial_Clio 15_42 log.txt,37,37,1217,47.0,-20.0,2014-08-06,False,colocated,right
29,382.8477,0,730,2058,2857,4205,851,10.0,200,0,0,384.3685,1,1,06_08_2014 level23_spatial_Clio 15_42 log.txt,37,37,1217,47.0,-20.0,2014-08-06,False,colocated,right
156,1279.1525,0,730,2058,2857,4205,501,10.0,200,0,1,1279.9122,0,1,06_08_2014 level23_spatial_Clio 15_42 log.txt,37,37,1217,47.0,-20.0,2014-08-06,False,colocated,right
151,1375.6077,0,730,2058,2857,4205,751,10.0,200,0,1,1376.2259,0,1,08_08_2014 level23_spatial_Clio 15_31 log.txt,37,37,1217,47.0,-20.0,2014-08-08,False,colocated,right
199,1568.8634,1,730,2058,2857,4205,801,10.0,200,0,1,1569.5997,0,1,06_08_2014 level23_spatial_Clio 15_42 log.txt,37,37,1217,47.0,-20.0,2014-08-06,False,colocated,right
17,241.8201,0,730,2058,2857,4205,851,10.0,200,0,1,242.51,0,1,07_08_2014 level23_spatial_Clio 09_14 log.txt,37,37,1217,47.0,-20.0,2014-08-07,False,colocated,right
96,876.7765,0,730,2058,2857,4205,651,10.0,200,0,1,877.2088,0,1,06_08_2014 level23_spatial_Clio 15_42 log.txt,37,37,1217,47.0,-20.0,2014-08-06,False,colocated,right
20,264.527,1,730,2058,2857,4205,751,10.0,200,0,1,265.0677,0,1,07_08_2014 level23_spatial_Clio 09_14 log.txt,37,37,1217,47.0,-20.0,2014-08-07,False,colocated,right
8,166.942,0,730,2058,2857,4205,751,10.0,200,0,1,167.3964,0,1,06_08_2014 level23_spatial_Clio 15_42 log.txt,37,37,1217,47.0,-20.0,2014-08-06,False,colocated,right
112,1011.5056,0,730,2058,2857,4205,851,10.0,200,0,1,1020.1194,0,1,07_08_2014 level23_spatial_Clio 15_05 log.txt,37,37,1217,47.0,-20.0,2014-08-07,False,colocated,right
151,1375.6077,0,730,2058,2857,4205,751,10.0,200,0,1,1376.2259,0,1,08_08_2014 level23_spatial_Clio 15_31 log.txt,37,37,1217,47.0,-20.0,2014-08-08,False,colocated,right
93,857.9239,0,730,2058,2857,4205,601,10.0,200,0,0,860.1849,1,1,06_08_2014 level23_spatial_Clio 15_42 log.txt,37,37,1217,47.0,-20.0,2014-08-06,False,colocated,right
139,1286.2292,0,730,2058,2857,4205,701,10.0,200,0,1,1288.2416,0,1,08_08_2014 level23_spatial_Clio 15_31 log.txt,37,37,1217,47.0,-20.0,2014-08-08,False,colocated,right
6,126.2073,0,730,2058,2857,4205,951,10.0,200,0,0,127.5832,1,1,07_08_2014 level23_spatial_Clio 15_05 log.txt,37,37,1217,47.0,-20.0,2014-08-07,False,colocated,right
84,950.477,1,730,2058,2857,4205,1001,10.0,200,0,0,950.9975,1,1,07_08_2014 level23_spatial_Clio 09_14 log.txt,37,37,1217,47.0,-20.0,2014-08-07,False,colocated,right
120,1038.1181,0,730,2058,2857,4205,501,10.0,200,0,1,1038.8975,0,1,06_08_2014 level23_spatial_Clio 15_42 log.txt,37,37,1217,47.0,-20.0,2014-08-06,False,colocated,right
98,934.8262,0,730,2058,2857,4205,751,10.0,200,0,0,935.8147,1,1,08_08_2014 level23_spatial_Clio 15_31 log.txt,37,37,1217,47.0,-20.0,2014-08-08,False,colocated,right
40,492.4705,0,730,2058,2857,4205,951,10.0,200,0,1,494.4495,0,1,08_08_2014 level23_spatial_Clio 09_37 log.txt,37,37,1217,47.0,-20.0,2014-08-08,False,colocated,right
96,876.7765,0,730,2058,2857,4205,651,10.0,200,0,1,877.2088,0,1,06_08_2014 level23_spatial_Clio 15_42 log.txt,37,37,1217,47.0,-20.0,2014-08-06,False,colocated,right
37,473.4716,0,730,2058,2857,4205,701,10.0,200,0,0,474.4207,1,1,08_08_2014 level23_spatial_Clio 15_31 log.txt,37,37,1217,47.0,-20.0,2014-08-08,False,colocated,right
30,315.9362,0,730,2058,2857,4205,951,10.0,200,0,1,316.4346,0,1,07_08_2014 level23_spatial_Clio 15_05 log.txt,37,37,1217,47.0,-20.0,2014-08-07,False,colocated,right
151,1375.6077,0,730,2058,2857,4205,751,10.0,200,0,1,1376.2259,0,1,08_08_2014 level23_spatial_Clio 15_31 log.txt,37,37,1217,47.0,-20.0,2014-08-08,False,colocated,right
40,492.4705,0,730,2058,2857,4205,951,10.0,200,0,1,494.4495,0,1,08_08_2014 level23_spatial_Clio 09_37 log.txt,37,37,1217,47.0,-20.0,2014-08-08,False,colocated,right
64,759.6012,0,730,2058,2857,4205,751,10.0,200,0,0,760.4944,1,1,08_08_2014 level23_spatial_Clio 09_37 log.txt,37,37,1217,47.0,-20.0,2014-08-08,False,colocated,right
20,264.527,1,730,2058,2857,4205,751,10.0,200,0,1,265.0677,0,1,07_08_2014 level23_spatial_Clio 09_14 log.txt,37,37,1217,47.0,-20.0,2014-08-07,False,colocated,right
95,913.418,0,730,2058,2857,4205,551,10.0,200,0,1,914.3942,0,1,08_08_2014 level23_spatial_Clio 15_31 log.txt,37,37,1217,47.0,-20.0,2014-08-08,False,colocated,right
156,1279.1525,0,730,2058,2857,4205,501,10.0,200,0,1,1279.9122,0,1,06_08_2014 level23_spatial_Clio 15_42 log.txt,37,37,1217,47.0,-20.0,2014-08-06,False,colocated,right
64,759.6012,0,730,2058,2857,4205,751,10.0,200,0,0,760.4944,1,1,08_08_2014 level23_spatial_Clio 09_37 log.txt,37,37,1217,47.0,-20.0,2014-08-08,False,colocated,right
174,1384.1215,0,730,2058,2857,4205,951,10.0,200,0,0,1385.4645,1,1,06_08_2014 level23_spatial_Clio 15_42 log.txt,37,37,1217,47.0,-20.0,2014-08-06,False,colocated,right
30,315.9362,0,730,2058,2857,4205,951,10.0,200,0,1,316.4346,0,1,07_08_2014 level23_spatial_Clio 15_05 log.txt,37,37,1217,47.0,-20.0,2014-08-07,False,colocated,right
65,574.5641,1,730,2058,2857,4205,951,10.0,200,0,0,579.0128,1,1,07_08_2014 level23_spatial_Clio 15_05 log.txt,37,37,1217,47.0,-20.0,2014-08-07,False,colocated,right
69,618.0487,0,730,2058,2857,4205,851,10.0,200,0,1,618.4702,0,1,07_08_2014 level23_spatial_Clio 15_05 log.txt,37,37,1217,47.0,-20.0,2014-08-07,False,colocated,right
114,1094.5235,0,730,2058,2857,4205,751,10.0,200,0,1,1095.0538,0,1,08_08_2014 level23_spatial_Clio 15_31 log.txt,37,37,1217,47.0,-20.0,2014-08-08,False,colocated,right
40,492.4705,0,730,2058,2857,4205,951,10.0,200,0,1,494.4495,0,1,08_08_2014 level23_spatial_Clio 09_37 log.txt,37,37,1217,47.0,-20.0,2014-08-08,False,colocated,right
94,867.2596,0,730,2058,2857,4205,901,10.0,200,0,0,868.6931,1,1,07_08_2014 level23_spatial_Clio 15_05 log.txt,37,37,1217,47.0,-20.0,2014-08-07,False,colocated,right
151,1375.6077,0,730,2058,2857,4205,751,10.0,200,0,1,1376.2259,0,1,08_08_2014 level23_spatial_Clio 15_31 log.txt,37,37,1217,47.0,-20.0,2014-08-08,False,colocated,right
2,151.7528,1,730,2058,2857,4205,951,10.0,200,0,1,160.2589,0,1,08_08_2014 level23_spatial_Clio 15_31 log.txt,37,37,1217,47.0,-20.0,2014-08-08,False,colocated,right
2,151.7528,1,730,2058,2857,4205,951,10.0,200,0,1,160.2589,0,1,08_08_2014 level23_spatial_Clio 15_31 log.txt,37,37,1217,47.0,-20.0,2014-08-08,False,colocated,right
120,1038.1181,0,730,2058,2857,4205,501,10.0,200,0,1,1038.8975,0,1,06_08_2014 level23_spatial_Clio 15_42 log.txt,37,37,1217,47.0,-20.0,2014-08-06,False,colocated,right
94,867.2596,0,730,2058,2857,4205,901,10.0,200,0,0,868.6931,1,1,07_08_2014 level23_spatial_Clio 15_05 log.txt,37,37,1217,47.0,-20.0,2014-08-07,False,colocated,right
179,1413.2584,0,730,2058,2857,4205,701,10.0,200,0,1,1413.911,0,1,06_08_2014 level23_spatial_Clio 15_42 log.txt,37,37,1217,47.0,-20.0,2014-08-06,False,colocated,right
8,166.942,0,730,2058,2857,4205,751,10.0,200,0,1,167.3964,0,1,06_08_2014 level23_spatial_Clio 15_42 log.txt,37,37,1217,47.0,-20.0,2014-08-06,False,colocated,right
17,241.8201,0,730,2058,2857,4205,851,10.0,200,0,1,242.51,0,1,07_08_2014 level23_spatial_Clio 09_14 log.txt,37,37,1217,47.0,-20.0,2014-08-07,False,colocated,right
117,1053.3584,0,730,2058,2857,4205,851,10.0,200,0,0,1054.2698,1,1,07_08_2014 level23_spatial_Clio 15_05 log.txt,37,37,1217,47.0,-20.0,2014-08-07,False,colocated,right
69,618.0487,0,730,2058,2857,4205,851,10.0,200,0,1,618.4702,0,1,07_08_2014 level23_spatial_Clio 15_05 log.txt,37,37,1217,47.0,-20.0,2014-08-07,False,colocated,right
114,1094.5235,0,730,2058,2857,4205,751,10.0,200,0,1,1095.0538,0,1,08_08_2014 level23_spatial_Clio 15_31 log.txt,37,37,1217,47.0,-20.0,2014-08-08,False,colocated,right
45,426.7603,1,730,2058,2857,4205,851,10.0,200,0,1,427.2754,0,1,07_08_2014 level23_spatial_Clio 15_05 log.txt,37,37,1217,47.0,-20.0,2014-08-07,False,colocated,right
114,1094.5235,0,730,2058,2857,4205,751,10.0,200,0,1,1095.0538,0,1,08_08_2014 level23_spatial_Clio 15_31 log.txt,37,37,1217,47.0,-20.0,2014-08-08,False,colocated,right
127,1136.2379,0,730,2058,2857,4205,501,10.0,200,0,1,1137.1412,0,1,07_08_2014 level23_spatial_Clio 15_05 log.txt,37,37,1217,47.0,-20.0,2014-08-07,False,colocated,right
132,1115.3054,0,730,2058,2857,4205,601,10.0,200,0,1,1115.7983,0,1,06_08_2014 level23_spatial_Clio 15_42 log.txt,37,37,1217,47.0,-20.0,2014-08-06,False,colocated,right
199,1568.8634,1,730,2058,2857,4205,801,10.0,200,0,1,1569.5997,0,1,06_08_2014 level23_spatial_Clio 15_42 log.txt,37,37,1217,47.0,-20.0,2014-08-06,False,colocated,right
40,492.4705,0,730,2058,2857,4205,951,10.0,200,0,1,494.4495,0,1,08_08_2014 level23_spatial_Clio 09_37 log.txt,37,37,1217,47.0,-20.0,2014-08-08,False,colocated,right
96,876.7765,0,730,2058,2857,4205,651,10.0,200,0,1,877.2088,0,1,06_08_2014 level23_spatial_Clio 15_42 log.txt,37,37,1217,47.0,-20.0,2014-08-06,False,colocated,right
151,1375.6077,0,730,2058,2857,4205,751,10.0,200,0,1,1376.2259,0,1,08_08_2014 level23_spatial_Clio 15_31 log.txt,37,37,1217,47.0,-20.0,2014-08-08,False,colocated,right
45,426.7603,1,730,2058,2857,4205,851,10.0,200,0,1,427.2754,0,1,07_08_2014 level23_spatial_Clio 15_05 log.txt,37,37,1217,47.0,-20.0,2014-08-07,False,colocated,right
45,426.7603,1,730,2058,2857,4205,851,10.0,200,0,1,427.2754,0,1,07_08_2014 level23_spatial_Clio 15_05 log.txt,37,37,1217,47.0,-20.0,2014-08-07,False,colocated,right
139,1286.2292,0,730,2058,2857,4205,701,10.0,200,0,1,1288.2416,0,1,08_08_2014 level23_spatial_Clio 15_31 log.txt,37,37,1217,47.0,-20.0,2014-08-08,False,colocated,right
58,621.4214,0,730,2058,2857,4205,601,10.0,200,0,1,621.8704,0,1,08_08_2014 level23_spatial_Clio 15_31 log.txt,37,37,1217,47.0,-20.0,2014-08-08,False,colocated,right
174,1384.1215,0,730,2058,2857,4205,951,10.0,200,0,0,1385.4645,1,1,06_08_2014 level23_spatial_Clio 15_42 log.txt,37,37,1217,47.0,-20.0,2014-08-06,False,colocated,right
80,780.4043,0,730,2058,2857,4205,901,10.0,200,0,0,781.1399,1,1,06_08_2014 level23_spatial_Clio 15_42 log.txt,37,37,1217,47.0,-20.0,2014-08-06,False,colocated,right
114,1094.5235,0,730,2058,2857,4205,751,10.0,200,0,1,1095.0538,0,1,08_08_2014 level23_spatial_Clio 15_31 log.txt,37,37,1217,47.0,-20.0,2014-08-08,False,colocated,right
2,151.7528,1,730,2058,2857,4205,951,10.0,200,0,1,160.2589,0,1,08_08_2014 level23_spatial_Clio 15_31 log.txt,37,37,1217,47.0,-20.0,2014-08-08,False,colocated,right
17,241.8201,0,730,2058,2857,4205,851,10.0,200,0,1,242.51,0,1,07_08_2014 level23_spatial_Clio 09_14 log.txt,37,37,1217,47.0,-20.0,2014-08-07,False,colocated,right
95,913.418,0,730,2058,2857,4205,551,10.0,200,0,1,914.3942,0,1,08_08_2014 level23_spatial_Clio 15_31 log.txt,37,37,1217,47.0,-20.0,2014-08-08,False,colocated,right
6,126.2073,0,730,2058,2857,4205,951,10.0,200,0,0,127.5832,1,1,07_08_2014 level23_spatial_Clio 15_05 log.txt,37,37,1217,47.0,-20.0,2014-08-07,False,colocated,right
58,621.4214,0,730,2058,2857,4205,601,10.0,200,0,1,621.8704,0,1,08_08_2014 level23_spatial_Clio 15_31 log.txt,37,37,1217,47.0,-20.0,2014-08-08,False,colocated,right
30,315.9362,0,730,2058,2857,4205,951,10.0,200,0,1,316.4346,0,1,07_08_2014 level23_spatial_Clio 15_05 log.txt,37,37,1217,47.0,-20.0,2014-08-07,False,colocated,right
127,1136.2379,0,730,2058,2857,4205,501,10.0,200,0,1,1137.1412,0,1,07_08_2014 level23_spatial_Clio 15_05 log.txt,37,37,1217,47.0,-20.0,2014-08-07,False,colocated,right
74,861.9889,0,730,2058,2857,4205,701,10.0,200,0,0,862.5047,1,1,08_08_2014 level23_spatial_Clio 09_37 log.txt,37,37,1217,47.0,-20.0,2014-08-08,False,colocated,right
13,191.2342,0,730,2058,2857,4205,951,10.0,200,0,0,192.3328,1,1,08_08_2014 level23_spatial_Clio 09_37 log.txt,37,37,1217,47.0,-20.0,2014-08-08,False,colocated,right
109,1062.0895,0,460,1105,2857,4205,801,-15.0,200,1,1,1062.4714,1,0,17_07_2014 level23_spatial_Clio 14_56 log.txt,37,37,1217,72.0,5.0,2014-07-17,False,colocated,left
78,591.7945,0,460,1105,2857,4205,751,-15.0,200,1,1,593.3545,1,0,08_05_2014 level23_spatial_Clio 10_23 Block5-27.txt,37,37,1217,72.0,5.0,2014-05-08,False,colocated,left
21,278.3584,0,460,1105,2857,4205,651,-15.0,200,1,0,278.745,0,0,10_07_2014 level23_spatial_Clio 11_08 Block6-21.txt,37,37,1217,72.0,5.0,2014-07-10,False,colocated,left
100,679.9493,0,460,1105,2857,4205,851,-15.0,200,1,1,680.3472,1,0,29_04_2014 level23_spatial_Clio 10_03 Block5-13.txt,37,37,1217,72.0,5.0,2014-04-29,False,colocated,left
91,678.7772,0,460,1105,2857,4205,801,-15.0,200,1,1,679.3163,1,0,08_05_2014 level23_spatial_Clio 10_23 Block5-27.txt,37,37,1217,72.0,5.0,2014-05-08,False,colocated,left
1,41.1371,0,460,1105,2857,4205,851,-15.0,200,1,1,43.2918,1,0,10_07_2014 level23_spatial_Clio 11_08 Block6-21.txt,37,37,1217,72.0,5.0,2014-07-10,False,colocated,left
21,191.6914,0,460,1105,2857,4205,901,-15.0,200,1,1,193.1114,1,0,19_03_2014 level23_spatial_Clio 14_51 Block4-28.txt,37,37,1217,72.0,5.0,2014-03-19,False,colocated,left
78,533.5105,0,460,1105,2857,4205,951,-15.0,200,1,1,533.9821,1,0,20_03_2014 level23_spatial_Clio 09_42 Block4-29.txt,37,37,1217,72.0,5.0,2014-03-20,False,colocated,left
62,655.7873,0,460,1105,2857,4205,601,-15.0,200,1,1,656.1711,1,0,25_06_2014 level23_spatial_Clio 09_22 Block6-11.txt,37,37,1217,72.0,5.0,2014-06-25,False,colocated,left
41,277.766,0,460,1105,2857,4205,951,-15.0,200,1,1,278.5487,1,0,20_03_2014 level23_spatial_Clio 09_42 Block4-29.txt,37,37,1217,72.0,5.0,2014-03-20,False,colocated,left
140,1320.6949,0,460,1105,2857,4205,701,-15.0,200,1,1,1321.6145,1,0,17_07_2014 level23_spatial_Clio 14_56 log.txt,37,37,1217,72.0,5.0,2014-07-17,False,colocated,left
62,655.7873,0,460,1105,2857,4205,601,-15.0,200,1,1,656.1711,1,0,25_06_2014 level23_spatial_Clio 09_22 Block6-11.txt,37,37,1217,72.0,5.0,2014-06-25,False,colocated,left
33,269.4715,0,460,1105,2857,4205,751,-15.0,200,1,0,269.9594,0,0,19_03_2014 level23_spatial_Clio 14_51 Block4-28.txt,37,37,1217,72.0,5.0,2014-03-19,False,colocated,left
72,548.3733,0,460,1105,2857,4205,1001,-15.0,200,1,0,548.6817,0,0,08_05_2014 level23_spatial_Clio 10_23 Block5-27.txt,37,37,1217,72.0,5.0,2014-05-08,False,colocated,left
80,645.3653,0,460,1105,2857,4205,901,-15.0,200,1,1,645.6394,1,0,26_03_2014 level23_spatial_Clio 11_05 Block4-37.txt,37,37,1217,72.0,5.0,2014-03-26,False,colocated,left
13,151.5353,0,460,1105,2857,4205,901,-15.0,200,1,0,152.6004,0,0,18_07_2014 level23_spatial_Clio 15_56 log.txt,37,37,1217,72.0,5.0,2014-07-18,False,colocated,left
179,1202.7195,0,460,1105,2857,4205,1001,-15.0,200,1,0,1205.0894,0,0,04_04_2014 level23_spatial_Clio 14_47 Block4-52.txt,37,37,1217,72.0,5.0,2014-04-04,False,colocated,left
151,1429.8577,0,460,1105,2857,4205,901,-15.0,200,1,1,1430.5701,1,0,17_07_2014 level23_spatial_Clio 14_56 log.txt,37,37,1217,72.0,5.0,2014-07-17,False,colocated,left
114,829.7791,0,460,1105,2857,4205,901,-15.0,200,1,1,830.2735,1,0,08_05_2014 level23_spatial_Clio 10_23 Block5-27.txt,37,37,1217,72.0,5.0,2014-05-08,False,colocated,left
12,95.9357,0,460,1105,2857,4205,501,-15.0,200,1,1,96.6079,1,0,20_03_2014 level23_spatial_Clio 09_42 Block4-29.txt,37,37,1217,72.0,5.0,2014-03-20,False,colocated,left
81,598.293,0,460,1105,2857,4205,901,-15.0,200,1,1,598.4898,1,0,09_01_2014 level23_spatial_Clio 10_52 Block3-59.txt,37,37,1217,72.0,5.0,2014-01-09,False,colocated,left
140,970.9032,0,460,1105,2857,4205,1001,-15.0,200,1,1,971.0807,1,0,09_01_2014 level23_spatial_Clio 10_52 Block3-59.txt,37,37,1217,72.0,5.0,2014-01-09,False,colocated,left
54,606.9874,0,460,1105,2857,4205,901,-15.0,200,1,0,608.5872,0,0,18_07_2014 level23_spatial_Clio 15_56 log.txt,37,37,1217,72.0,5.0,2014-07-18,False,colocated,left
123,1242.0452,0,460,1105,2857,4205,801,-15.0,200,1,1,1242.4744,1,0,18_07_2014 level23_spatial_Clio 15_56 log.txt,37,37,1217,72.0,5.0,2014-07-18,False,colocated,left
35,248.0254,0,460,1105,2857,4205,751,-15.0,200,1,0,248.7219,0,0,04_04_2014 level23_spatial_Clio 09_31 Block4-51.txt,37,37,1217,72.0,5.0,2014-04-04,False,colocated,left
28,195.2726,0,460,1105,2857,4205,651,-15.0,200,1,1,196.0486,1,0,04_04_2014 level23_spatial_Clio 14_47 Block4-52.txt,37,37,1217,72.0,5.0,2014-04-04,False,colocated,left
46,413.491,0,460,1105,2857,4205,701,-15.0,200,1,1,414.396,1,0,26_03_2014 level23_spatial_Clio 11_05 Block4-37.txt,37,37,1217,72.0,5.0,2014-03-26,False,colocated,left
101,1118.4362,0,460,1105,2857,4205,651,-15.0,200,1,1,1118.922,1,0,10_07_2014 level23_spatial_Clio 11_08 Block6-21.txt,37,37,1217,72.0,5.0,2014-07-10,False,colocated,left
120,696.6844,0,460,1105,2857,4205,801,-15.0,200,1,1,697.3165,1,0,04_04_2014 level23_spatial_Clio 09_31 Block4-51.txt,37,37,1217,72.0,5.0,2014-04-04,False,colocated,left
148,1490.8549,0,460,1105,2857,4205,951,-15.0,200,1,1,1491.3298,1,0,10_07_2014 level23_spatial_Clio 11_08 Block6-21.txt,37,37,1217,72.0,5.0,2014-07-10,False,colocated,left
78,513.5432,0,460,1105,2857,4205,651,-15.0,200,1,1,515.6191,1,0,14_05_2014 level23_spatial_Clio 10_19 log.txt,37,37,1217,72.0,5.0,2014-05-14,False,colocated,left
188,1846.0908,1,460,1105,2857,4205,851,-15.0,200,1,1,1846.6213,1,0,18_07_2014 level23_spatial_Clio 15_56 log.txt,37,37,1217,72.0,5.0,2014-07-18,False,colocated,left
86,649.9911,0,460,1105,2857,4205,901,-15.0,200,1,1,650.4055,1,0,17_07_2014 level23_spatial_Clio 10_01 log.txt,37,37,1217,72.0,5.0,2014-07-17,False,colocated,left
82,540.8663,0,460,1105,2857,4205,1001,-15.0,200,1,1,541.1903,1,0,14_05_2014 level23_spatial_Clio 10_19 log.txt,37,37,1217,72.0,5.0,2014-05-14,False,colocated,left
8,102.3497,0,460,1105,2857,4205,501,-15.0,200,1,1,102.947,1,0,26_03_2014 level23_spatial_Clio 11_05 Block4-37.txt,37,37,1217,72.0,5.0,2014-03-26,False,colocated,left
37,316.4711,0,460,1105,2857,4205,601,-15.0,200,1,0,317.8798,0,0,09_01_2014 level23_spatial_Clio 10_52 Block3-59.txt,37,37,1217,72.0,5.0,2014-01-09,False,colocated,left
57,548.1155,0,460,1105,2857,4205,701,-15.0,200,1,0,548.8074,0,0,07_02_2014 level23_spatial_Clio 09_53 Block4-22.txt,37,37,1217,72.0,5.0,2014-02-07,False,colocated,left
101,1118.4362,0,460,1105,2857,4205,651,-15.0,200,1,1,1118.922,1,0,10_07_2014 level23_spatial_Clio 11_08 Block6-21.txt,37,37,1217,72.0,5.0,2014-07-10,False,colocated,left
105,1044.474,1,460,1105,2857,4205,851,-15.0,200,1,0,1045.1649,0,0,07_02_2014 level23_spatial_Clio 09_53 Block4-22.txt,37,37,1217,72.0,5.0,2014-02-07,False,colocated,left
198,1338.3063,0,460,1105,2857,4205,601,-15.0,200,1,1,1339.1316,1,0,04_04_2014 level23_spatial_Clio 14_47 Block4-52.txt,37,37,1217,72.0,5.0,2014-04-04,False,colocated,left
87,904.6478,0,460,1105,2857,4205,601,-15.0,200,1,1,912.7044,1,0,18_07_2014 level23_spatial_Clio 15_56 log.txt,37,37,1217,72.0,5.0,2014-07-18,False,colocated,left
1,41.1371,0,460,1105,2857,4205,851,-15.0,200,1,1,43.2918,1,0,10_07_2014 level23_spatial_Clio 11_08 Block6-21.txt,37,37,1217,72.0,5.0,2014-07-10,False,colocated,left
52,341.4623,0,460,1105,2857,4205,901,-15.0,200,1,1,341.7536,1,0,04_04_2014 level23_spatial_Clio 09_31 Block4-51.txt,37,37,1217,72.0,5.0,2014-04-04,False,colocated,left
87,916.8471,0,460,1105,2857,4205,901,-15.0,200,1,1,917.2571,1,0,17_07_2014 level23_spatial_Clio 14_56 log.txt,37,37,1217,72.0,5.0,2014-07-17,False,colocated,left
125,720.4089,0,460,1105,2857,4205,1001,-15.0,200,1,0,722.7486,0,0,04_04_2014 level23_spatial_Clio 09_31 Block4-51.txt,37,37,1217,72.0,5.0,2014-04-04,False,colocated,left
48,288.4785,1,460,1105,2857,4205,701,-15.0,200,1,0,288.8559,0,0,11_06_2014 level23_spatial_Clio 14_47 Block5-67.txt,37,37,1217,72.0,5.0,2014-06-11,False,colocated,left
124,767.6337,0,460,1105,2857,4205,501,-15.0,200,1,1,768.5001,1,0,19_03_2014 level23_spatial_Clio 09_43 Block4-27.txt,37,37,1217,72.0,5.0,2014-03-19,False,colocated,left
101,686.0397,1,460,1105,2857,4205,751,-15.0,200,1,1,686.3805,1,0,29_04_2014 level23_spatial_Clio 10_03 Block5-13.txt,37,37,1217,72.0,5.0,2014-04-29,False,colocated,left
46,435.4821,0,460,1105,2857,4205,651,-15.0,200,1,1,436.0888,1,0,18_07_2014 level23_spatial_Clio 10_14 log.txt,37,37,1217,72.0,5.0,2014-07-18,False,colocated,left
89,646.0843,0,460,1105,2857,4205,501,-15.0,200,1,0,647.7441,0,0,04_04_2014 level23_spatial_Clio 14_47 Block4-52.txt,37,37,1217,72.0,5.0,2014-04-04,False,colocated,left
28,231.89,0,460,1105,2857,4205,751,-15.0,200,1,1,232.5712,1,0,14_05_2014 level23_spatial_Clio 10_19 log.txt,37,37,1217,72.0,5.0,2014-05-14,False,colocated,left
1,41.1371,0,460,1105,2857,4205,851,-15.0,200,1,1,43.2918,1,0,10_07_2014 level23_spatial_Clio 11_08 Block6-21.txt,37,37,1217,72.0,5.0,2014-07-10,False,colocated,left
4,33.3218,0,460,1105,2857,4205,501,-15.0,200,1,1,33.6458,1,0,11_06_2014 level23_spatial_Clio 14_47 Block5-67.txt,37,37,1217,72.0,5.0,2014-06-11,False,colocated,left
1,28.0914,0,460,1105,2857,4205,501,-15.0,200,1,1,29.2965,1,0,14_05_2014 level23_spatial_Clio 10_19 log.txt,37,37,1217,72.0,5.0,2014-05-14,False,colocated,left
182,1221.2413,1,460,1105,2857,4205,501,-15.0,200,1,0,1222.5745,0,0,19_03_2014 level23_spatial_Clio 09_43 Block4-27.txt,37,37,1217,72.0,5.0,2014-03-19,False,colocated,left
54,361.5289,0,460,1105,2857,4205,801,-15.0,200,1,0,362.1537,0,0,20_03_2014 level23_spatial_Clio 09_42 Block4-29.txt,37,37,1217,72.0,5.0,2014-03-20,False,colocated,left
179,1202.7195,0,460,1105,2857,4205,1001,-15.0,200,1,0,1205.0894,0,0,04_04_2014 level23_spatial_Clio 14_47 Block4-52.txt,37,37,1217,72.0,5.0,2014-04-04,False,colocated,left
101,686.0397,1,460,1105,2857,4205,751,-15.0,200,1,1,686.3805,1,0,29_04_2014 level23_spatial_Clio 10_03 Block5-13.txt,37,37,1217,72.0,5.0,2014-04-29,False,colocated,left
43,289.6466,0,460,1105,2857,4205,801,-15.0,200,1,1,290.0264,1,0,19_03_2014 level23_spatial_Clio 09_43 Block4-27.txt,37,37,1217,72.0,5.0,2014-03-19,False,colocated,left
120,888.2463,0,460,1105,2857,4205,901,-15.0,200,1,0,890.7667,0,0,26_03_2014 level23_spatial_Clio 11_05 Block4-37.txt,37,37,1217,72.0,5.0,2014-03-26,False,colocated,left
89,915.5574,0,460,1105,2857,4205,651,-15.0,200,1,0,916.1844,0,0,25_06_2014 level23_spatial_Clio 09_22 Block6-11.txt,37,37,1217,72.0,5.0,2014-06-25,False,colocated,left
76,546.5088,0,460,1105,2857,4205,601,-15.0,200,1,1,547.4286,1,0,04_04_2014 level23_spatial_Clio 14_47 Block4-52.txt,37,37,1217,72.0,5.0,2014-04-04,False,colocated,left
188,1846.0908,1,460,1105,2857,4205,851,-15.0,200,1,1,1846.6213,1,0,18_07_2014 level23_spatial_Clio 15_56 log.txt,37,37,1217,72.0,5.0,2014-07-18,False,colocated,left
143,1066.8564,1,460,1105,2857,4205,1001,-15.0,200,1,1,1067.3835,1,0,26_03_2014 level23_spatial_Clio 11_05 Block4-37.txt,37,37,1217,72.0,5.0,2014-03-26,False,colocated,left
96,631.3943,0,460,1105,2857,4205,701,-15.0,200,1,1,631.8017,1,0,29_04_2014 level23_spatial_Clio 10_03 Block5-13.txt,37,37,1217,72.0,5.0,2014-04-29,False,colocated,left
45,450.1063,0,460,1105,2857,4205,801,-15.0,200,1,0,452.1066,0,0,07_02_2014 level23_spatial_Clio 09_53 Block4-22.txt,37,37,1217,72.0,5.0,2014-02-07,False,colocated,left
89,646.0843,0,460,1105,2857,4205,501,-15.0,200,1,0,647.7441,0,0,04_04_2014 level23_spatial_Clio 14_47 Block4-52.txt,37,37,1217,72.0,5.0,2014-04-04,False,colocated,left
86,649.9911,0,460,1105,2857,4205,901,-15.0,200,1,1,650.4055,1,0,17_07_2014 level23_spatial_Clio 10_01 log.txt,37,37,1217,72.0,5.0,2014-07-17,False,colocated,left
135,921.2705,0,460,1105,2857,4205,951,-15.0,200,1,1,921.8572,1,0,04_04_2014 level23_spatial_Clio 14_47 Block4-52.txt,37,37,1217,72.0,5.0,2014-04-04,False,colocated,left
37,316.4711,0,460,1105,2857,4205,601,-15.0,200,1,0,317.8798,0,0,09_01_2014 level23_spatial_Clio 10_52 Block3-59.txt,37,37,1217,72.0,5.0,2014-01-09,False,colocated,left
140,1320.6949,0,460,1105,2857,4205,701,-15.0,200,1,1,1321.6145,1,0,17_07_2014 level23_spatial_Clio 14_56 log.txt,37,37,1217,72.0,5.0,2014-07-17,False,colocated,left
83,867.0973,0,460,1105,2857,4205,901,-15.0,200,1,0,868.3765,0,0,18_07_2014 level23_spatial_Clio 15_56 log.txt,37,37,1217,72.0,5.0,2014-07-18,False,colocated,left
89,684.1233,0,460,1105,2857,4205,701,-15.0,200,1,1,684.9064,1,0,17_07_2014 level23_spatial_Clio 10_01 log.txt,37,37,1217,72.0,5.0,2014-07-17,False,colocated,left
113,1162.0907,0,460,1105,2857,4205,701,-15.0,200,1,1,1162.6792,1,0,18_07_2014 level23_spatial_Clio 15_56 log.txt,37,37,1217,72.0,5.0,2014-07-18,False,colocated,left
82,540.8663,0,460,1105,2857,4205,1001,-15.0,200,1,1,541.1903,1,0,14_05_2014 level23_spatial_Clio 10_19 log.txt,37,37,1217,72.0,5.0,2014-05-14,False,colocated,left
11,133.3963,0,460,1105,2857,4205,501,-15.0,200,1,1,133.8557,1,0,17_07_2014 level23_spatial_Clio 10_01 log.txt,37,37,1217,72.0,5.0,2014-07-17,False,colocated,left
46,435.4821,0,460,1105,2857,4205,651,-15.0,200,1,1,436.0888,1,0,18_07_2014 level23_spatial_Clio 10_14 log.txt,37,37,1217,72.0,5.0,2014-07-18,False,colocated,left
82,540.8663,0,460,1105,2857,4205,1001,-15.0,200,1,1,541.1903,1,0,14_05_2014 level23_spatial_Clio 10_19 log.txt,37,37,1217,72.0,5.0,2014-05-14,False,colocated,left
161,1082.5197,0,460,1105,2857,4205,901,-15.0,200,1,1,1082.8773,1,0,04_04_2014 level23_spatial_Clio 14_47 Block4-52.txt,37,37,1217,72.0,5.0,2014-04-04,False,colocated,left
16,152.0861,0,460,1105,2857,4205,751,-15.0,200,1,1,152.3744,1,0,14_05_2014 level23_spatial_Clio 10_19 log.txt,37,37,1217,72.0,5.0,2014-05-14,False,colocated,left
140,970.9032,0,460,1105,2857,4205,1001,-15.0,200,1,1,971.0807,1,0,09_01_2014 level23_spatial_Clio 10_52 Block3-59.txt,37,37,1217,72.0,5.0,2014-01-09,False,colocated,left
79,499.2322,1,460,1105,2857,4205,901,-15.0,200,1,1,499.5987,1,0,19_03_2014 level23_spatial_Clio 09_43 Block4-27.txt,37,37,1217,72.0,5.0,2014-03-19,False,colocated,left
182,1221.2413,1,460,1105,2857,4205,501,-15.0,200,1,0,1222.5745,0,0,19_03_2014 level23_spatial_Clio 09_43 Block4-27.txt,37,37,1217,72.0,5.0,2014-03-19,False,colocated,left
11,133.3963,0,460,1105,2857,4205,501,-15.0,200,1,1,133.8557,1,0,17_07_2014 level23_spatial_Clio 10_01 log.txt,37,37,1217,72.0,5.0,2014-07-17,False,colocated,left
101,1118.4362,0,460,1105,2857,4205,651,-15.0,200,1,1,1118.922,1,0,10_07_2014 level23_spatial_Clio 11_08 Block6-21.txt,37,37,1217,72.0,5.0,2014-07-10,False,colocated,left
76,792.7366,0,460,1105,2857,4205,801,-15.0,200,1,1,793.0858,1,0,17_07_2014 level23_spatial_Clio 14_56 log.txt,37,37,1217,72.0,5.0,2014-07-17,False,colocated,left
23,157.4027,0,460,1105,2857,4205,651,-15.0,200,1,1,157.8147,1,0,29_04_2014 level23_spatial_Clio 10_03 Block5-13.txt,37,37,1217,72.0,5.0,2014-04-29,False,colocated,left
59,381.9742,0,460,1105,2857,4205,651,-15.0,200,1,0,382.6722,0,0,19_03_2014 level23_spatial_Clio 09_43 Block4-27.txt,37,37,1217,72.0,5.0,2014-03-19,False,colocated,left
115,1131.2452,1,730,2058,2857,4205,551,-15.0,200,0,0,1132.6408,1,0,07_02_2014 level23_spatial_Clio 09_53 Block4-22.txt,37,37,1217,72.0,5.0,2014-02-07,False,colocated,left
71,677.2607,0,730,2058,2857,4205,551,-15.0,200,0,0,677.8653,1,0,07_02_2014 level23_spatial_Clio 09_53 Block4-22.txt,37,37,1217,72.0,5.0,2014-02-07,False,colocated,left
122,852.3804,0,730,2058,2857,4205,701,-15.0,200,0,0,853.0715,1,0,09_01_2014 level23_spatial_Clio 10_52 Block3-59.txt,37,37,1217,72.0,5.0,2014-01-09,False,colocated,left
108,1100.6959,0,730,2058,2857,4205,751,-15.0,200,0,0,1102.216,1,0,18_07_2014 level23_spatial_Clio 15_56 log.txt,37,37,1217,72.0,5.0,2014-07-18,False,colocated,left
161,1520.4896,0,730,2058,2857,4205,601,-15.0,200,0,0,1522.0952,1,0,17_07_2014 level23_spatial_Clio 14_56 log.txt,37,37,1217,72.0,5.0,2014-07-17,False,colocated,left
104,760.749,0,730,2058,2857,4205,951,-15.0,200,0,0,761.1457,1,0,08_05_2014 level23_spatial_Clio 10_23 Block5-27.txt,37,37,1217,72.0,5.0,2014-05-08,False,colocated,left
68,697.6682,0,730,2058,2857,4205,651,-15.0,200,0,0,698.438,1,0,17_07_2014 level23_spatial_Clio 14_56 log.txt,37,37,1217,72.0,5.0,2014-07-17,False,colocated,left
3,21.0548,1,730,2058,2857,4205,501,-15.0,200,0,0,21.988,1,0,29_04_2014 level23_spatial_Clio 10_03 Block5-13.txt,37,37,1217,72.0,5.0,2014-04-29,False,colocated,left
80,856.8976,0,730,2058,2857,4205,751,-15.0,200,0,0,857.9763,1,0,17_07_2014 level23_spatial_Clio 14_56 log.txt,37,37,1217,72.0,5.0,2014-07-17,False,colocated,left
104,760.749,0,730,2058,2857,4205,951,-15.0,200,0,0,761.1457,1,0,08_05_2014 level23_spatial_Clio 10_23 Block5-27.txt,37,37,1217,72.0,5.0,2014-05-08,False,colocated,left
118,784.6239,0,730,2058,2857,4205,601,-15.0,200,0,0,787.3883,1,0,20_03_2014 level23_spatial_Clio 09_42 Block4-29.txt,37,37,1217,72.0,5.0,2014-03-20,False,colocated,left
34,232.9076,0,730,2058,2857,4205,901,-15.0,200,0,0,233.3484,1,0,19_03_2014 level23_spatial_Clio 09_43 Block4-27.txt,37,37,1217,72.0,5.0,2014-03-19,False,colocated,left
144,1338.8958,0,730,2058,2857,4205,951,-15.0,200,0,1,1339.421,0,0,17_07_2014 level23_spatial_Clio 14_56 log.txt,37,37,1217,72.0,5.0,2014-07-17,False,colocated,left
143,940.2603,0,730,2058,2857,4205,751,-15.0,200,0,1,940.7218,0,0,20_03_2014 level23_spatial_Clio 09_42 Block4-29.txt,37,37,1217,72.0,5.0,2014-03-20,False,colocated,left
110,1090.7303,0,730,2058,2857,4205,751,-15.0,200,0,0,1091.3604,1,0,25_06_2014 level23_spatial_Clio 09_22 Block6-11.txt,37,37,1217,72.0,5.0,2014-06-25,False,colocated,left
118,1141.8181,0,730,2058,2857,4205,701,-15.0,200,0,0,1144.5714,1,0,17_07_2014 level23_spatial_Clio 14_56 log.txt,37,37,1217,72.0,5.0,2014-07-17,False,colocated,left
73,491.751,1,730,2058,2857,4205,651,-15.0,200,0,1,492.4895,0,0,20_03_2014 level23_spatial_Clio 09_42 Block4-29.txt,37,37,1217,72.0,5.0,2014-03-20,False,colocated,left
117,1136.0919,1,730,2058,2857,4205,501,-15.0,200,0,0,1137.4436,1,0,17_07_2014 level23_spatial_Clio 14_56 log.txt,37,37,1217,72.0,5.0,2014-07-17,False,colocated,left
50,402.0975,0,730,2058,2857,4205,701,-15.0,200,0,0,402.662,1,0,17_07_2014 level23_spatial_Clio 10_01 log.txt,37,37,1217,72.0,5.0,2014-07-17,False,colocated,left
17,196.3863,0,730,2058,2857,4205,901,-15.0,200,0,1,197.3361,0,0,25_06_2014 level23_spatial_Clio 09_22 Block6-11.txt,37,37,1217,72.0,5.0,2014-06-25,False,colocated,left
141,970.0183,0,730,2058,2857,4205,901,-15.0,200,0,0,970.8043,1,0,04_04_2014 level23_spatial_Clio 14_47 Block4-52.txt,37,37,1217,72.0,5.0,2014-04-04,False,colocated,left
3,23.2329,0,730,2058,2857,4205,901,-15.0,200,0,1,23.8498,0,0,04_04_2014 level23_spatial_Clio 14_47 Block4-52.txt,37,37,1217,72.0,5.0,2014-04-04,False,colocated,left
91,889.6365,0,730,2058,2857,4205,901,-15.0,200,0,0,890.5169,1,0,07_02_2014 level23_spatial_Clio 09_53 Block4-22.txt,37,37,1217,72.0,5.0,2014-02-07,False,colocated,left
100,627.995,0,730,2058,2857,4205,651,-15.0,200,0,1,628.7659,0,0,19_03_2014 level23_spatial_Clio 09_43 Block4-27.txt,37,37,1217,72.0,5.0,2014-03-19,False,colocated,left
64,426.0558,0,730,2058,2857,4205,651,-15.0,200,0,0,427.4439,1,0,20_03_2014 level23_spatial_Clio 09_42 Block4-29.txt,37,37,1217,72.0,5.0,2014-03-20,False,colocated,left
113,846.6648,0,730,2058,2857,4205,551,-15.0,200,0,0,848.6344,1,0,26_03_2014 level23_spatial_Clio 11_05 Block4-37.txt,37,37,1217,72.0,5.0,2014-03-26,False,colocated,left
75,569.4996,0,730,2058,2857,4205,801,-15.0,200,0,0,570.117,1,0,08_05_2014 level23_spatial_Clio 10_23 Block5-27.txt,37,37,1217,72.0,5.0,2014-05-08,False,colocated,left
40,459.5296,0,730,2058,2857,4205,801,-15.0,200,0,0,460.4197,1,0,17_07_2014 level23_spatial_Clio 14_56 log.txt,37,37,1217,72.0,5.0,2014-07-17,False,colocated,left
31,274.4495,0,730,2058,2857,4205,751,-15.0,200,0,0,275.4004,1,0,17_07_2014 level23_spatial_Clio 10_01 log.txt,37,37,1217,72.0,5.0,2014-07-17,False,colocated,left
40,459.5296,0,730,2058,2857,4205,801,-15.0,200,0,0,460.4197,1,0,17_07_2014 level23_spatial_Clio 14_56 log.txt,37,37,1217,72.0,5.0,2014-07-17,False,colocated,left
90,666.9883,0,730,2058,2857,4205,701,-15.0,200,0,0,667.2984,1,0,08_05_2014 level23_spatial_Clio 10_23 Block5-27.txt,37,37,1217,72.0,5.0,2014-05-08,False,colocated,left
118,1261.6847,0,730,2058,2857,4205,951,-15.0,200,0,0,1262.0923,1,0,10_07_2014 level23_spatial_Clio 11_08 Block6-21.txt,37,37,1217,72.0,5.0,2014-07-10,False,colocated,left
31,274.4495,0,730,2058,2857,4205,751,-15.0,200,0,0,275.4004,1,0,17_07_2014 level23_spatial_Clio 10_01 log.txt,37,37,1217,72.0,5.0,2014-07-17,False,colocated,left
35,305.8322,0,730,2058,2857,4205,551,-15.0,200,0,0,306.7039,1,0,09_01_2014 level23_spatial_Clio 10_52 Block3-59.txt,37,37,1217,72.0,5.0,2014-01-09,False,colocated,left
1,5.2558,0,730,2058,2857,4205,651,-15.0,200,0,0,5.9287,1,0,09_01_2014 level23_spatial_Clio 10_52 Block3-59.txt,37,37,1217,72.0,5.0,2014-01-09,False,colocated,left
99,622.8409,0,730,2058,2857,4205,801,-15.0,200,0,0,623.57,1,0,19_03_2014 level23_spatial_Clio 09_43 Block4-27.txt,37,37,1217,72.0,5.0,2014-03-19,False,colocated,left
61,476.3709,0,730,2058,2857,4205,701,-15.0,200,0,0,476.6147,1,0,08_05_2014 level23_spatial_Clio 10_23 Block5-27.txt,37,37,1217,72.0,5.0,2014-05-08,False,colocated,left
115,1131.2452,1,730,2058,2857,4205,551,-15.0,200,0,0,1132.6408,1,0,07_02_2014 level23_spatial_Clio 09_53 Block4-22.txt,37,37,1217,72.0,5.0,2014-02-07,False,colocated,left
112,702.9444,0,730,2058,2857,4205,851,-15.0,200,0,0,707.3213,1,0,14_05_2014 level23_spatial_Clio 10_19 log.txt,37,37,1217,72.0,5.0,2014-05-14,False,colocated,left
116,864.3656,0,730,2058,2857,4205,651,-15.0,200,0,0,865.3044,1,0,26_03_2014 level23_spatial_Clio 11_05 Block4-37.txt,37,37,1217,72.0,5.0,2014-03-26,False,colocated,left
73,544.3009,0,730,2058,2857,4205,701,-15.0,200,0,0,544.8191,1,0,09_01_2014 level23_spatial_Clio 10_52 Block3-59.txt,37,37,1217,72.0,5.0,2014-01-09,False,colocated,left
162,953.5845,0,730,2058,2857,4205,851,-15.0,200,0,1,954.3487,0,0,04_04_2014 level23_spatial_Clio 09_31 Block4-51.txt,37,37,1217,72.0,5.0,2014-04-04,False,colocated,left
184,1784.7345,0,730,2058,2857,4205,751,-15.0,200,0,1,1786.8762,0,0,18_07_2014 level23_spatial_Clio 15_56 log.txt,37,37,1217,72.0,5.0,2014-07-18,False,colocated,left
108,1100.6959,0,730,2058,2857,4205,751,-15.0,200,0,0,1102.216,1,0,18_07_2014 level23_spatial_Clio 15_56 log.txt,37,37,1217,72.0,5.0,2014-07-18,False,colocated,left
90,666.9883,0,730,2058,2857,4205,701,-15.0,200,0,0,667.2984,1,0,08_05_2014 level23_spatial_Clio 10_23 Block5-27.txt,37,37,1217,72.0,5.0,2014-05-08,False,colocated,left
101,971.4618,0,730,2058,2857,4205,801,-15.0,200,0,0,972.7282,1,0,07_02_2014 level23_spatial_Clio 09_53 Block4-22.txt,37,37,1217,72.0,5.0,2014-02-07,False,colocated,left
115,758.7011,0,730,2058,2857,4205,901,-15.0,200,0,0,759.0944,1,0,29_04_2014 level23_spatial_Clio 10_03 Block5-13.txt,37,37,1217,72.0,5.0,2014-04-29,False,colocated,left
34,232.9076,0,730,2058,2857,4205,901,-15.0,200,0,0,233.3484,1,0,19_03_2014 level23_spatial_Clio 09_43 Block4-27.txt,37,37,1217,72.0,5.0,2014-03-19,False,colocated,left
118,1141.8181,0,730,2058,2857,4205,701,-15.0,200,0,0,1144.5714,1,0,17_07_2014 level23_spatial_Clio 14_56 log.txt,37,37,1217,72.0,5.0,2014-07-17,False,colocated,left
104,760.749,0,730,2058,2857,4205,951,-15.0,200,0,0,761.1457,1,0,08_05_2014 level23_spatial_Clio 10_23 Block5-27.txt,37,37,1217,72.0,5.0,2014-05-08,False,colocated,left
74,549.9475,0,730,2058,2857,4205,751,-15.0,200,0,0,550.6528,1,0,09_01_2014 level23_spatial_Clio 10_52 Block3-59.txt,37,37,1217,72.0,5.0,2014-01-09,False,colocated,left
104,760.749,0,730,2058,2857,4205,951,-15.0,200,0,0,761.1457,1,0,08_05_2014 level23_spatial_Clio 10_23 Block5-27.txt,37,37,1217,72.0,5.0,2014-05-08,False,colocated,left
71,738.4633,0,730,2058,2857,4205,551,-15.0,200,0,0,739.0332,1,0,25_06_2014 level23_spatial_Clio 09_22 Block6-11.txt,37,37,1217,72.0,5.0,2014-06-25,False,colocated,left
180,1751.4781,0,730,2058,2857,4205,551,-15.0,200,0,0,1755.0038,1,0,18_07_2014 level23_spatial_Clio 15_56 log.txt,37,37,1217,72.0,5.0,2014-07-18,False,colocated,left
99,622.8409,0,730,2058,2857,4205,801,-15.0,200,0,0,623.57,1,0,19_03_2014 level23_spatial_Clio 09_43 Block4-27.txt,37,37,1217,72.0,5.0,2014-03-19,False,colocated,left
178,1120.5514,0,730,2058,2857,4205,601,-15.0,200,0,0,1121.6099,1,0,19_03_2014 level23_spatial_Clio 09_43 Block4-27.txt,37,37,1217,72.0,5.0,2014-03-19,False,colocated,left
46,524.2598,0,730,2058,2857,4205,951,-15.0,200,0,0,526.3536,1,0,18_07_2014 level23_spatial_Clio 15_56 log.txt,37,37,1217,72.0,5.0,2014-07-18,False,colocated,left
70,671.419,0,730,2058,2857,4205,601,-15.0,200,0,0,672.5029,1,0,07_02_2014 level23_spatial_Clio 09_53 Block4-22.txt,37,37,1217,72.0,5.0,2014-02-07,False,colocated,left
13,90.9063,1,730,2058,2857,4205,751,-15.0,200,0,0,91.1469,1,0,11_06_2014 level23_spatial_Clio 14_47 Block5-67.txt,37,37,1217,72.0,5.0,2014-06-11,False,colocated,left
116,864.3656,0,730,2058,2857,4205,651,-15.0,200,0,0,865.3044,1,0,26_03_2014 level23_spatial_Clio 11_05 Block4-37.txt,37,37,1217,72.0,5.0,2014-03-26,False,colocated,left
32,348.6027,0,730,2058,2857,4205,1001,-15.0,200,0,0,349.3492,1,0,25_06_2014 level23_spatial_Clio 09_22 Block6-11.txt,37,37,1217,72.0,5.0,2014-06-25,False,colocated,left
127,1280.9023,0,730,2058,2857,4205,751,-15.0,200,0,0,1281.6187,1,0,18_07_2014 level23_spatial_Clio 15_56 log.txt,37,37,1217,72.0,5.0,2014-07-18,False,colocated,left
141,970.0183,0,730,2058,2857,4205,901,-15.0,200,0,0,970.8043,1,0,04_04_2014 level23_spatial_Clio 14_47 Block4-52.txt,37,37,1217,72.0,5.0,2014-04-04,False,colocated,left
158,1009.0297,0,730,2058,2857,4205,751,-15.0,200,0,0,1009.9964,1,0,19_03_2014 level23_spatial_Clio 09_43 Block4-27.txt,37,37,1217,72.0,5.0,2014-03-19,False,colocated,left
122,852.3804,0,730,2058,2857,4205,701,-15.0,200,0,0,853.0715,1,0,09_01_2014 level23_spatial_Clio 10_52 Block3-59.txt,37,37,1217,72.0,5.0,2014-01-09,False,colocated,left
115,758.7011,0,730,2058,2857,4205,901,-15.0,200,0,0,759.0944,1,0,29_04_2014 level23_spatial_Clio 10_03 Block5-13.txt,37,37,1217,72.0,5.0,2014-04-29,False,colocated,left
97,702.2953,0,730,2058,2857,4205,801,-15.0,200,0,0,702.8777,1,0,04_04_2014 level23_spatial_Clio 14_47 Block4-52.txt,37,37,1217,72.0,5.0,2014-04-04,False,colocated,left
55,589.0955,0,730,2058,2857,4205,501,-15.0,200,0,0,589.4292,1,0,25_06_2014 level23_spatial_Clio 09_22 Block6-11.txt,37,37,1217,72.0,5.0,2014-06-25,False,colocated,left
20,169.7434,0,730,2058,2857,4205,701,-15.0,200,0,1,172.1748,0,0,26_03_2014 level23_spatial_Clio 11_05 Block4-37.txt,37,37,1217,72.0,5.0,2014-03-26,False,colocated,left
57,447.1609,0,730,2058,2857,4205,801,-15.0,200,0,0,447.8448,1,0,09_01_2014 level23_spatial_Clio 10_52 Block3-59.txt,37,37,1217,72.0,5.0,2014-01-09,False,colocated,left
97,702.2953,0,730,2058,2857,4205,801,-15.0,200,0,0,702.8777,1,0,04_04_2014 level23_spatial_Clio 14_47 Block4-52.txt,37,37,1217,72.0,5.0,2014-04-04,False,colocated,left
162,953.5845,0,730,2058,2857,4205,851,-15.0,200,0,1,954.3487,0,0,04_04_2014 level23_spatial_Clio 09_31 Block4-51.txt,37,37,1217,72.0,5.0,2014-04-04,False,colocated,left
31,249.822,0,730,2058,2857,4205,701,-15.0,200,0,0,250.0439,1,0,14_05_2014 level23_spatial_Clio 10_19 log.txt,37,37,1217,72.0,5.0,2014-05-14,False,colocated,left
162,953.5845,0,730,2058,2857,4205,851,-15.0,200,0,1,954.3487,0,0,04_04_2014 level23_spatial_Clio 09_31 Block4-51.txt,37,37,1217,72.0,5.0,2014-04-04,False,colocated,left
72,491.4992,0,730,2058,2857,4205,751,-15.0,200,0,0,492.0614,1,0,29_04_2014 level23_spatial_Clio 10_03 Block5-13.txt,37,37,1217,72.0,5.0,2014-04-29,False,colocated,left
26,189.856,0,730,2058,2857,4205,1001,-15.0,200,0,0,190.1856,1,0,20_03_2014 level23_spatial_Clio 09_42 Block4-29.txt,37,37,1217,72.0,5.0,2014-03-20,False,colocated,left
35,279.6469,0,730,2058,2857,4205,951,-15.0,200,0,0,280.295,1,0,08_05_2014 level23_spatial_Clio 10_23 Block5-27.txt,37,37,1217,72.0,5.0,2014-05-08,False,colocated,left
49,357.0582,0,730,2058,2857,4205,501,-15.0,200,0,0,357.3791,1,0,14_05_2014 level23_spatial_Clio 10_19 log.txt,37,37,1217,72.0,5.0,2014-05-14,False,colocated,left
62,602.9738,0,730,2058,2857,4205,901,-15.0,200,0,0,603.9287,1,0,07_02_2014 level23_spatial_Clio 09_53 Block4-22.txt,37,37,1217,72.0,5.0,2014-02-07,False,colocated,left
50,402.0975,0,730,2058,2857,4205,701,-15.0,200,0,0,402.662,1,0,17_07_2014 level23_spatial_Clio 10_01 log.txt,37,37,1217,72.0,5.0,2014-07-17,False,colocated,left
178,1120.5514,0,730,2058,2857,4205,601,-15.0,200,0,0,1121.6099,1,0,19_03_2014 level23_spatial_Clio 09_43 Block4-27.txt,37,37,1217,72.0,5.0,2014-03-19,False,colocated,left
178,1120.5514,0,730,2058,2857,4205,601,-15.0,200,0,0,1121.6099,1,0,19_03_2014 level23_spatial_Clio 09_43 Block4-27.txt,37,37,1217,72.0,5.0,2014-03-19,False,colocated,left
158,1009.0297,0,730,2058,2857,4205,751,-15.0,200,0,0,1009.9964,1,0,19_03_2014 level23_spatial_Clio 09_43 Block4-27.txt,37,37,1217,72.0,5.0,2014-03-19,False,colocated,left
120,787.4874,0,730,2058,2857,4205,801,-15.0,200,0,1,789.5598,0,0,29_04_2014 level23_spatial_Clio 10_03 Block5-13.txt,37,37,1217,72.0,5.0,2014-04-29,False,colocated,left
116,864.3656,0,730,2058,2857,4205,651,-15.0,200,0,0,865.3044,1,0,26_03_2014 level23_spatial_Clio 11_05 Block4-37.txt,37,37,1217,72.0,5.0,2014-03-26,False,colocated,left
61,705.6743,0,730,2058,2857,4205,551,-15.0,200,0,0,707.4056,1,0,10_07_2014 level23_spatial_Clio 11_08 Block6-21.txt,37,37,1217,72.0,5.0,2014-07-10,False,colocated,left
26,243.4126,0,730,2058,2857,4205,851,-15.0,200,0,0,244.0916,1,0,18_07_2014 level23_spatial_Clio 10_14 log.txt,37,37,1217,72.0,5.0,2014-07-18,False,colocated,left
88,910.6595,0,730,2058,2857,4205,601,-15.0,200,0,0,911.0987,1,0,25_06_2014 level23_spatial_Clio 09_22 Block6-11.txt,37,37,1217,72.0,5.0,2014-06-25,False,colocated,left
81,479.3038,0,460,1105,2857,4205,601,-15.0,200,1,1,479.6211,1,1,11_06_2014 level23_spatial_Clio 14_47 Block5-67.txt,37,37,1217,72.0,5.0,2014-06-11,False,colocated,right
151,1034.6496,0,460,1105,2857,4205,901,-15.0,200,1,1,1034.8985,1,1,09_01_2014 level23_spatial_Clio 10_52 Block3-59.txt,37,37,1217,72.0,5.0,2014-01-09,False,colocated,right
35,214.3518,0,460,1105,2857,4205,551,-15.0,200,1,1,214.9159,1,1,11_06_2014 level23_spatial_Clio 14_47 Block5-67.txt,37,37,1217,72.0,5.0,2014-06-11,False,colocated,right
120,1276.9988,0,460,1105,2857,4205,601,-15.0,200,1,1,1277.4931,1,1,10_07_2014 level23_spatial_Clio 11_08 Block6-21.txt,37,37,1217,72.0,5.0,2014-07-10,False,colocated,right
71,752.5,0,460,1105,2857,4205,851,-15.0,200,1,1,752.9973,1,1,18_07_2014 level23_spatial_Clio 15_56 log.txt,37,37,1217,72.0,5.0,2014-07-18,False,colocated,right
64,445.5134,0,460,1105,2857,4205,901,-15.0,200,1,1,445.853,1,1,29_04_2014 level23_spatial_Clio 10_03 Block5-13.txt,37,37,1217,72.0,5.0,2014-04-29,False,colocated,right
17,210.2002,0,460,1105,2857,4205,751,-15.0,200,1,0,213.3513,0,1,18_07_2014 level23_spatial_Clio 15_56 log.txt,37,37,1217,72.0,5.0,2014-07-18,False,colocated,right
139,944.7343,1,460,1105,2857,4205,651,-15.0,200,1,1,950.0747,1,1,04_04_2014 level23_spatial_Clio 14_47 Block4-52.txt,37,37,1217,72.0,5.0,2014-04-04,False,colocated,right
71,752.5,0,460,1105,2857,4205,851,-15.0,200,1,1,752.9973,1,1,18_07_2014 level23_spatial_Clio 15_56 log.txt,37,37,1217,72.0,5.0,2014-07-18,False,colocated,right
23,180.4752,0,460,1105,2857,4205,851,-15.0,200,1,1,183.077,1,1,08_05_2014 level23_spatial_Clio 10_23 Block5-27.txt,37,37,1217,72.0,5.0,2014-05-08,False,colocated,right
120,1276.9988,0,460,1105,2857,4205,601,-15.0,200,1,1,1277.4931,1,1,10_07_2014 level23_spatial_Clio 11_08 Block6-21.txt,37,37,1217,72.0,5.0,2014-07-10,False,colocated,right
88,572.1895,0,460,1105,2857,4205,601,-15.0,200,1,1,572.8133,1,1,14_05_2014 level23_spatial_Clio 10_19 log.txt,37,37,1217,72.0,5.0,2014-05-14,False,colocated,right
159,1014.0347,0,460,1105,2857,4205,651,-15.0,200,1,1,1014.7475,1,1,19_03_2014 level23_spatial_Clio 09_43 Block4-27.txt,37,37,1217,72.0,5.0,2014-03-19,False,colocated,right
35,403.0556,0,460,1105,2857,4205,701,-15.0,200,1,1,403.4019,1,1,17_07_2014 level23_spatial_Clio 14_56 log.txt,37,37,1217,72.0,5.0,2014-07-17,False,colocated,right
70,473.9322,0,460,1105,2857,4205,501,-15.0,200,1,1,474.5572,1,1,14_05_2014 level23_spatial_Clio 10_19 log.txt,37,37,1217,72.0,5.0,2014-05-14,False,colocated,right
125,824.8364,0,460,1105,2857,4205,851,-15.0,200,1,1,825.4854,1,1,20_03_2014 level23_spatial_Clio 09_42 Block4-29.txt,37,37,1217,72.0,5.0,2014-03-20,False,colocated,right
56,663.2054,0,460,1105,2857,4205,701,-15.0,200,1,0,664.5204,0,1,10_07_2014 level23_spatial_Clio 11_08 Block6-21.txt,37,37,1217,72.0,5.0,2014-07-10,False,colocated,right
34,232.8219,0,460,1105,2857,4205,801,-15.0,200,1,0,233.2356,0,1,20_03_2014 level23_spatial_Clio 09_42 Block4-29.txt,37,37,1217,72.0,5.0,2014-03-20,False,colocated,right
156,1548.4282,0,460,1105,2857,4205,601,-15.0,200,1,1,1548.7569,1,1,10_07_2014 level23_spatial_Clio 11_08 Block6-21.txt,37,37,1217,72.0,5.0,2014-07-10,False,colocated,right
125,1270.0335,0,460,1105,2857,4205,601,-15.0,200,1,1,1270.4167,1,1,18_07_2014 level23_spatial_Clio 15_56 log.txt,37,37,1217,72.0,5.0,2014-07-18,False,colocated,right
115,713.0968,0,460,1105,2857,4205,951,-15.0,200,1,1,713.5442,1,1,19_03_2014 level23_spatial_Clio 09_43 Block4-27.txt,37,37,1217,72.0,5.0,2014-03-19,False,colocated,right
40,500.803,1,460,1105,2857,4205,751,-15.0,200,1,1,501.3099,1,1,10_07_2014 level23_spatial_Clio 11_08 Block6-21.txt,37,37,1217,72.0,5.0,2014-07-10,False,colocated,right
35,345.2272,1,460,1105,2857,4205,1001,-15.0,200,1,0,346.3848,0,1,07_02_2014 level23_spatial_Clio 09_53 Block4-22.txt,37,37,1217,72.0,5.0,2014-02-07,False,colocated,right
105,778.6711,0,460,1105,2857,4205,1001,-15.0,200,1,1,779.0251,1,1,08_05_2014 level23_spatial_Clio 10_23 Block5-27.txt,37,37,1217,72.0,5.0,2014-05-08,False,colocated,right
50,340.1899,0,460,1105,2857,4205,751,-15.0,200,1,1,340.5742,1,1,20_03_2014 level23_spatial_Clio 09_42 Block4-29.txt,37,37,1217,72.0,5.0,2014-03-20,False,colocated,right
101,1027.7751,0,460,1105,2857,4205,501,-15.0,200,1,1,1028.1851,1,1,18_07_2014 level23_spatial_Clio 15_56 log.txt,37,37,1217,72.0,5.0,2014-07-18,False,colocated,right
129,1347.4582,0,460,1105,2857,4205,1001,-15.0,200,1,0,1349.4001,0,1,10_07_2014 level23_spatial_Clio 11_08 Block6-21.txt,37,37,1217,72.0,5.0,2014-07-10,False,colocated,right
128,737.0814,0,460,1105,2857,4205,501,-15.0,200,1,0,737.6078,0,1,04_04_2014 level23_spatial_Clio 09_31 Block4-51.txt,37,37,1217,72.0,5.0,2014-04-04,False,colocated,right
34,321.9778,0,460,1105,2857,4205,651,-15.0,200,1,1,322.6085,1,1,18_07_2014 level23_spatial_Clio 10_14 log.txt,37,37,1217,72.0,5.0,2014-07-18,False,colocated,right
42,287.8919,0,460,1105,2857,4205,901,-15.0,200,1,1,288.2814,1,1,04_04_2014 level23_spatial_Clio 09_31 Block4-51.txt,37,37,1217,72.0,5.0,2014-04-04,False,colocated,right
40,500.803,1,460,1105,2857,4205,751,-15.0,200,1,1,501.3099,1,1,10_07_2014 level23_spatial_Clio 11_08 Block6-21.txt,37,37,1217,72.0,5.0,2014-07-10,False,colocated,right
42,433.0676,0,460,1105,2857,4205,801,-15.0,200,1,1,433.3699,1,1,25_06_2014 level23_spatial_Clio 09_22 Block6-11.txt,37,37,1217,72.0,5.0,2014-06-25,False,colocated,right
40,500.803,1,460,1105,2857,4205,751,-15.0,200,1,1,501.3099,1,1,10_07_2014 level23_spatial_Clio 11_08 Block6-21.txt,37,37,1217,72.0,5.0,2014-07-10,False,colocated,right
77,742.2687,0,460,1105,2857,4205,801,-15.0,200,1,1,742.6611,1,1,07_02_2014 level23_spatial_Clio 09_53 Block4-22.txt,37,37,1217,72.0,5.0,2014-02-07,False,colocated,right
134,774.7586,0,460,1105,2857,4205,1001,-15.0,200,1,1,775.1741,1,1,04_04_2014 level23_spatial_Clio 09_31 Block4-51.txt,37,37,1217,72.0,5.0,2014-04-04,False,colocated,right
62,517.6282,0,460,1105,2857,4205,751,-15.0,200,1,1,520.144,1,1,26_03_2014 level23_spatial_Clio 11_05 Block4-37.txt,37,37,1217,72.0,5.0,2014-03-26,False,colocated,right
90,688.5251,0,460,1105,2857,4205,651,-15.0,200,1,1,689.0122,1,1,17_07_2014 level23_spatial_Clio 10_01 log.txt,37,37,1217,72.0,5.0,2014-07-17,False,colocated,right
62,517.6282,0,460,1105,2857,4205,751,-15.0,200,1,1,520.144,1,1,26_03_2014 level23_spatial_Clio 11_05 Block4-37.txt,37,37,1217,72.0,5.0,2014-03-26,False,colocated,right
85,611.328,1,460,1105,2857,4205,1001,-15.0,200,1,0,616.8964,0,1,04_04_2014 level23_spatial_Clio 14_47 Block4-52.txt,37,37,1217,72.0,5.0,2014-04-04,False,colocated,right
12,94.1345,0,460,1105,2857,4205,1001,-15.0,200,1,1,94.4734,1,1,08_05_2014 level23_spatial_Clio 10_23 Block5-27.txt,37,37,1217,72.0,5.0,2014-05-08,False,colocated,right
116,818.5358,0,460,1105,2857,4205,651,-15.0,200,1,0,825.2303,0,1,09_01_2014 level23_spatial_Clio 10_52 Block3-59.txt,37,37,1217,72.0,5.0,2014-01-09,False,colocated,right
13,96.1764,0,460,1105,2857,4205,551,-15.0,200,1,0,96.6721,0,1,19_03_2014 level23_spatial_Clio 09_43 Block4-27.txt,37,37,1217,72.0,5.0,2014-03-19,False,colocated,right
7,49.8156,0,460,1105,2857,4205,651,-15.0,200,1,0,53.9322,0,1,04_04_2014 level23_spatial_Clio 14_47 Block4-52.txt,37,37,1217,72.0,5.0,2014-04-04,False,colocated,right
35,214.3518,0,460,1105,2857,4205,551,-15.0,200,1,1,214.9159,1,1,11_06_2014 level23_spatial_Clio 14_47 Block5-67.txt,37,37,1217,72.0,5.0,2014-06-11,False,colocated,right
42,287.8919,0,460,1105,2857,4205,901,-15.0,200,1,1,288.2814,1,1,04_04_2014 level23_spatial_Clio 09_31 Block4-51.txt,37,37,1217,72.0,5.0,2014-04-04,False,colocated,right
13,197.0657,0,460,1105,2857,4205,1001,-15.0,200,1,0,197.9684,0,1,10_07_2014 level23_spatial_Clio 11_08 Block6-21.txt,37,37,1217,72.0,5.0,2014-07-10,False,colocated,right
42,287.8919,0,460,1105,2857,4205,901,-15.0,200,1,1,288.2814,1,1,04_04_2014 level23_spatial_Clio 09_31 Block4-51.txt,37,37,1217,72.0,5.0,2014-04-04,False,colocated,right
23,227.9541,0,460,1105,2857,4205,901,-15.0,200,1,1,228.524,1,1,17_07_2014 level23_spatial_Clio 10_01 log.txt,37,37,1217,72.0,5.0,2014-07-17,False,colocated,right
29,194.1742,0,460,1105,2857,4205,801,-15.0,200,1,1,194.4999,1,1,29_04_2014 level23_spatial_Clio 10_03 Block5-13.txt,37,37,1217,72.0,5.0,2014-04-29,False,colocated,right
151,1034.6496,0,460,1105,2857,4205,901,-15.0,200,1,1,1034.8985,1,1,09_01_2014 level23_spatial_Clio 10_52 Block3-59.txt,37,37,1217,72.0,5.0,2014-01-09,False,colocated,right
63,614.6612,0,460,1105,2857,4205,951,-15.0,200,1,1,615.107,1,1,07_02_2014 level23_spatial_Clio 09_53 Block4-22.txt,37,37,1217,72.0,5.0,2014-02-07,False,colocated,right
82,627.983,1,460,1105,2857,4205,651,-15.0,200,1,1,628.4748,1,1,17_07_2014 level23_spatial_Clio 10_01 log.txt,37,37,1217,72.0,5.0,2014-07-17,False,colocated,right
55,438.8123,0,460,1105,2857,4205,601,-15.0,200,1,1,439.111,1,1,08_05_2014 level23_spatial_Clio 10_23 Block5-27.txt,37,37,1217,72.0,5.0,2014-05-08,False,colocated,right
122,1191.7685,0,460,1105,2857,4205,601,-15.0,200,1,1,1192.1807,1,1,25_06_2014 level23_spatial_Clio 09_22 Block6-11.txt,37,37,1217,72.0,5.0,2014-06-25,False,colocated,right
52,423.6561,1,460,1105,2857,4205,901,-15.0,200,1,1,424.0338,1,1,08_05_2014 level23_spatial_Clio 10_23 Block5-27.txt,37,37,1217,72.0,5.0,2014-05-08,False,colocated,right
121,1231.0378,0,460,1105,2857,4205,751,-15.0,200,1,1,1234.598,1,1,07_02_2014 level23_spatial_Clio 09_53 Block4-22.txt,37,37,1217,72.0,5.0,2014-02-07,False,colocated,right
83,805.6351,0,460,1105,2857,4205,1001,-15.0,200,1,1,806.1466,1,1,07_02_2014 level23_spatial_Clio 09_53 Block4-22.txt,37,37,1217,72.0,5.0,2014-02-07,False,colocated,right
97,569.7713,0,460,1105,2857,4205,601,-15.0,200,1,1,570.1356,1,1,04_04_2014 level23_spatial_Clio 09_31 Block4-51.txt,37,37,1217,72.0,5.0,2014-04-04,False,colocated,right
114,1127.4373,0,460,1105,2857,4205,851,-15.0,200,1,1,1127.8708,1,1,25_06_2014 level23_spatial_Clio 09_22 Block6-11.txt,37,37,1217,72.0,5.0,2014-06-25,False,colocated,right
34,232.8219,0,460,1105,2857,4205,801,-15.0,200,1,0,233.2356,0,1,20_03_2014 level23_spatial_Clio 09_42 Block4-29.txt,37,37,1217,72.0,5.0,2014-03-20,False,colocated,right
43,493.0301,0,460,1105,2857,4205,851,-15.0,200,1,1,493.8608,1,1,17_07_2014 level23_spatial_Clio 14_56 log.txt,37,37,1217,72.0,5.0,2014-07-17,False,colocated,right
58,554.861,0,460,1105,2857,4205,901,-15.0,200,1,1,555.286,1,1,18_07_2014 level23_spatial_Clio 10_14 log.txt,37,37,1217,72.0,5.0,2014-07-18,False,colocated,right
27,241.3347,0,460,1105,2857,4205,901,-15.0,200,1,1,241.5721,1,1,26_03_2014 level23_spatial_Clio 11_05 Block4-37.txt,37,37,1217,72.0,5.0,2014-03-26,False,colocated,right
8,52.8744,0,460,1105,2857,4205,951,-15.0,200,1,1,53.4333,1,1,19_03_2014 level23_spatial_Clio 09_43 Block4-27.txt,37,37,1217,72.0,5.0,2014-03-19,False,colocated,right
145,989.174,0,460,1105,2857,4205,851,-15.0,200,1,1,989.8566,1,1,04_04_2014 level23_spatial_Clio 14_47 Block4-52.txt,37,37,1217,72.0,5.0,2014-04-04,False,colocated,right
17,210.2002,0,460,1105,2857,4205,751,-15.0,200,1,0,213.3513,0,1,18_07_2014 level23_spatial_Clio 15_56 log.txt,37,37,1217,72.0,5.0,2014-07-18,False,colocated,right
49,329.996,0,460,1105,2857,4205,851,-15.0,200,1,1,335.5482,1,1,20_03_2014 level23_spatial_Clio 09_42 Block4-29.txt,37,37,1217,72.0,5.0,2014-03-20,False,colocated,right
38,316.6462,0,460,1105,2857,4205,951,-15.0,200,1,1,316.979,1,1,17_07_2014 level23_spatial_Clio 10_01 log.txt,37,37,1217,72.0,5.0,2014-07-17,False,colocated,right
97,569.7713,0,460,1105,2857,4205,601,-15.0,200,1,1,570.1356,1,1,04_04_2014 level23_spatial_Clio 09_31 Block4-51.txt,37,37,1217,72.0,5.0,2014-04-04,False,colocated,right
203,1369.7819,1,460,1105,2857,4205,801,-15.0,200,1,0,1372.2133,0,1,04_04_2014 level23_spatial_Clio 14_47 Block4-52.txt,37,37,1217,72.0,5.0,2014-04-04,False,colocated,right
141,930.6373,0,460,1105,2857,4205,851,-15.0,200,1,1,931.0883,1,1,20_03_2014 level23_spatial_Clio 09_42 Block4-29.txt,37,37,1217,72.0,5.0,2014-03-20,False,colocated,right
17,210.2002,0,460,1105,2857,4205,751,-15.0,200,1,0,213.3513,0,1,18_07_2014 level23_spatial_Clio 15_56 log.txt,37,37,1217,72.0,5.0,2014-07-18,False,colocated,right
17,139.8688,0,460,1105,2857,4205,801,-15.0,200,1,1,140.0538,1,1,08_05_2014 level23_spatial_Clio 10_23 Block5-27.txt,37,37,1217,72.0,5.0,2014-05-08,False,colocated,right
154,1073.8848,0,460,1105,2857,4205,551,-15.0,200,1,1,1074.3005,1,1,09_01_2014 level23_spatial_Clio 10_52 Block3-59.txt,37,37,1217,72.0,5.0,2014-01-09,False,colocated,right
136,1343.7452,1,460,1105,2857,4205,501,-15.0,200,1,1,1347.1664,1,1,18_07_2014 level23_spatial_Clio 15_56 log.txt,37,37,1217,72.0,5.0,2014-07-18,False,colocated,right
