Trial,StartTime,CenterReward,F1,F2,F3,F4,HoldTime,Atten,Pitch,Side,Response,RespTime,Correct,SpatialMask,SpatialCondition,originalFile,LeftTemperature,RightTemperature,fNum,vowel_level,SNR,day,treatment,VowelLocation
48,250.078,0,437,2761,2975,4263,506,-6.0,200,0,0,251.2367,1,0,colocated,08_07_2014 level23_spatial_Mini 17_43 log.txt,37,37,1216,63.0,-4.0,2014-07-08,False,left
44,1119.5809,0,437,2761,2975,4263,510,-6.0,200,0,0,1121.5944,1,0,colocated,25_04_2014 level23_spatial_Mini 10_51 log.txt,37,37,1216,63.0,-4.0,2014-04-25,False,left
48,282.5879,0,437,2761,2975,4263,504,-6.0,200,0,1,283.5942,0,0,colocated,14_03_2014 level23_spatial_Mini 15_38 log.txt,37,37,1216,63.0,-4.0,2014-03-14,False,left
44,1119.5809,0,437,2761,2975,4263,510,-6.0,200,0,0,1121.5944,1,0,colocated,25_04_2014 level23_spatial_Mini 10_51 log.txt,37,37,1216,63.0,-4.0,2014-04-25,False,left
98,1023.35,0,437,2761,2975,4263,508,-6.0,200,0,1,1024.3827,0,0,colocated,23_04_2014 level23_spatial_Mini 11_32 log.txt,37,37,1216,63.0,-4.0,2014-04-23,False,left
113,549.648,0,437,2761,2975,4263,504,-6.0,200,0,1,550.4182,0,0,colocated,13_03_2014 level23_spatial_Mini 16_17 log.txt,37,37,1216,63.0,-4.0,2014-03-13,False,left
80,851.3589,1,437,2761,2975,4263,510,-6.0,200,0,0,855.3221,1,0,colocated,20_12_2013 level23_spatial_Mini 09_02 log.txt,37,37,1216,63.0,-4.0,2013-12-20,False,left
1,67.8352,0,437,2761,2975,4263,511,-6.0,200,0,0,68.1849,1,0,colocated,20_11_2014 level23_spatial_Mini 14_10 log.txt,37,37,1216,63.0,-4.0,2014-11-20,False,left
1,26.9426,1,437,2761,2975,4263,503,-6.0,200,0,1,27.3298,0,0,colocated,04_02_2014 level23_spatial_Mini 10_44 log.txt,37,37,1216,63.0,-4.0,2014-02-04,False,left
113,549.648,0,437,2761,2975,4263,504,-6.0,200,0,1,550.4182,0,0,colocated,13_03_2014 level23_spatial_Mini 16_17 log.txt,37,37,1216,63.0,-4.0,2014-03-13,False,left
25,144.9273,1,437,2761,2975,4263,511,-6.0,200,0,0,147.3304,1,0,colocated,17_11_2014 level23_spatial_Mini 15_46 log.txt,37,37,1216,63.0,-4.0,2014-11-17,False,left
72,507.7833,1,437,2761,2975,4263,508,-6.0,200,0,1,510.6588,0,0,colocated,10_04_2014 level23_spatial_Mini 14_53 log.txt,37,37,1216,63.0,-4.0,2014-04-10,False,left
48,282.5879,0,437,2761,2975,4263,504,-6.0,200,0,1,283.5942,0,0,colocated,14_03_2014 level23_spatial_Mini 15_38 log.txt,37,37,1216,63.0,-4.0,2014-03-14,False,left
81,464.1126,0,437,2761,2975,4263,501,-6.0,200,0,1,465.0652,0,0,colocated,11_03_2014 level23_spatial_Mini 17_07 log.txt,37,37,1216,63.0,-4.0,2014-03-11,False,left
50,281.1638,0,437,2761,2975,4263,504,-6.0,200,0,0,282.4815,1,0,colocated,10_07_2014 level23_spatial_Mini 14_03 log.txt,37,37,1216,63.0,-4.0,2014-07-10,False,left
59,381.9202,1,437,2761,2975,4263,511,-6.0,200,0,0,383.4711,1,0,colocated,31_10_2014 level23_spatial_Mini 14_15 log.txt,37,37,1216,63.0,-4.0,2014-10-31,False,left
59,381.9202,1,437,2761,2975,4263,511,-6.0,200,0,0,383.4711,1,0,colocated,31_10_2014 level23_spatial_Mini 14_15 log.txt,37,37,1216,63.0,-4.0,2014-10-31,False,left
57,389.8074,1,437,2761,2975,4263,510,-6.0,200,0,1,390.6729,0,0,colocated,23_04_2014 level23_spatial_Mini 15_38 log.txt,37,37,1216,63.0,-4.0,2014-04-23,False,left
53,565.5678,0,437,2761,2975,4263,507,-6.0,200,0,1,566.613,0,0,colocated,13_12_2013 level23_spatial_Mini 09_07 log.txt,37,37,1216,63.0,-4.0,2013-12-13,False,left
25,144.9273,1,437,2761,2975,4263,511,-6.0,200,0,0,147.3304,1,0,colocated,17_11_2014 level23_spatial_Mini 15_46 log.txt,37,37,1216,63.0,-4.0,2014-11-17,False,left
83,467.3301,0,437,2761,2975,4263,501,-6.0,200,0,0,468.5515,1,0,colocated,31_10_2014 level23_spatial_Mini 08_56 log.txt,37,37,1216,63.0,-4.0,2014-10-31,False,left
53,565.5678,0,437,2761,2975,4263,507,-6.0,200,0,1,566.613,0,0,colocated,13_12_2013 level23_spatial_Mini 09_07 log.txt,37,37,1216,63.0,-4.0,2013-12-13,False,left
96,834.1946,0,437,2761,2975,4263,502,-6.0,200,0,1,835.3364,0,0,colocated,08_08_2014 level23_spatial_Mini 15_09 log.txt,37,37,1216,63.0,-4.0,2014-08-08,False,left
83,467.3301,0,437,2761,2975,4263,501,-6.0,200,0,0,468.5515,1,0,colocated,31_10_2014 level23_spatial_Mini 08_56 log.txt,37,37,1216,63.0,-4.0,2014-10-31,False,left
36,365.6912,0,437,2761,2975,4263,505,-6.0,200,0,1,366.6332,0,0,colocated,09_04_2014 level23_spatial_Mini 13_52 log.txt,37,37,1216,63.0,-4.0,2014-04-09,False,left
4,27.2907,1,437,2761,2975,4263,510,-6.0,200,0,1,29.0586,0,0,colocated,11_03_2014 level23_spatial_Mini 10_12 log.txt,37,37,1216,63.0,-4.0,2014-03-11,False,left
88,573.7257,1,437,2761,2975,4263,509,-6.0,200,0,0,589.0338,1,0,colocated,09_04_2014 level23_spatial_Mini 09_15 log.txt,37,37,1216,63.0,-4.0,2014-04-09,False,left
39,269.4044,0,437,2761,2975,4263,509,-6.0,200,0,1,270.154,0,0,colocated,14_03_2014 level23_spatial_Mini 10_20 log.txt,37,37,1216,63.0,-4.0,2014-03-14,False,left
84,555.2214,1,437,2761,2975,4263,503,-6.0,200,0,0,557.9121,1,0,colocated,04_02_2014 level23_spatial_Mini 10_44 log.txt,37,37,1216,63.0,-4.0,2014-02-04,False,left
24,583.8365,0,936,1551,2975,4263,502,-6.0,200,1,1,584.2655,1,0,colocated,23_04_2014 level23_spatial_Mini 11_32 log.txt,37,37,1216,63.0,-4.0,2014-04-23,False,left
95,533.8189,1,936,1551,2975,4263,507,-6.0,200,1,1,536.194,1,0,colocated,31_10_2014 level23_spatial_Mini 08_56 log.txt,37,37,1216,63.0,-4.0,2014-10-31,False,left
74,599.4707,1,936,1551,2975,4263,511,-6.0,200,1,1,600.4013,1,0,colocated,17_11_2014 level23_spatial_Mini 10_07 log.txt,37,37,1216,63.0,-4.0,2014-11-17,False,left
34,210.5632,0,936,1551,2975,4263,501,-6.0,200,1,1,212.0523,1,0,colocated,31_10_2014 level23_spatial_Mini 08_56 log.txt,37,37,1216,63.0,-4.0,2014-10-31,False,left
33,178.0581,1,936,1551,2975,4263,502,-6.0,200,1,0,179.7979,0,0,colocated,30_10_2014 level23_spatial_Mini 08_01 log.txt,37,37,1216,63.0,-4.0,2014-10-30,False,left
67,380.1675,0,936,1551,2975,4263,501,-6.0,200,1,0,381.4882,0,0,colocated,09_07_2014 level23_spatial_Mini 14_31 log.txt,37,37,1216,63.0,-4.0,2014-07-09,False,left
90,590.6024,0,936,1551,2975,4263,509,-6.0,200,1,1,591.5316,1,0,colocated,11_03_2014 level23_spatial_Mini 10_12 log.txt,37,37,1216,63.0,-4.0,2014-03-11,False,left
74,599.4707,1,936,1551,2975,4263,511,-6.0,200,1,1,600.4013,1,0,colocated,17_11_2014 level23_spatial_Mini 10_07 log.txt,37,37,1216,63.0,-4.0,2014-11-17,False,left
34,210.5632,0,936,1551,2975,4263,501,-6.0,200,1,1,212.0523,1,0,colocated,31_10_2014 level23_spatial_Mini 08_56 log.txt,37,37,1216,63.0,-4.0,2014-10-31,False,left
35,282.2881,0,936,1551,2975,4263,501,-6.0,200,1,1,286.1888,1,0,colocated,13_03_2014 level23_spatial_Mini 08_35 log.txt,37,37,1216,63.0,-4.0,2014-03-13,False,left
34,385.1441,0,936,1551,2975,4263,505,-6.0,200,1,0,390.4969,0,0,colocated,13_12_2013 level23_spatial_Mini 09_07 log.txt,37,37,1216,63.0,-4.0,2013-12-13,False,left
29,1212.0326,0,936,1551,2975,4263,502,-6.0,200,1,1,1212.9184,1,0,colocated,24_04_2014 level23_spatial_Mini 14_13 log.txt,37,37,1216,63.0,-4.0,2014-04-24,False,left
74,762.2504,0,936,1551,2975,4263,507,-6.0,200,1,1,763.45,1,0,colocated,13_12_2013 level23_spatial_Mini 09_07 log.txt,37,37,1216,63.0,-4.0,2013-12-13,False,left
18,139.5336,1,936,1551,2975,4263,511,-6.0,200,1,0,142.2633,0,0,colocated,14_03_2014 level23_spatial_Mini 10_20 log.txt,37,37,1216,63.0,-4.0,2014-03-14,False,left
4,26.949,1,936,1551,2975,4263,502,-6.0,200,1,1,29.228,1,0,colocated,10_07_2014 level23_spatial_Mini 14_03 log.txt,37,37,1216,63.0,-4.0,2014-07-10,False,left
150,1334.6921,0,936,1551,2975,4263,508,-6.0,200,1,1,1335.6803,1,0,colocated,23_04_2014 level23_spatial_Mini 11_32 log.txt,37,37,1216,63.0,-4.0,2014-04-23,False,left
35,1068.3881,0,936,1551,2975,4263,511,-6.0,200,1,1,1068.7326,1,0,colocated,25_04_2014 level23_spatial_Mini 10_51 log.txt,37,37,1216,63.0,-4.0,2014-04-25,False,left
90,590.6024,0,936,1551,2975,4263,509,-6.0,200,1,1,591.5316,1,0,colocated,11_03_2014 level23_spatial_Mini 10_12 log.txt,37,37,1216,63.0,-4.0,2014-03-11,False,left
34,357.716,1,936,1551,2975,4263,507,-6.0,200,1,1,358.6184,1,0,colocated,19_11_2014 level23_spatial_Mini 13_54 log.txt,37,37,1216,63.0,-4.0,2014-11-19,False,left
51,317.4807,0,936,1551,2975,4263,501,-6.0,200,1,1,318.5307,1,0,colocated,09_04_2014 level23_spatial_Mini 09_15 log.txt,37,37,1216,63.0,-4.0,2014-04-09,False,left
51,317.4807,0,936,1551,2975,4263,501,-6.0,200,1,1,318.5307,1,0,colocated,09_04_2014 level23_spatial_Mini 09_15 log.txt,37,37,1216,63.0,-4.0,2014-04-09,False,left
29,1212.0326,0,936,1551,2975,4263,502,-6.0,200,1,1,1212.9184,1,0,colocated,24_04_2014 level23_spatial_Mini 14_13 log.txt,37,37,1216,63.0,-4.0,2014-04-24,False,left
74,762.2504,0,936,1551,2975,4263,507,-6.0,200,1,1,763.45,1,0,colocated,13_12_2013 level23_spatial_Mini 09_07 log.txt,37,37,1216,63.0,-4.0,2013-12-13,False,left
3,125.6878,0,936,1551,2975,4263,510,-6.0,200,1,0,126.6201,0,0,colocated,25_04_2014 level23_spatial_Mini 15_26 log.txt,37,37,1216,63.0,-4.0,2014-04-25,False,left
33,178.0581,1,936,1551,2975,4263,502,-6.0,200,1,0,179.7979,0,0,colocated,30_10_2014 level23_spatial_Mini 08_01 log.txt,37,37,1216,63.0,-4.0,2014-10-30,False,left
18,93.6179,1,936,1551,2975,4263,508,-6.0,200,1,1,95.9056,1,0,colocated,14_03_2014 level23_spatial_Mini 15_38 log.txt,37,37,1216,63.0,-4.0,2014-03-14,False,left
31,182.1526,1,936,1551,2975,4263,502,-6.0,200,1,1,182.8661,1,0,colocated,11_03_2014 level23_spatial_Mini 17_07 log.txt,37,37,1216,63.0,-4.0,2014-03-11,False,left
34,385.1441,0,936,1551,2975,4263,505,-6.0,200,1,0,390.4969,0,0,colocated,13_12_2013 level23_spatial_Mini 09_07 log.txt,37,37,1216,63.0,-4.0,2013-12-13,False,left
18,139.5336,1,936,1551,2975,4263,511,-6.0,200,1,0,142.2633,0,0,colocated,14_03_2014 level23_spatial_Mini 10_20 log.txt,37,37,1216,63.0,-4.0,2014-03-14,False,left
103,890.506,0,437,2761,2975,4263,505,-6.0,200,0,1,891.4412,0,1,colocated,08_08_2014 level23_spatial_Mini 15_09 log.txt,37,37,1216,63.0,-4.0,2014-08-08,False,right
107,1084.7502,0,437,2761,2975,4263,511,-6.0,200,0,1,1085.9971,0,1,colocated,23_04_2014 level23_spatial_Mini 11_32 log.txt,37,37,1216,63.0,-4.0,2014-04-23,False,right
26,921.2128,1,437,2761,2975,4263,502,-6.0,200,0,1,923.4267,0,1,colocated,25_04_2014 level23_spatial_Mini 10_51 log.txt,37,37,1216,63.0,-4.0,2014-04-25,False,right
20,268.8045,0,437,2761,2975,4263,507,-6.0,200,0,0,275.1514,1,1,colocated,13_12_2013 level23_spatial_Mini 09_07 log.txt,37,37,1216,63.0,-4.0,2013-12-13,False,right
5,104.1771,0,437,2761,2975,4263,502,-6.0,200,0,1,108.8723,0,1,colocated,13_03_2014 level23_spatial_Mini 08_35 log.txt,37,37,1216,63.0,-4.0,2014-03-13,False,right
35,259.1388,1,437,2761,2975,4263,505,-6.0,200,0,1,261.5892,0,1,colocated,10_04_2014 level23_spatial_Mini 14_53 log.txt,37,37,1216,63.0,-4.0,2014-04-10,False,right
42,248.2661,0,437,2761,2975,4263,503,-6.0,200,0,1,249.4188,0,1,colocated,14_03_2014 level23_spatial_Mini 15_38 log.txt,37,37,1216,63.0,-4.0,2014-03-14,False,right
10,87.5468,0,437,2761,2975,4263,504,-6.0,200,0,1,89.3122,0,1,colocated,14_03_2014 level23_spatial_Mini 10_20 log.txt,37,37,1216,63.0,-4.0,2014-03-14,False,right
10,74.2785,0,437,2761,2975,4263,503,-6.0,200,0,1,75.2653,0,1,colocated,11_03_2014 level23_spatial_Mini 17_07 log.txt,37,37,1216,63.0,-4.0,2014-03-11,False,right
56,345.4219,1,437,2761,2975,4263,502,-6.0,200,0,1,346.029,0,1,colocated,09_04_2014 level23_spatial_Mini 09_15 log.txt,37,37,1216,63.0,-4.0,2014-04-09,False,right
10,87.5468,0,437,2761,2975,4263,504,-6.0,200,0,1,89.3122,0,1,colocated,14_03_2014 level23_spatial_Mini 10_20 log.txt,37,37,1216,63.0,-4.0,2014-03-14,False,right
108,712.516,1,437,2761,2975,4263,501,-6.0,200,0,1,713.4703,0,1,colocated,04_02_2014 level23_spatial_Mini 10_44 log.txt,37,37,1216,63.0,-4.0,2014-02-04,False,right
11,57.8663,0,437,2761,2975,4263,501,-6.0,200,0,1,58.6828,0,1,colocated,09_07_2014 level23_spatial_Mini 14_31 log.txt,37,37,1216,63.0,-4.0,2014-07-09,False,right
12,1088.5865,1,437,2761,2975,4263,502,-6.0,200,0,0,1091.7109,1,1,colocated,24_04_2014 level23_spatial_Mini 14_13 log.txt,37,37,1216,63.0,-4.0,2014-04-24,False,right
10,87.5468,0,437,2761,2975,4263,504,-6.0,200,0,1,89.3122,0,1,colocated,14_03_2014 level23_spatial_Mini 10_20 log.txt,37,37,1216,63.0,-4.0,2014-03-14,False,right
77,390.075,1,437,2761,2975,4263,511,-6.0,200,0,1,392.6248,0,1,colocated,08_07_2014 level23_spatial_Mini 17_43 log.txt,37,37,1216,63.0,-4.0,2014-07-08,False,right
5,104.1771,0,437,2761,2975,4263,502,-6.0,200,0,1,108.8723,0,1,colocated,13_03_2014 level23_spatial_Mini 08_35 log.txt,37,37,1216,63.0,-4.0,2014-03-13,False,right
3,33.1726,1,437,2761,2975,4263,508,-6.0,200,0,1,36.1082,0,1,colocated,24_03_2014 level23_spatial_Mini 14_04 log.txt,37,37,1216,63.0,-4.0,2014-03-24,False,right
2,156.4595,0,437,2761,2975,4263,508,-6.0,200,0,0,157.7945,1,1,colocated,20_12_2013 level23_spatial_Mini 09_02 log.txt,37,37,1216,63.0,-4.0,2013-12-20,False,right
20,268.8045,0,437,2761,2975,4263,507,-6.0,200,0,0,275.1514,1,1,colocated,13_12_2013 level23_spatial_Mini 09_07 log.txt,37,37,1216,63.0,-4.0,2013-12-13,False,right
12,1088.5865,1,437,2761,2975,4263,502,-6.0,200,0,0,1091.7109,1,1,colocated,24_04_2014 level23_spatial_Mini 14_13 log.txt,37,37,1216,63.0,-4.0,2014-04-24,False,right
11,57.8663,0,437,2761,2975,4263,501,-6.0,200,0,1,58.6828,0,1,colocated,09_07_2014 level23_spatial_Mini 14_31 log.txt,37,37,1216,63.0,-4.0,2014-07-09,False,right
77,390.075,1,437,2761,2975,4263,511,-6.0,200,0,1,392.6248,0,1,colocated,08_07_2014 level23_spatial_Mini 17_43 log.txt,37,37,1216,63.0,-4.0,2014-07-08,False,right
49,448.4574,0,437,2761,2975,4263,502,-6.0,200,0,1,449.1064,0,1,colocated,19_11_2014 level23_spatial_Mini 13_54 log.txt,37,37,1216,63.0,-4.0,2014-11-19,False,right
84,652.8934,1,437,2761,2975,4263,504,-6.0,200,0,0,656.8809,1,1,colocated,09_04_2014 level23_spatial_Mini 13_52 log.txt,37,37,1216,63.0,-4.0,2014-04-09,False,right
12,1088.5865,1,437,2761,2975,4263,502,-6.0,200,0,0,1091.7109,1,1,colocated,24_04_2014 level23_spatial_Mini 14_13 log.txt,37,37,1216,63.0,-4.0,2014-04-24,False,right
2,156.4595,0,437,2761,2975,4263,508,-6.0,200,0,0,157.7945,1,1,colocated,20_12_2013 level23_spatial_Mini 09_02 log.txt,37,37,1216,63.0,-4.0,2013-12-20,False,right
56,375.0762,0,437,2761,2975,4263,506,-6.0,200,0,0,376.5646,1,1,colocated,11_03_2014 level23_spatial_Mini 10_12 log.txt,37,37,1216,63.0,-4.0,2014-03-11,False,right
2,156.4595,0,437,2761,2975,4263,508,-6.0,200,0,0,157.7945,1,1,colocated,20_12_2013 level23_spatial_Mini 09_02 log.txt,37,37,1216,63.0,-4.0,2013-12-20,False,right
176,1283.5853,1,936,1551,2975,4263,510,-6.0,200,1,0,1286.2763,0,1,colocated,17_11_2014 level23_spatial_Mini 10_07 log.txt,37,37,1216,63.0,-4.0,2014-11-17,False,right
50,282.784,1,936,1551,2975,4263,506,-6.0,200,1,0,285.2338,0,1,colocated,17_11_2014 level23_spatial_Mini 15_46 log.txt,37,37,1216,63.0,-4.0,2014-11-17,False,right
64,356.7403,1,936,1551,2975,4263,501,-6.0,200,1,1,359.8307,1,1,colocated,30_10_2014 level23_spatial_Mini 08_01 log.txt,37,37,1216,63.0,-4.0,2014-10-30,False,right
25,193.8833,0,936,1551,2975,4263,502,-6.0,200,1,0,195.2509,0,1,colocated,10_04_2014 level23_spatial_Mini 14_53 log.txt,37,37,1216,63.0,-4.0,2014-04-10,False,right
66,445.5962,1,936,1551,2975,4263,507,-6.0,200,1,1,447.3328,1,1,colocated,14_03_2014 level23_spatial_Mini 10_20 log.txt,37,37,1216,63.0,-4.0,2014-03-14,False,right
62,388.3592,0,936,1551,2975,4263,507,-6.0,200,1,1,389.8393,1,1,colocated,09_04_2014 level23_spatial_Mini 09_15 log.txt,37,37,1216,63.0,-4.0,2014-04-09,False,right
51,722.0512,0,936,1551,2975,4263,504,-6.0,200,1,1,723.6042,1,1,colocated,23_04_2014 level23_spatial_Mini 11_32 log.txt,37,37,1216,63.0,-4.0,2014-04-23,False,right
5,42.8446,1,936,1551,2975,4263,502,-6.0,200,1,1,45.6712,1,1,colocated,11_03_2014 level23_spatial_Mini 17_07 log.txt,37,37,1216,63.0,-4.0,2014-03-11,False,right
84,560.2911,1,936,1551,2975,4263,502,-6.0,200,1,0,563.216,0,1,colocated,11_03_2014 level23_spatial_Mini 10_12 log.txt,37,37,1216,63.0,-4.0,2014-03-11,False,right
68,612.3121,1,936,1551,2975,4263,502,-6.0,200,1,1,614.4771,1,1,colocated,08_08_2014 level23_spatial_Mini 15_09 log.txt,37,37,1216,63.0,-4.0,2014-08-08,False,right
88,909.9904,0,936,1551,2975,4263,506,-6.0,200,1,0,910.6704,0,1,colocated,13_12_2013 level23_spatial_Mini 09_07 log.txt,37,37,1216,63.0,-4.0,2013-12-13,False,right
108,849.2244,0,936,1551,2975,4263,504,-6.0,200,1,0,850.5409,0,1,colocated,17_11_2014 level23_spatial_Mini 10_07 log.txt,37,37,1216,63.0,-4.0,2014-11-17,False,right
58,512.7635,0,936,1551,2975,4263,511,-6.0,200,1,0,513.6087,0,1,colocated,19_11_2014 level23_spatial_Mini 13_54 log.txt,37,37,1216,63.0,-4.0,2014-11-19,False,right
75,382.9356,0,936,1551,2975,4263,510,-6.0,200,1,0,383.0185,0,1,colocated,08_07_2014 level23_spatial_Mini 17_43 log.txt,37,37,1216,63.0,-4.0,2014-07-08,False,right
58,512.7635,0,936,1551,2975,4263,511,-6.0,200,1,0,513.6087,0,1,colocated,19_11_2014 level23_spatial_Mini 13_54 log.txt,37,37,1216,63.0,-4.0,2014-11-19,False,right
25,193.8833,0,936,1551,2975,4263,502,-6.0,200,1,0,195.2509,0,1,colocated,10_04_2014 level23_spatial_Mini 14_53 log.txt,37,37,1216,63.0,-4.0,2014-04-10,False,right
24,319.0314,0,936,1551,2975,4263,503,-6.0,200,1,1,319.9268,1,1,colocated,20_12_2013 level23_spatial_Mini 09_02 log.txt,37,37,1216,63.0,-4.0,2013-12-20,False,right
64,356.7403,1,936,1551,2975,4263,501,-6.0,200,1,1,359.8307,1,1,colocated,30_10_2014 level23_spatial_Mini 08_01 log.txt,37,37,1216,63.0,-4.0,2014-10-30,False,right
68,612.3121,1,936,1551,2975,4263,502,-6.0,200,1,1,614.4771,1,1,colocated,08_08_2014 level23_spatial_Mini 15_09 log.txt,37,37,1216,63.0,-4.0,2014-08-08,False,right
68,612.3121,1,936,1551,2975,4263,502,-6.0,200,1,1,614.4771,1,1,colocated,08_08_2014 level23_spatial_Mini 15_09 log.txt,37,37,1216,63.0,-4.0,2014-08-08,False,right
40,240.5829,1,936,1551,2975,4263,511,-6.0,200,1,0,243.0697,0,1,colocated,31_10_2014 level23_spatial_Mini 08_56 log.txt,37,37,1216,63.0,-4.0,2014-10-31,False,right
37,1251.4158,1,936,1551,2975,4263,501,-6.0,200,1,1,1252.145,1,1,colocated,24_04_2014 level23_spatial_Mini 14_13 log.txt,37,37,1216,63.0,-4.0,2014-04-24,False,right
84,560.2911,1,936,1551,2975,4263,502,-6.0,200,1,0,563.216,0,1,colocated,11_03_2014 level23_spatial_Mini 10_12 log.txt,37,37,1216,63.0,-4.0,2014-03-11,False,right
73,738.7897,0,936,1551,2975,4263,507,-6.0,200,1,1,740.7469,1,1,colocated,20_12_2013 level23_spatial_Mini 09_02 log.txt,37,37,1216,63.0,-4.0,2013-12-20,False,right
25,193.8833,0,936,1551,2975,4263,502,-6.0,200,1,0,195.2509,0,1,colocated,10_04_2014 level23_spatial_Mini 14_53 log.txt,37,37,1216,63.0,-4.0,2014-04-10,False,right
176,1283.5853,1,936,1551,2975,4263,510,-6.0,200,1,0,1286.2763,0,1,colocated,17_11_2014 level23_spatial_Mini 10_07 log.txt,37,37,1216,63.0,-4.0,2014-11-17,False,right
88,909.9904,0,936,1551,2975,4263,506,-6.0,200,1,0,910.6704,0,1,colocated,13_12_2013 level23_spatial_Mini 09_07 log.txt,37,37,1216,63.0,-4.0,2013-12-13,False,right
62,388.3592,0,936,1551,2975,4263,507,-6.0,200,1,1,389.8393,1,1,colocated,09_04_2014 level23_spatial_Mini 09_15 log.txt,37,37,1216,63.0,-4.0,2014-04-09,False,right
25,193.8833,0,936,1551,2975,4263,502,-6.0,200,1,0,195.2509,0,1,colocated,10_04_2014 level23_spatial_Mini 14_53 log.txt,37,37,1216,63.0,-4.0,2014-04-10,False,right
89,961.3918,1,437,2761,2975,4263,502,-8.0,200,0,0,962.5075,1,0,colocated,23_04_2014 level23_spatial_Mini 11_32 log.txt,37,37,1216,65.0,-2.0,2014-04-23,False,left
69,389.9169,0,437,2761,2975,4263,507,-8.0,200,0,0,391.3459,1,0,colocated,11_03_2014 level23_spatial_Mini 17_07 log.txt,37,37,1216,65.0,-2.0,2014-03-11,False,left
47,314.2941,0,437,2761,2975,4263,505,-8.0,200,0,1,314.8396,0,0,colocated,11_03_2014 level23_spatial_Mini 10_12 log.txt,37,37,1216,65.0,-2.0,2014-03-11,False,left
36,304.9767,0,437,2761,2975,4263,508,-8.0,200,0,1,305.7935,0,0,colocated,31_03_2014 level23_spatial_Mini 15_41 log.txt,37,37,1216,65.0,-2.0,2014-03-31,False,left
40,258.0089,0,437,2761,2975,4263,511,-8.0,200,0,1,258.9792,0,0,colocated,09_04_2014 level23_spatial_Mini 09_15 log.txt,37,37,1216,65.0,-2.0,2014-04-09,False,left
65,435.0056,0,437,2761,2975,4263,505,-8.0,200,0,1,435.5167,0,0,colocated,04_02_2014 level23_spatial_Mini 10_44 log.txt,37,37,1216,65.0,-2.0,2014-02-04,False,left
65,435.0056,0,437,2761,2975,4263,505,-8.0,200,0,1,435.5167,0,0,colocated,04_02_2014 level23_spatial_Mini 10_44 log.txt,37,37,1216,65.0,-2.0,2014-02-04,False,left
53,328.7608,1,437,2761,2975,4263,507,-8.0,200,0,1,334.9638,0,0,colocated,23_04_2014 level23_spatial_Mini 15_38 log.txt,37,37,1216,65.0,-2.0,2014-04-23,False,left
111,1162.0076,0,437,2761,2975,4263,506,-8.0,200,0,1,1163.1864,0,0,colocated,13_12_2013 level23_spatial_Mini 09_07 log.txt,37,37,1216,65.0,-2.0,2013-12-13,False,left
24,301.3029,0,437,2761,2975,4263,501,-8.0,200,0,1,305.2336,0,0,colocated,08_08_2014 level23_spatial_Mini 15_09 log.txt,37,37,1216,65.0,-2.0,2014-08-08,False,left
123,690.6406,0,437,2761,2975,4263,501,-8.0,200,0,0,691.5798,1,0,colocated,31_10_2014 level23_spatial_Mini 08_56 log.txt,37,37,1216,65.0,-2.0,2014-10-31,False,left
37,226.0477,0,437,2761,2975,4263,505,-8.0,200,0,1,228.6516,0,0,colocated,31_10_2014 level23_spatial_Mini 08_56 log.txt,37,37,1216,65.0,-2.0,2014-10-31,False,left
65,435.0056,0,437,2761,2975,4263,505,-8.0,200,0,1,435.5167,0,0,colocated,04_02_2014 level23_spatial_Mini 10_44 log.txt,37,37,1216,65.0,-2.0,2014-02-04,False,left
40,258.0089,0,437,2761,2975,4263,511,-8.0,200,0,1,258.9792,0,0,colocated,09_04_2014 level23_spatial_Mini 09_15 log.txt,37,37,1216,65.0,-2.0,2014-04-09,False,left
53,328.7608,1,437,2761,2975,4263,507,-8.0,200,0,1,334.9638,0,0,colocated,23_04_2014 level23_spatial_Mini 15_38 log.txt,37,37,1216,65.0,-2.0,2014-04-23,False,left
66,371.9252,0,437,2761,2975,4263,507,-8.0,200,0,0,372.7295,1,0,colocated,17_11_2014 level23_spatial_Mini 15_46 log.txt,37,37,1216,65.0,-2.0,2014-11-17,False,left
8,82.6338,0,437,2761,2975,4263,501,-8.0,200,0,0,83.7323,1,0,colocated,17_11_2014 level23_spatial_Mini 10_07 log.txt,37,37,1216,65.0,-2.0,2014-11-17,False,left
111,1162.0076,0,437,2761,2975,4263,506,-8.0,200,0,1,1163.1864,0,0,colocated,13_12_2013 level23_spatial_Mini 09_07 log.txt,37,37,1216,65.0,-2.0,2013-12-13,False,left
65,435.0056,0,437,2761,2975,4263,505,-8.0,200,0,1,435.5167,0,0,colocated,04_02_2014 level23_spatial_Mini 10_44 log.txt,37,37,1216,65.0,-2.0,2014-02-04,False,left
77,666.7388,0,437,2761,2975,4263,510,-8.0,200,0,0,667.6799,1,0,colocated,19_11_2014 level23_spatial_Mini 13_54 log.txt,37,37,1216,65.0,-2.0,2014-11-19,False,left
111,1162.0076,0,437,2761,2975,4263,506,-8.0,200,0,1,1163.1864,0,0,colocated,13_12_2013 level23_spatial_Mini 09_07 log.txt,37,37,1216,65.0,-2.0,2013-12-13,False,left
53,328.7608,1,437,2761,2975,4263,507,-8.0,200,0,1,334.9638,0,0,colocated,23_04_2014 level23_spatial_Mini 15_38 log.txt,37,37,1216,65.0,-2.0,2014-04-23,False,left
80,1363.9115,1,437,2761,2975,4263,508,-8.0,200,0,1,1364.4542,0,0,colocated,25_04_2014 level23_spatial_Mini 10_51 log.txt,37,37,1216,65.0,-2.0,2014-04-25,False,left
89,961.3918,1,437,2761,2975,4263,502,-8.0,200,0,0,962.5075,1,0,colocated,23_04_2014 level23_spatial_Mini 11_32 log.txt,37,37,1216,65.0,-2.0,2014-04-23,False,left
66,371.9252,0,437,2761,2975,4263,507,-8.0,200,0,0,372.7295,1,0,colocated,17_11_2014 level23_spatial_Mini 15_46 log.txt,37,37,1216,65.0,-2.0,2014-11-17,False,left
27,313.2891,1,437,2761,2975,4263,509,-8.0,200,0,1,315.9643,0,0,colocated,09_04_2014 level23_spatial_Mini 13_52 log.txt,37,37,1216,65.0,-2.0,2014-04-09,False,left
5,1047.2536,1,437,2761,2975,4263,508,-8.0,200,0,0,1051.7813,1,0,colocated,24_04_2014 level23_spatial_Mini 14_13 log.txt,37,37,1216,65.0,-2.0,2014-04-24,False,left
5,1047.2536,1,437,2761,2975,4263,508,-8.0,200,0,0,1051.7813,1,0,colocated,24_04_2014 level23_spatial_Mini 14_13 log.txt,37,37,1216,65.0,-2.0,2014-04-24,False,left
16,225.77,0,437,2761,2975,4263,509,-8.0,200,0,1,227.1772,0,0,colocated,13_12_2013 level23_spatial_Mini 09_07 log.txt,37,37,1216,65.0,-2.0,2013-12-13,False,left
66,339.2383,1,936,1551,2975,4263,502,-8.0,200,1,1,339.8193,1,0,colocated,08_07_2014 level23_spatial_Mini 17_43 log.txt,37,37,1216,65.0,-2.0,2014-07-08,False,left
32,184.8127,1,936,1551,2975,4263,509,-8.0,200,1,0,187.2004,0,0,colocated,14_03_2014 level23_spatial_Mini 15_38 log.txt,37,37,1216,65.0,-2.0,2014-03-14,False,left
101,569.3134,0,936,1551,2975,4263,505,-8.0,200,1,1,570.4151,1,0,colocated,11_03_2014 level23_spatial_Mini 17_07 log.txt,37,37,1216,65.0,-2.0,2014-03-11,False,left
50,715.8228,0,936,1551,2975,4263,505,-8.0,200,1,1,716.9135,1,0,colocated,23_04_2014 level23_spatial_Mini 11_32 log.txt,37,37,1216,65.0,-2.0,2014-04-23,False,left
53,470.2657,0,936,1551,2975,4263,508,-8.0,200,1,0,471.3203,0,0,colocated,17_11_2014 level23_spatial_Mini 10_07 log.txt,37,37,1216,65.0,-2.0,2014-11-17,False,left
26,150.6046,1,936,1551,2975,4263,510,-8.0,200,1,0,152.9543,0,0,colocated,17_11_2014 level23_spatial_Mini 15_46 log.txt,37,37,1216,65.0,-2.0,2014-11-17,False,left
22,220.7513,1,936,1551,2975,4263,505,-8.0,200,1,1,223.3167,1,0,colocated,31_03_2014 level23_spatial_Mini 15_41 log.txt,37,37,1216,65.0,-2.0,2014-03-31,False,left
68,383.0225,1,936,1551,2975,4263,505,-8.0,200,1,1,385.9653,1,0,colocated,31_10_2014 level23_spatial_Mini 08_56 log.txt,37,37,1216,65.0,-2.0,2014-10-31,False,left
66,339.2383,1,936,1551,2975,4263,502,-8.0,200,1,1,339.8193,1,0,colocated,08_07_2014 level23_spatial_Mini 17_43 log.txt,37,37,1216,65.0,-2.0,2014-07-08,False,left
69,462.7276,1,936,1551,2975,4263,506,-8.0,200,1,0,464.9205,0,0,colocated,04_02_2014 level23_spatial_Mini 10_44 log.txt,37,37,1216,65.0,-2.0,2014-02-04,False,left
5,112.8137,0,936,1551,2975,4263,506,-8.0,200,1,0,113.3358,0,0,colocated,20_11_2014 level23_spatial_Mini 14_10 log.txt,37,37,1216,65.0,-2.0,2014-11-20,False,left
22,131.316,1,936,1551,2975,4263,508,-8.0,200,1,1,133.2046,1,0,colocated,11_03_2014 level23_spatial_Mini 17_07 log.txt,37,37,1216,65.0,-2.0,2014-03-11,False,left
60,1226.0436,0,936,1551,2975,4263,506,-8.0,200,1,1,1227.5538,1,0,colocated,25_04_2014 level23_spatial_Mini 10_51 log.txt,37,37,1216,65.0,-2.0,2014-04-25,False,left
69,462.7276,1,936,1551,2975,4263,506,-8.0,200,1,0,464.9205,0,0,colocated,04_02_2014 level23_spatial_Mini 10_44 log.txt,37,37,1216,65.0,-2.0,2014-02-04,False,left
87,781.9842,0,936,1551,2975,4263,506,-8.0,200,1,1,783.1164,1,0,colocated,08_08_2014 level23_spatial_Mini 15_09 log.txt,37,37,1216,65.0,-2.0,2014-08-08,False,left
21,121.2535,1,936,1551,2975,4263,509,-8.0,200,1,1,123.2182,1,0,colocated,10_07_2014 level23_spatial_Mini 14_03 log.txt,37,37,1216,65.0,-2.0,2014-07-10,False,left
97,1014.0998,0,936,1551,2975,4263,504,-8.0,200,1,1,1015.0077,1,0,colocated,13_12_2013 level23_spatial_Mini 09_07 log.txt,37,37,1216,65.0,-2.0,2013-12-13,False,left
97,1014.0998,0,936,1551,2975,4263,504,-8.0,200,1,1,1015.0077,1,0,colocated,13_12_2013 level23_spatial_Mini 09_07 log.txt,37,37,1216,65.0,-2.0,2013-12-13,False,left
97,1014.0998,0,936,1551,2975,4263,504,-8.0,200,1,1,1015.0077,1,0,colocated,13_12_2013 level23_spatial_Mini 09_07 log.txt,37,37,1216,65.0,-2.0,2013-12-13,False,left
22,131.316,1,936,1551,2975,4263,508,-8.0,200,1,1,133.2046,1,0,colocated,11_03_2014 level23_spatial_Mini 17_07 log.txt,37,37,1216,65.0,-2.0,2014-03-11,False,left
53,470.2657,0,936,1551,2975,4263,508,-8.0,200,1,0,471.3203,0,0,colocated,17_11_2014 level23_spatial_Mini 10_07 log.txt,37,37,1216,65.0,-2.0,2014-11-17,False,left
65,500.7062,0,936,1551,2975,4263,503,-8.0,200,1,1,501.6464,1,0,colocated,13_03_2014 level23_spatial_Mini 08_35 log.txt,37,37,1216,65.0,-2.0,2014-03-13,False,left
65,500.7062,0,936,1551,2975,4263,503,-8.0,200,1,1,501.6464,1,0,colocated,13_03_2014 level23_spatial_Mini 08_35 log.txt,37,37,1216,65.0,-2.0,2014-03-13,False,left
68,383.0225,1,936,1551,2975,4263,505,-8.0,200,1,1,385.9653,1,0,colocated,31_10_2014 level23_spatial_Mini 08_56 log.txt,37,37,1216,65.0,-2.0,2014-10-31,False,left
170,1245.3369,1,936,1551,2975,4263,510,-8.0,200,1,0,1247.6782,0,0,colocated,17_11_2014 level23_spatial_Mini 10_07 log.txt,37,37,1216,65.0,-2.0,2014-11-17,False,left
91,595.9916,0,936,1551,2975,4263,511,-8.0,200,1,0,597.4345,0,0,colocated,11_03_2014 level23_spatial_Mini 10_12 log.txt,37,37,1216,65.0,-2.0,2014-03-11,False,left
31,365.6087,1,936,1551,2975,4263,510,-8.0,200,1,1,367.6022,1,0,colocated,13_12_2013 level23_spatial_Mini 09_07 log.txt,37,37,1216,65.0,-2.0,2013-12-13,False,left
32,184.8127,1,936,1551,2975,4263,509,-8.0,200,1,0,187.2004,0,0,colocated,14_03_2014 level23_spatial_Mini 15_38 log.txt,37,37,1216,65.0,-2.0,2014-03-14,False,left
59,336.3824,0,936,1551,2975,4263,503,-8.0,200,1,1,337.4449,1,0,colocated,09_07_2014 level23_spatial_Mini 14_31 log.txt,37,37,1216,65.0,-2.0,2014-07-09,False,left
26,245.5082,0,437,2761,2975,4263,506,-8.0,200,0,0,246.6252,1,1,colocated,31_03_2014 level23_spatial_Mini 15_41 log.txt,37,37,1216,65.0,-2.0,2014-03-31,False,right
66,1260.88,0,437,2761,2975,4263,501,-8.0,200,0,1,1261.6901,0,1,colocated,25_04_2014 level23_spatial_Mini 10_51 log.txt,37,37,1216,65.0,-2.0,2014-04-25,False,right
71,499.5526,0,437,2761,2975,4263,507,-8.0,200,0,0,501.946,1,1,colocated,10_04_2014 level23_spatial_Mini 14_53 log.txt,37,37,1216,65.0,-2.0,2014-04-10,False,right
43,492.3699,0,437,2761,2975,4263,505,-8.0,200,0,1,493.6976,0,1,colocated,20_12_2013 level23_spatial_Mini 09_02 log.txt,37,37,1216,65.0,-2.0,2013-12-20,False,right
78,447.364,0,437,2761,2975,4263,507,-8.0,200,0,0,448.3706,1,1,colocated,11_03_2014 level23_spatial_Mini 17_07 log.txt,37,37,1216,65.0,-2.0,2014-03-11,False,right
25,1183.3142,1,437,2761,2975,4263,508,-8.0,200,0,1,1191.2714,0,1,colocated,24_04_2014 level23_spatial_Mini 14_13 log.txt,37,37,1216,65.0,-2.0,2014-04-24,False,right
71,471.4837,1,437,2761,2975,4263,505,-8.0,200,0,1,474.6058,0,1,colocated,11_03_2014 level23_spatial_Mini 10_12 log.txt,37,37,1216,65.0,-2.0,2014-03-11,False,right
45,254.2179,1,437,2761,2975,4263,509,-8.0,200,0,0,256.3198,1,1,colocated,17_11_2014 level23_spatial_Mini 15_46 log.txt,37,37,1216,65.0,-2.0,2014-11-17,False,right
78,447.364,0,437,2761,2975,4263,507,-8.0,200,0,0,448.3706,1,1,colocated,11_03_2014 level23_spatial_Mini 17_07 log.txt,37,37,1216,65.0,-2.0,2014-03-11,False,right
66,1260.88,0,437,2761,2975,4263,501,-8.0,200,0,1,1261.6901,0,1,colocated,25_04_2014 level23_spatial_Mini 10_51 log.txt,37,37,1216,65.0,-2.0,2014-04-25,False,right
45,254.2179,1,437,2761,2975,4263,509,-8.0,200,0,0,256.3198,1,1,colocated,17_11_2014 level23_spatial_Mini 15_46 log.txt,37,37,1216,65.0,-2.0,2014-11-17,False,right
121,684.0883,0,437,2761,2975,4263,510,-8.0,200,0,1,685.271,0,1,colocated,31_10_2014 level23_spatial_Mini 08_56 log.txt,37,37,1216,65.0,-2.0,2014-10-31,False,right
47,439.654,1,437,2761,2975,4263,510,-8.0,200,0,1,441.9337,0,1,colocated,08_08_2014 level23_spatial_Mini 15_09 log.txt,37,37,1216,65.0,-2.0,2014-08-08,False,right
75,768.616,1,437,2761,2975,4263,503,-8.0,200,0,1,769.2825,0,1,colocated,13_12_2013 level23_spatial_Mini 09_07 log.txt,37,37,1216,65.0,-2.0,2013-12-13,False,right
18,549.9512,0,437,2761,2975,4263,504,-8.0,200,0,1,550.2903,0,1,colocated,23_04_2014 level23_spatial_Mini 11_32 log.txt,37,37,1216,65.0,-2.0,2014-04-23,False,right
121,684.0883,0,437,2761,2975,4263,510,-8.0,200,0,1,685.271,0,1,colocated,31_10_2014 level23_spatial_Mini 08_56 log.txt,37,37,1216,65.0,-2.0,2014-10-31,False,right
27,158.5688,1,437,2761,2975,4263,511,-8.0,200,0,1,161.1821,0,1,colocated,31_10_2014 level23_spatial_Mini 14_15 log.txt,37,37,1216,65.0,-2.0,2014-10-31,False,right
4,110.8407,0,437,2761,2975,4263,505,-8.0,200,0,0,112.4579,1,1,colocated,13_12_2013 level23_spatial_Mini 09_07 log.txt,37,37,1216,65.0,-2.0,2013-12-13,False,right
71,499.5526,0,437,2761,2975,4263,507,-8.0,200,0,0,501.946,1,1,colocated,10_04_2014 level23_spatial_Mini 14_53 log.txt,37,37,1216,65.0,-2.0,2014-04-10,False,right
8,203.3382,1,437,2761,2975,4263,504,-8.0,200,0,1,205.1371,0,1,colocated,09_04_2014 level23_spatial_Mini 13_52 log.txt,37,37,1216,65.0,-2.0,2014-04-09,False,right
134,1246.548,0,437,2761,2975,4263,502,-8.0,200,0,1,1247.1056,0,1,colocated,23_04_2014 level23_spatial_Mini 11_32 log.txt,37,37,1216,65.0,-2.0,2014-04-23,False,right
45,254.2179,1,437,2761,2975,4263,509,-8.0,200,0,0,256.3198,1,1,colocated,17_11_2014 level23_spatial_Mini 15_46 log.txt,37,37,1216,65.0,-2.0,2014-11-17,False,right
75,768.616,1,437,2761,2975,4263,503,-8.0,200,0,1,769.2825,0,1,colocated,13_12_2013 level23_spatial_Mini 09_07 log.txt,37,37,1216,65.0,-2.0,2013-12-13,False,right
26,245.5082,0,437,2761,2975,4263,506,-8.0,200,0,0,246.6252,1,1,colocated,31_03_2014 level23_spatial_Mini 15_41 log.txt,37,37,1216,65.0,-2.0,2014-03-31,False,right
48,282.4366,0,437,2761,2975,4263,508,-8.0,200,0,0,283.6517,1,1,colocated,31_10_2014 level23_spatial_Mini 08_56 log.txt,37,37,1216,65.0,-2.0,2014-10-31,False,right
73,373.3096,0,437,2761,2975,4263,505,-8.0,200,0,1,374.32,0,1,colocated,08_07_2014 level23_spatial_Mini 17_43 log.txt,37,37,1216,65.0,-2.0,2014-07-08,False,right
92,884.8441,0,437,2761,2975,4263,508,-8.0,200,0,0,887.4517,1,1,colocated,10_04_2014 level23_spatial_Mini 14_53 log.txt,37,37,1216,65.0,-2.0,2014-04-10,False,right
55,410.066,1,437,2761,2975,4263,501,-8.0,200,0,1,412.6722,0,1,colocated,13_03_2014 level23_spatial_Mini 08_35 log.txt,37,37,1216,65.0,-2.0,2014-03-13,False,right
8,203.3382,1,437,2761,2975,4263,504,-8.0,200,0,1,205.1371,0,1,colocated,09_04_2014 level23_spatial_Mini 13_52 log.txt,37,37,1216,65.0,-2.0,2014-04-09,False,right
88,785.5427,1,936,1551,2975,4263,509,-8.0,200,1,1,787.4288,1,1,colocated,08_08_2014 level23_spatial_Mini 15_09 log.txt,37,37,1216,65.0,-2.0,2014-08-08,False,right
1,751.5451,1,936,1551,2975,4263,504,-8.0,200,1,0,757.3927,0,1,colocated,25_04_2014 level23_spatial_Mini 10_51 log.txt,37,37,1216,65.0,-2.0,2014-04-25,False,right
6,1055.7215,1,936,1551,2975,4263,507,-8.0,200,1,1,1058.883,1,1,colocated,24_04_2014 level23_spatial_Mini 14_13 log.txt,37,37,1216,65.0,-2.0,2014-04-24,False,right
11,150.3968,0,936,1551,2975,4263,508,-8.0,200,1,1,151.0761,1,1,colocated,31_03_2014 level23_spatial_Mini 15_41 log.txt,37,37,1216,65.0,-2.0,2014-03-31,False,right
14,102.1582,0,936,1551,2975,4263,501,-8.0,200,1,1,104.5183,1,1,colocated,24_03_2014 level23_spatial_Mini 14_04 log.txt,37,37,1216,65.0,-2.0,2014-03-24,False,right
70,431.2836,1,936,1551,2975,4263,508,-8.0,200,1,1,433.1753,1,1,colocated,09_04_2014 level23_spatial_Mini 09_15 log.txt,37,37,1216,65.0,-2.0,2014-04-09,False,right
45,301.0269,1,936,1551,2975,4263,504,-8.0,200,1,1,303.0945,1,1,colocated,04_02_2014 level23_spatial_Mini 10_44 log.txt,37,37,1216,65.0,-2.0,2014-02-04,False,right
81,861.4175,0,936,1551,2975,4263,507,-8.0,200,1,1,862.6916,1,1,colocated,20_12_2013 level23_spatial_Mini 09_02 log.txt,37,37,1216,65.0,-2.0,2013-12-20,False,right
1,751.5451,1,936,1551,2975,4263,504,-8.0,200,1,0,757.3927,0,1,colocated,25_04_2014 level23_spatial_Mini 10_51 log.txt,37,37,1216,65.0,-2.0,2014-04-25,False,right
34,278.2032,0,936,1551,2975,4263,507,-8.0,200,1,1,279.0964,1,1,colocated,13_03_2014 level23_spatial_Mini 08_35 log.txt,37,37,1216,65.0,-2.0,2014-03-13,False,right
49,362.7804,1,936,1551,2975,4263,509,-8.0,200,1,1,365.2791,1,1,colocated,10_04_2014 level23_spatial_Mini 14_53 log.txt,37,37,1216,65.0,-2.0,2014-04-10,False,right
10,215.2929,0,936,1551,2975,4263,502,-8.0,200,1,1,216.5132,1,1,colocated,20_12_2013 level23_spatial_Mini 09_02 log.txt,37,37,1216,65.0,-2.0,2013-12-20,False,right
92,986.1822,0,936,1551,2975,4263,507,-8.0,200,1,0,987.5594,0,1,colocated,23_04_2014 level23_spatial_Mini 11_32 log.txt,37,37,1216,65.0,-2.0,2014-04-23,False,right
49,362.7804,1,936,1551,2975,4263,509,-8.0,200,1,1,365.2791,1,1,colocated,10_04_2014 level23_spatial_Mini 14_53 log.txt,37,37,1216,65.0,-2.0,2014-04-10,False,right
1,751.5451,1,936,1551,2975,4263,504,-8.0,200,1,0,757.3927,0,1,colocated,25_04_2014 level23_spatial_Mini 10_51 log.txt,37,37,1216,65.0,-2.0,2014-04-25,False,right
12,431.8513,1,936,1551,2975,4263,510,-8.0,200,1,1,434.1883,1,1,colocated,20_11_2014 level23_spatial_Mini 14_10 log.txt,37,37,1216,65.0,-2.0,2014-11-20,False,right
71,395.6023,0,936,1551,2975,4263,503,-8.0,200,1,0,396.6101,0,1,colocated,17_11_2014 level23_spatial_Mini 15_46 log.txt,37,37,1216,65.0,-2.0,2014-11-17,False,right
34,278.2032,0,936,1551,2975,4263,507,-8.0,200,1,1,279.0964,1,1,colocated,13_03_2014 level23_spatial_Mini 08_35 log.txt,37,37,1216,65.0,-2.0,2014-03-13,False,right
140,1277.8439,0,936,1551,2975,4263,505,-8.0,200,1,1,1278.3935,1,1,colocated,23_04_2014 level23_spatial_Mini 11_32 log.txt,37,37,1216,65.0,-2.0,2014-04-23,False,right
25,131.0054,0,936,1551,2975,4263,501,-8.0,200,1,1,132.3662,1,1,colocated,08_07_2014 level23_spatial_Mini 17_43 log.txt,37,37,1216,65.0,-2.0,2014-07-08,False,right
8,148.2066,1,936,1551,2975,4263,507,-8.0,200,1,1,154.4553,1,1,colocated,13_12_2013 level23_spatial_Mini 09_07 log.txt,37,37,1216,65.0,-2.0,2013-12-13,False,right
11,150.3968,0,936,1551,2975,4263,508,-8.0,200,1,1,151.0761,1,1,colocated,31_03_2014 level23_spatial_Mini 15_41 log.txt,37,37,1216,65.0,-2.0,2014-03-31,False,right
6,1055.7215,1,936,1551,2975,4263,507,-8.0,200,1,1,1058.883,1,1,colocated,24_04_2014 level23_spatial_Mini 14_13 log.txt,37,37,1216,65.0,-2.0,2014-04-24,False,right
12,431.8513,1,936,1551,2975,4263,510,-8.0,200,1,1,434.1883,1,1,colocated,20_11_2014 level23_spatial_Mini 14_10 log.txt,37,37,1216,65.0,-2.0,2014-11-20,False,right
1,751.5451,1,936,1551,2975,4263,504,-8.0,200,1,0,757.3927,0,1,colocated,25_04_2014 level23_spatial_Mini 10_51 log.txt,37,37,1216,65.0,-2.0,2014-04-25,False,right
4,25.6612,0,936,1551,2975,4263,509,-8.0,200,1,1,26.09,1,1,colocated,23_04_2014 level23_spatial_Mini 15_38 log.txt,37,37,1216,65.0,-2.0,2014-04-23,False,right
140,1277.8439,0,936,1551,2975,4263,505,-8.0,200,1,1,1278.3935,1,1,colocated,23_04_2014 level23_spatial_Mini 11_32 log.txt,37,37,1216,65.0,-2.0,2014-04-23,False,right
71,395.6023,0,936,1551,2975,4263,503,-8.0,200,1,0,396.6101,0,1,colocated,17_11_2014 level23_spatial_Mini 15_46 log.txt,37,37,1216,65.0,-2.0,2014-11-17,False,right
71,395.6023,0,936,1551,2975,4263,503,-8.0,200,1,0,396.6101,0,1,colocated,17_11_2014 level23_spatial_Mini 15_46 log.txt,37,37,1216,65.0,-2.0,2014-11-17,False,right
22,534.0868,1,437,2761,2975,4263,506,-10.0,200,0,0,536.4544,1,0,colocated,20_11_2014 level23_spatial_Mini 14_10 log.txt,37,37,1216,67.0,0.0,2014-11-20,False,left
51,393.9092,0,437,2761,2975,4263,576,-10.0,200,0,1,394.8353,0,0,colocated,02_12_2014 level23_spatial_Mini 14_57 log.txt,37,37,1216,67.0,0.0,2014-12-02,False,left
52,555.6753,0,437,2761,2975,4263,505,-10.0,200,0,0,562.2959,1,0,colocated,13_12_2013 level23_spatial_Mini 09_07 log.txt,37,37,1216,67.0,0.0,2013-12-13,False,left
46,306.7609,0,437,2761,2975,4263,510,-10.0,200,0,1,307.735,0,0,colocated,04_02_2014 level23_spatial_Mini 10_44 log.txt,37,37,1216,67.0,0.0,2014-02-04,False,left
119,1184.7985,0,437,2761,2975,4263,701,-10.0,200,0,1,1185.7396,0,0,colocated,21_11_2014 level23_spatial_Mini 14_01 log.txt,37,37,1216,67.0,0.0,2014-11-21,False,left
47,291.5577,0,437,2761,2975,4263,504,-10.0,200,0,1,292.1933,0,0,colocated,23_04_2014 level23_spatial_Mini 15_38 log.txt,37,37,1216,67.0,0.0,2014-04-23,False,left
37,266.2678,1,437,2761,2975,4263,501,-10.0,200,0,1,268.8924,0,0,colocated,24_03_2014 level23_spatial_Mini 14_04 log.txt,37,37,1216,67.0,0.0,2014-03-24,False,left
22,261.6271,1,437,2761,2975,4263,502,-10.0,200,0,-1,-1.0,0,0,colocated,11_04_2014 level23_spatial_Mini 14_17 log.txt,37,37,1216,67.0,0.0,2014-04-11,False,left
70,391.5463,0,437,2761,2975,4263,501,-10.0,200,0,0,392.5098,1,0,colocated,17_11_2014 level23_spatial_Mini 15_46 log.txt,37,37,1216,67.0,0.0,2014-11-17,False,left
34,248.2376,1,437,2761,2975,4263,503,-10.0,200,0,0,251.8923,1,0,colocated,10_04_2014 level23_spatial_Mini 14_53 log.txt,37,37,1216,67.0,0.0,2014-04-10,False,left
69,522.0391,1,437,2761,2975,4263,506,-10.0,200,0,1,524.4572,0,0,colocated,13_03_2014 level23_spatial_Mini 08_35 log.txt,37,37,1216,67.0,0.0,2014-03-13,False,left
22,534.0868,1,437,2761,2975,4263,506,-10.0,200,0,0,536.4544,1,0,colocated,20_11_2014 level23_spatial_Mini 14_10 log.txt,37,37,1216,67.0,0.0,2014-11-20,False,left
98,724.0341,0,437,2761,2975,4263,676,-10.0,200,0,1,725.115,0,0,colocated,15_12_2014 level23_spatial_Mini 14_12 log.txt,37,37,1216,67.0,0.0,2014-12-15,False,left
73,496.0029,0,437,2761,2975,4263,507,-10.0,200,0,1,497.1055,0,0,colocated,14_03_2014 level23_spatial_Mini 15_38 log.txt,37,37,1216,67.0,0.0,2014-03-14,False,left
98,724.0341,0,437,2761,2975,4263,676,-10.0,200,0,1,725.115,0,0,colocated,15_12_2014 level23_spatial_Mini 14_12 log.txt,37,37,1216,67.0,0.0,2014-12-15,False,left
52,555.6753,0,437,2761,2975,4263,505,-10.0,200,0,0,562.2959,1,0,colocated,13_12_2013 level23_spatial_Mini 09_07 log.txt,37,37,1216,67.0,0.0,2013-12-13,False,left
67,554.1968,0,437,2761,2975,4263,507,-10.0,200,0,0,556.5304,1,0,colocated,09_04_2014 level23_spatial_Mini 13_52 log.txt,37,37,1216,67.0,0.0,2014-04-09,False,left
61,411.3458,1,437,2761,2975,4263,501,-10.0,200,0,0,414.9526,1,0,colocated,14_03_2014 level23_spatial_Mini 10_20 log.txt,37,37,1216,67.0,0.0,2014-03-14,False,left
58,1310.1473,0,437,2761,2975,4263,501,-10.0,200,0,0,1310.9956,1,0,colocated,26_11_2014 level23_spatial_Mini 15_54 log.txt,37,37,1216,67.0,0.0,2014-11-26,False,left
18,105.5295,0,437,2761,2975,4263,504,-10.0,200,0,0,106.606,1,0,colocated,10_07_2014 level23_spatial_Mini 14_03 log.txt,37,37,1216,67.0,0.0,2014-07-10,False,left
65,595.3043,0,437,2761,2975,4263,503,-10.0,200,0,1,596.2282,0,0,colocated,08_08_2014 level23_spatial_Mini 15_09 log.txt,37,37,1216,67.0,0.0,2014-08-08,False,left
112,1156.6644,1,437,2761,2975,4263,501,-10.0,200,0,0,1157.3916,1,0,colocated,21_11_2014 level23_spatial_Mini 08_48 log.txt,37,37,1216,67.0,0.0,2014-11-21,False,left
45,457.8904,1,437,2761,2975,4263,526,-10.0,200,0,0,458.5508,1,0,colocated,26_11_2014 level23_spatial_Mini 09_38 log.txt,37,37,1216,67.0,0.0,2014-11-26,False,left
45,457.8904,1,437,2761,2975,4263,526,-10.0,200,0,0,458.5508,1,0,colocated,26_11_2014 level23_spatial_Mini 09_38 log.txt,37,37,1216,67.0,0.0,2014-11-26,False,left
58,1310.1473,0,437,2761,2975,4263,501,-10.0,200,0,0,1310.9956,1,0,colocated,26_11_2014 level23_spatial_Mini 15_54 log.txt,37,37,1216,67.0,0.0,2014-11-26,False,left
119,1184.7985,0,437,2761,2975,4263,701,-10.0,200,0,1,1185.7396,0,0,colocated,21_11_2014 level23_spatial_Mini 14_01 log.txt,37,37,1216,67.0,0.0,2014-11-21,False,left
45,457.8904,1,437,2761,2975,4263,526,-10.0,200,0,0,458.5508,1,0,colocated,26_11_2014 level23_spatial_Mini 09_38 log.txt,37,37,1216,67.0,0.0,2014-11-26,False,left
18,105.5295,0,437,2761,2975,4263,504,-10.0,200,0,0,106.606,1,0,colocated,10_07_2014 level23_spatial_Mini 14_03 log.txt,37,37,1216,67.0,0.0,2014-07-10,False,left
65,595.3043,0,437,2761,2975,4263,503,-10.0,200,0,1,596.2282,0,0,colocated,08_08_2014 level23_spatial_Mini 15_09 log.txt,37,37,1216,67.0,0.0,2014-08-08,False,left
71,477.6455,0,936,1551,2975,4263,511,-10.0,200,1,0,478.9914,0,0,colocated,14_03_2014 level23_spatial_Mini 10_20 log.txt,37,37,1216,67.0,0.0,2014-03-14,False,left
17,141.4542,0,936,1551,2975,4263,726,-10.0,200,1,0,141.8894,0,0,colocated,05_12_2014 level23_spatial_Mini 09_42 log.txt,37,37,1216,67.0,0.0,2014-12-05,False,left
41,395.1469,0,936,1551,2975,4263,509,-10.0,200,1,1,396.3275,1,0,colocated,19_11_2014 level23_spatial_Mini 13_54 log.txt,37,37,1216,67.0,0.0,2014-11-19,False,left
6,133.5527,0,936,1551,2975,4263,504,-10.0,200,1,0,135.2774,0,0,colocated,13_12_2013 level23_spatial_Mini 09_07 log.txt,37,37,1216,67.0,0.0,2013-12-13,False,left
53,306.7971,1,936,1551,2975,4263,511,-10.0,200,1,1,309.9361,1,0,colocated,11_03_2014 level23_spatial_Mini 17_07 log.txt,37,37,1216,67.0,0.0,2014-03-11,False,left
6,37.9373,0,936,1551,2975,4263,510,-10.0,200,1,1,38.902,1,0,colocated,10_07_2014 level23_spatial_Mini 14_03 log.txt,37,37,1216,67.0,0.0,2014-07-10,False,left
62,418.0334,1,936,1551,2975,4263,508,-10.0,200,1,1,421.1637,1,0,colocated,04_02_2014 level23_spatial_Mini 10_44 log.txt,37,37,1216,67.0,0.0,2014-02-04,False,left
33,1228.9987,1,936,1551,2975,4263,507,-10.0,200,1,0,1231.945,0,0,colocated,24_04_2014 level23_spatial_Mini 14_13 log.txt,37,37,1216,67.0,0.0,2014-04-24,False,left
3,19.3274,0,936,1551,2975,4263,506,-10.0,200,1,1,22.756,1,0,colocated,11_03_2014 level23_spatial_Mini 10_12 log.txt,37,37,1216,67.0,0.0,2014-03-11,False,left
83,651.3062,1,936,1551,2975,4263,626,-10.0,200,1,1,651.9597,1,0,colocated,15_12_2014 level23_spatial_Mini 14_12 log.txt,37,37,1216,67.0,0.0,2014-12-15,False,left
82,827.9844,1,936,1551,2975,4263,511,-10.0,200,1,0,828.6711,0,0,colocated,13_12_2013 level23_spatial_Mini 09_07 log.txt,37,37,1216,67.0,0.0,2013-12-13,False,left
41,395.1469,0,936,1551,2975,4263,509,-10.0,200,1,1,396.3275,1,0,colocated,19_11_2014 level23_spatial_Mini 13_54 log.txt,37,37,1216,67.0,0.0,2014-11-19,False,left
53,306.7971,1,936,1551,2975,4263,511,-10.0,200,1,1,309.9361,1,0,colocated,11_03_2014 level23_spatial_Mini 17_07 log.txt,37,37,1216,67.0,0.0,2014-03-11,False,left
56,484.2621,0,936,1551,2975,4263,511,-10.0,200,1,1,485.3617,1,0,colocated,17_11_2014 level23_spatial_Mini 10_07 log.txt,37,37,1216,67.0,0.0,2014-11-17,False,left
54,464.7917,0,936,1551,2975,4263,501,-10.0,200,1,1,465.3731,1,0,colocated,02_12_2014 level23_spatial_Mini 14_57 log.txt,37,37,1216,67.0,0.0,2014-12-02,False,left
86,416.2755,0,936,1551,2975,4263,501,-10.0,200,1,0,416.3333,0,0,colocated,13_03_2014 level23_spatial_Mini 16_17 log.txt,37,37,1216,67.0,0.0,2014-03-13,False,left
18,220.9626,0,936,1551,2975,4263,501,-10.0,200,1,1,221.44,1,0,colocated,15_12_2014 level23_spatial_Mini 08_39 log.txt,37,37,1216,67.0,0.0,2014-12-15,False,left
19,99.4682,1,936,1551,2975,4263,506,-10.0,200,1,1,101.9583,1,0,colocated,14_03_2014 level23_spatial_Mini 15_38 log.txt,37,37,1216,67.0,0.0,2014-03-14,False,left
38,207.3774,1,936,1551,2975,4263,501,-10.0,200,1,1,209.9177,1,0,colocated,30_10_2014 level23_spatial_Mini 08_01 log.txt,37,37,1216,67.0,0.0,2014-10-30,False,left
52,322.9285,1,936,1551,2975,4263,503,-10.0,200,1,1,325.2856,1,0,colocated,23_04_2014 level23_spatial_Mini 15_38 log.txt,37,37,1216,67.0,0.0,2014-04-23,False,left
71,477.6455,0,936,1551,2975,4263,511,-10.0,200,1,0,478.9914,0,0,colocated,14_03_2014 level23_spatial_Mini 10_20 log.txt,37,37,1216,67.0,0.0,2014-03-14,False,left
24,188.4138,1,936,1551,2975,4263,511,-10.0,200,1,1,190.8445,1,0,colocated,10_04_2014 level23_spatial_Mini 14_53 log.txt,37,37,1216,67.0,0.0,2014-04-10,False,left
41,395.1469,0,936,1551,2975,4263,509,-10.0,200,1,1,396.3275,1,0,colocated,19_11_2014 level23_spatial_Mini 13_54 log.txt,37,37,1216,67.0,0.0,2014-11-19,False,left
75,1315.7428,1,936,1551,2975,4263,505,-10.0,200,1,1,1319.4235,1,0,colocated,25_04_2014 level23_spatial_Mini 10_51 log.txt,37,37,1216,67.0,0.0,2014-04-25,False,left
82,827.9844,1,936,1551,2975,4263,511,-10.0,200,1,0,828.6711,0,0,colocated,13_12_2013 level23_spatial_Mini 09_07 log.txt,37,37,1216,67.0,0.0,2013-12-13,False,left
29,607.7368,0,936,1551,2975,4263,510,-10.0,200,1,1,608.7616,1,0,colocated,23_04_2014 level23_spatial_Mini 11_32 log.txt,37,37,1216,67.0,0.0,2014-04-23,False,left
76,876.6592,0,936,1551,2975,4263,601,-10.0,200,1,1,877.8505,1,0,colocated,21_11_2014 level23_spatial_Mini 08_48 log.txt,37,37,1216,67.0,0.0,2014-11-21,False,left
52,322.9285,1,936,1551,2975,4263,503,-10.0,200,1,1,325.2856,1,0,colocated,23_04_2014 level23_spatial_Mini 15_38 log.txt,37,37,1216,67.0,0.0,2014-04-23,False,left
49,360.3868,1,936,1551,2975,4263,507,-10.0,200,1,1,365.8604,1,0,colocated,24_03_2014 level23_spatial_Mini 14_04 log.txt,37,37,1216,67.0,0.0,2014-03-24,False,left
99,794.4051,0,437,2761,2975,4263,751,-10.0,200,0,0,794.6795,1,1,colocated,26_11_2014 level23_spatial_Mini 09_38 log.txt,37,37,1216,67.0,0.0,2014-11-26,False,right
58,421.8559,0,437,2761,2975,4263,676,-10.0,200,0,0,423.412,1,1,colocated,27_11_2014 level23_spatial_Mini 09_32 log.txt,37,37,1216,67.0,0.0,2014-11-27,False,right
63,515.5213,0,437,2761,2975,4263,751,-10.0,200,0,0,515.9914,1,1,colocated,05_12_2014 level23_spatial_Mini 09_42 log.txt,37,37,1216,67.0,0.0,2014-12-05,False,right
67,559.7198,0,437,2761,2975,4263,551,-10.0,200,0,0,560.4838,1,1,colocated,15_12_2014 level23_spatial_Mini 14_12 log.txt,37,37,1216,67.0,0.0,2014-12-15,False,right
78,621.3281,0,437,2761,2975,4263,504,-10.0,200,0,0,622.3287,1,1,colocated,17_11_2014 level23_spatial_Mini 10_07 log.txt,37,37,1216,67.0,0.0,2014-11-17,False,right
23,136.3018,1,437,2761,2975,4263,510,-10.0,200,0,1,138.5071,0,1,colocated,11_03_2014 level23_spatial_Mini 17_07 log.txt,37,37,1216,67.0,0.0,2014-03-11,False,right
32,970.9382,0,437,2761,2975,4263,508,-10.0,200,0,1,971.9148,0,1,colocated,25_04_2014 level23_spatial_Mini 10_51 log.txt,37,37,1216,67.0,0.0,2014-04-25,False,right
36,647.0946,0,437,2761,2975,4263,751,-10.0,200,0,0,647.4247,1,1,colocated,04_12_2014 level23_spatial_Mini 16_20 log.txt,37,37,1216,67.0,0.0,2014-12-04,False,right
81,527.8366,0,437,2761,2975,4263,502,-10.0,200,0,1,529.4111,0,1,colocated,14_03_2014 level23_spatial_Mini 10_20 log.txt,37,37,1216,67.0,0.0,2014-03-14,False,right
99,849.3769,0,437,2761,2975,4263,701,-10.0,200,0,1,850.7588,0,1,colocated,15_12_2014 level23_spatial_Mini 08_39 log.txt,37,37,1216,67.0,0.0,2014-12-15,False,right
67,823.3619,0,437,2761,2975,4263,509,-10.0,200,0,1,824.9866,0,1,colocated,23_04_2014 level23_spatial_Mini 11_32 log.txt,37,37,1216,67.0,0.0,2014-04-23,False,right
81,527.8366,0,437,2761,2975,4263,502,-10.0,200,0,1,529.4111,0,1,colocated,14_03_2014 level23_spatial_Mini 10_20 log.txt,37,37,1216,67.0,0.0,2014-03-14,False,right
102,565.8363,1,437,2761,2975,4263,504,-10.0,200,0,0,568.4621,1,1,colocated,17_11_2014 level23_spatial_Mini 15_46 log.txt,37,37,1216,67.0,0.0,2014-11-17,False,right
23,136.3018,1,437,2761,2975,4263,510,-10.0,200,0,1,138.5071,0,1,colocated,11_03_2014 level23_spatial_Mini 17_07 log.txt,37,37,1216,67.0,0.0,2014-03-11,False,right
114,1127.1908,1,437,2761,2975,4263,505,-10.0,200,0,1,1127.7857,0,1,colocated,23_04_2014 level23_spatial_Mini 11_32 log.txt,37,37,1216,67.0,0.0,2014-04-23,False,right
18,247.1411,0,437,2761,2975,4263,626,-10.0,200,0,0,247.5444,1,1,colocated,26_11_2014 level23_spatial_Mini 09_38 log.txt,37,37,1216,67.0,0.0,2014-11-26,False,right
114,1127.1908,1,437,2761,2975,4263,505,-10.0,200,0,1,1127.7857,0,1,colocated,23_04_2014 level23_spatial_Mini 11_32 log.txt,37,37,1216,67.0,0.0,2014-04-23,False,right
94,495.8998,0,437,2761,2975,4263,502,-10.0,200,0,1,496.7052,0,1,colocated,08_07_2014 level23_spatial_Mini 17_43 log.txt,37,37,1216,67.0,0.0,2014-07-08,False,right
36,647.0946,0,437,2761,2975,4263,751,-10.0,200,0,0,647.4247,1,1,colocated,04_12_2014 level23_spatial_Mini 16_20 log.txt,37,37,1216,67.0,0.0,2014-12-04,False,right
94,495.8998,0,437,2761,2975,4263,502,-10.0,200,0,1,496.7052,0,1,colocated,08_07_2014 level23_spatial_Mini 17_43 log.txt,37,37,1216,67.0,0.0,2014-07-08,False,right
58,421.8559,0,437,2761,2975,4263,676,-10.0,200,0,0,423.412,1,1,colocated,27_11_2014 level23_spatial_Mini 09_32 log.txt,37,37,1216,67.0,0.0,2014-11-27,False,right
53,563.5251,1,437,2761,2975,4263,501,-10.0,200,0,1,564.2458,0,1,colocated,28_11_2014 level23_spatial_Mini 09_17 log.txt,37,37,1216,67.0,0.0,2014-11-28,False,right
79,911.8514,0,437,2761,2975,4263,505,-10.0,200,0,1,912.8035,0,1,colocated,14_03_2014 level23_spatial_Mini 15_38 log.txt,37,37,1216,67.0,0.0,2014-03-14,False,right
94,495.8998,0,437,2761,2975,4263,502,-10.0,200,0,1,496.7052,0,1,colocated,08_07_2014 level23_spatial_Mini 17_43 log.txt,37,37,1216,67.0,0.0,2014-07-08,False,right
18,247.1411,0,437,2761,2975,4263,626,-10.0,200,0,0,247.5444,1,1,colocated,26_11_2014 level23_spatial_Mini 09_38 log.txt,37,37,1216,67.0,0.0,2014-11-26,False,right
63,515.5213,0,437,2761,2975,4263,751,-10.0,200,0,0,515.9914,1,1,colocated,05_12_2014 level23_spatial_Mini 09_42 log.txt,37,37,1216,67.0,0.0,2014-12-05,False,right
96,806.3948,0,437,2761,2975,4263,701,-10.0,200,0,0,807.1112,1,1,colocated,28_11_2014 level23_spatial_Mini 09_17 log.txt,37,37,1216,67.0,0.0,2014-11-28,False,right
23,206.5203,0,437,2761,2975,4263,551,-10.0,200,0,0,207.8551,1,1,colocated,03_12_2014 level23_spatial_Mini 15_56 log.txt,37,37,1216,67.0,0.0,2014-12-03,False,right
78,621.3281,0,437,2761,2975,4263,504,-10.0,200,0,0,622.3287,1,1,colocated,17_11_2014 level23_spatial_Mini 10_07 log.txt,37,37,1216,67.0,0.0,2014-11-17,False,right
44,407.1997,0,936,1551,2975,4263,503,-10.0,200,1,1,408.1634,1,1,colocated,19_11_2014 level23_spatial_Mini 13_54 log.txt,37,37,1216,67.0,0.0,2014-11-19,False,right
1,432.7522,0,936,1551,2975,4263,501,-10.0,200,1,1,434.6903,1,1,colocated,23_04_2014 level23_spatial_Mini 11_32 log.txt,37,37,1216,67.0,0.0,2014-04-23,False,right
7,76.2895,1,936,1551,2975,4263,626,-10.0,200,1,0,76.5836,0,1,colocated,05_12_2014 level23_spatial_Mini 09_42 log.txt,37,37,1216,67.0,0.0,2014-12-05,False,right
75,590.6244,0,936,1551,2975,4263,551,-10.0,200,1,1,592.1144,1,1,colocated,03_12_2014 level23_spatial_Mini 15_56 log.txt,37,37,1216,67.0,0.0,2014-12-03,False,right
13,122.1754,0,936,1551,2975,4263,510,-10.0,200,1,0,123.3845,0,1,colocated,10_04_2014 level23_spatial_Mini 14_53 log.txt,37,37,1216,67.0,0.0,2014-04-10,False,right
81,450.2914,1,936,1551,2975,4263,507,-10.0,200,1,0,452.1306,0,1,colocated,17_11_2014 level23_spatial_Mini 15_46 log.txt,37,37,1216,67.0,0.0,2014-11-17,False,right
104,681.8234,0,936,1551,2975,4263,503,-10.0,200,1,1,682.6415,1,1,colocated,04_02_2014 level23_spatial_Mini 10_44 log.txt,37,37,1216,67.0,0.0,2014-02-04,False,right
16,373.3612,0,936,1551,2975,4263,676,-10.0,200,1,1,374.0233,1,1,colocated,21_11_2014 level23_spatial_Mini 08_48 log.txt,37,37,1216,67.0,0.0,2014-11-21,False,right
75,590.6244,0,936,1551,2975,4263,551,-10.0,200,1,1,592.1144,1,1,colocated,03_12_2014 level23_spatial_Mini 15_56 log.txt,37,37,1216,67.0,0.0,2014-12-03,False,right
40,220.6906,0,936,1551,2975,4263,507,-10.0,200,1,1,222.0149,1,1,colocated,30_10_2014 level23_spatial_Mini 08_01 log.txt,37,37,1216,67.0,0.0,2014-10-30,False,right
5,114.8369,0,936,1551,2975,4263,501,-10.0,200,1,1,116.9181,1,1,colocated,31_03_2014 level23_spatial_Mini 15_41 log.txt,37,37,1216,67.0,0.0,2014-03-31,False,right
44,1360.5688,0,936,1551,2975,4263,506,-10.0,200,1,-1,-1.0,0,1,colocated,24_04_2014 level23_spatial_Mini 14_13 log.txt,37,37,1216,67.0,0.0,2014-04-24,False,right
13,122.1754,0,936,1551,2975,4263,510,-10.0,200,1,0,123.3845,0,1,colocated,10_04_2014 level23_spatial_Mini 14_53 log.txt,37,37,1216,67.0,0.0,2014-04-10,False,right
56,554.7459,0,936,1551,2975,4263,726,-10.0,200,1,1,555.1995,1,1,colocated,15_12_2014 level23_spatial_Mini 08_39 log.txt,37,37,1216,67.0,0.0,2014-12-15,False,right
75,590.6244,0,936,1551,2975,4263,551,-10.0,200,1,1,592.1144,1,1,colocated,03_12_2014 level23_spatial_Mini 15_56 log.txt,37,37,1216,67.0,0.0,2014-12-03,False,right
1,1.46,0,936,1551,2975,4263,502,-10.0,200,1,0,1.5362,0,1,colocated,13_03_2014 level23_spatial_Mini 16_17 log.txt,37,37,1216,67.0,0.0,2014-03-13,False,right
7,76.2895,1,936,1551,2975,4263,626,-10.0,200,1,0,76.5836,0,1,colocated,05_12_2014 level23_spatial_Mini 09_42 log.txt,37,37,1216,67.0,0.0,2014-12-05,False,right
9,127.0699,1,936,1551,2975,4263,501,-10.0,200,1,0,129.7505,0,1,colocated,27_11_2014 level23_spatial_Mini 15_16 log.txt,37,37,1216,67.0,0.0,2014-11-27,False,right
44,407.1997,0,936,1551,2975,4263,503,-10.0,200,1,1,408.1634,1,1,colocated,19_11_2014 level23_spatial_Mini 13_54 log.txt,37,37,1216,67.0,0.0,2014-11-19,False,right
16,373.3612,0,936,1551,2975,4263,676,-10.0,200,1,1,374.0233,1,1,colocated,21_11_2014 level23_spatial_Mini 08_48 log.txt,37,37,1216,67.0,0.0,2014-11-21,False,right
75,590.6244,0,936,1551,2975,4263,551,-10.0,200,1,1,592.1144,1,1,colocated,03_12_2014 level23_spatial_Mini 15_56 log.txt,37,37,1216,67.0,0.0,2014-12-03,False,right
31,612.301,0,936,1551,2975,4263,626,-10.0,200,1,0,613.7352,0,1,colocated,04_12_2014 level23_spatial_Mini 16_20 log.txt,37,37,1216,67.0,0.0,2014-12-04,False,right
84,472.0751,1,936,1551,2975,4263,510,-10.0,200,1,1,474.2404,1,1,colocated,31_10_2014 level23_spatial_Mini 08_56 log.txt,37,37,1216,67.0,0.0,2014-10-31,False,right
1,1.46,0,936,1551,2975,4263,502,-10.0,200,1,0,1.5362,0,1,colocated,13_03_2014 level23_spatial_Mini 16_17 log.txt,37,37,1216,67.0,0.0,2014-03-13,False,right
99,633.3339,0,936,1551,2975,4263,501,-10.0,200,1,1,634.4153,1,1,colocated,14_03_2014 level23_spatial_Mini 10_20 log.txt,37,37,1216,67.0,0.0,2014-03-14,False,right
44,407.1997,0,936,1551,2975,4263,503,-10.0,200,1,1,408.1634,1,1,colocated,19_11_2014 level23_spatial_Mini 13_54 log.txt,37,37,1216,67.0,0.0,2014-11-19,False,right
5,114.8369,0,936,1551,2975,4263,501,-10.0,200,1,1,116.9181,1,1,colocated,31_03_2014 level23_spatial_Mini 15_41 log.txt,37,37,1216,67.0,0.0,2014-03-31,False,right
40,274.6486,1,936,1551,2975,4263,511,-10.0,200,1,1,276.8813,1,1,colocated,11_03_2014 level23_spatial_Mini 10_12 log.txt,37,37,1216,67.0,0.0,2014-03-11,False,right
7,76.2895,1,936,1551,2975,4263,626,-10.0,200,1,0,76.5836,0,1,colocated,05_12_2014 level23_spatial_Mini 09_42 log.txt,37,37,1216,67.0,0.0,2014-12-05,False,right
63,619.1762,0,437,2761,2975,4263,551,-11.0,200,0,0,620.4615,1,0,colocated,15_12_2014 level23_spatial_Mini 08_39 log.txt,37,37,1216,68.0,1.0,2014-12-15,False,left
89,699.9782,0,437,2761,2975,4263,601,-11.0,200,0,0,700.3464,1,0,colocated,05_12_2014 level23_spatial_Mini 09_42 log.txt,37,37,1216,68.0,1.0,2014-12-05,False,left
83,704.3096,0,437,2761,2975,4263,626,-11.0,200,0,1,705.1534,0,0,colocated,26_11_2014 level23_spatial_Mini 09_38 log.txt,37,37,1216,68.0,1.0,2014-11-26,False,left
83,704.3096,0,437,2761,2975,4263,626,-11.0,200,0,1,705.1534,0,0,colocated,26_11_2014 level23_spatial_Mini 09_38 log.txt,37,37,1216,68.0,1.0,2014-11-26,False,left
60,519.7917,0,437,2761,2975,4263,601,-11.0,200,0,0,520.3001,1,0,colocated,15_12_2014 level23_spatial_Mini 14_12 log.txt,37,37,1216,68.0,1.0,2014-12-15,False,left
89,699.9782,0,437,2761,2975,4263,601,-11.0,200,0,0,700.3464,1,0,colocated,05_12_2014 level23_spatial_Mini 09_42 log.txt,37,37,1216,68.0,1.0,2014-12-05,False,left
6,291.2312,0,437,2761,2975,4263,526,-11.0,200,0,0,293.0822,1,0,colocated,21_11_2014 level23_spatial_Mini 08_48 log.txt,37,37,1216,68.0,1.0,2014-11-21,False,left
89,699.9782,0,437,2761,2975,4263,601,-11.0,200,0,0,700.3464,1,0,colocated,05_12_2014 level23_spatial_Mini 09_42 log.txt,37,37,1216,68.0,1.0,2014-12-05,False,left
83,704.3096,0,437,2761,2975,4263,626,-11.0,200,0,1,705.1534,0,0,colocated,26_11_2014 level23_spatial_Mini 09_38 log.txt,37,37,1216,68.0,1.0,2014-11-26,False,left
100,737.8887,0,437,2761,2975,4263,601,-11.0,200,0,1,739.1293,0,0,colocated,15_12_2014 level23_spatial_Mini 14_12 log.txt,37,37,1216,68.0,1.0,2014-12-15,False,left
77,850.8412,0,437,2761,2975,4263,526,-11.0,200,0,0,851.7132,1,0,colocated,21_11_2014 level23_spatial_Mini 14_01 log.txt,37,37,1216,68.0,1.0,2014-11-21,False,left
83,704.3096,0,437,2761,2975,4263,626,-11.0,200,0,1,705.1534,0,0,colocated,26_11_2014 level23_spatial_Mini 09_38 log.txt,37,37,1216,68.0,1.0,2014-11-26,False,left
31,291.444,0,437,2761,2975,4263,676,-11.0,200,0,0,292.6366,1,0,colocated,27_11_2014 level23_spatial_Mini 15_16 log.txt,37,37,1216,68.0,1.0,2014-11-27,False,left
68,600.6496,0,437,2761,2975,4263,751,-11.0,200,0,0,601.1834,1,0,colocated,26_11_2014 level23_spatial_Mini 09_38 log.txt,37,37,1216,68.0,1.0,2014-11-26,False,left
76,886.3516,0,437,2761,2975,4263,676,-11.0,200,0,0,886.8776,1,0,colocated,04_12_2014 level23_spatial_Mini 16_20 log.txt,37,37,1216,68.0,1.0,2014-12-04,False,left
60,519.7917,0,437,2761,2975,4263,601,-11.0,200,0,0,520.3001,1,0,colocated,15_12_2014 level23_spatial_Mini 14_12 log.txt,37,37,1216,68.0,1.0,2014-12-15,False,left
60,519.7917,0,437,2761,2975,4263,601,-11.0,200,0,0,520.3001,1,0,colocated,15_12_2014 level23_spatial_Mini 14_12 log.txt,37,37,1216,68.0,1.0,2014-12-15,False,left
44,367.9044,0,437,2761,2975,4263,626,-11.0,200,0,0,368.22,1,0,colocated,05_12_2014 level23_spatial_Mini 09_42 log.txt,37,37,1216,68.0,1.0,2014-12-05,False,left
60,1320.8407,0,437,2761,2975,4263,516,-11.0,200,0,0,1321.5044,1,0,colocated,26_11_2014 level23_spatial_Mini 15_54 log.txt,37,37,1216,68.0,1.0,2014-11-26,False,left
83,704.3096,0,437,2761,2975,4263,626,-11.0,200,0,1,705.1534,0,0,colocated,26_11_2014 level23_spatial_Mini 09_38 log.txt,37,37,1216,68.0,1.0,2014-11-26,False,left
6,291.2312,0,437,2761,2975,4263,526,-11.0,200,0,0,293.0822,1,0,colocated,21_11_2014 level23_spatial_Mini 08_48 log.txt,37,37,1216,68.0,1.0,2014-11-21,False,left
6,291.2312,0,437,2761,2975,4263,526,-11.0,200,0,0,293.0822,1,0,colocated,21_11_2014 level23_spatial_Mini 08_48 log.txt,37,37,1216,68.0,1.0,2014-11-21,False,left
6,291.2312,0,437,2761,2975,4263,526,-11.0,200,0,0,293.0822,1,0,colocated,21_11_2014 level23_spatial_Mini 08_48 log.txt,37,37,1216,68.0,1.0,2014-11-21,False,left
76,886.3516,0,437,2761,2975,4263,676,-11.0,200,0,0,886.8776,1,0,colocated,04_12_2014 level23_spatial_Mini 16_20 log.txt,37,37,1216,68.0,1.0,2014-12-04,False,left
76,886.3516,0,437,2761,2975,4263,676,-11.0,200,0,0,886.8776,1,0,colocated,04_12_2014 level23_spatial_Mini 16_20 log.txt,37,37,1216,68.0,1.0,2014-12-04,False,left
44,367.9044,0,437,2761,2975,4263,626,-11.0,200,0,0,368.22,1,0,colocated,05_12_2014 level23_spatial_Mini 09_42 log.txt,37,37,1216,68.0,1.0,2014-12-05,False,left
77,850.8412,0,437,2761,2975,4263,526,-11.0,200,0,0,851.7132,1,0,colocated,21_11_2014 level23_spatial_Mini 14_01 log.txt,37,37,1216,68.0,1.0,2014-11-21,False,left
95,816.1561,0,437,2761,2975,4263,626,-11.0,200,0,1,817.9132,0,0,colocated,15_12_2014 level23_spatial_Mini 08_39 log.txt,37,37,1216,68.0,1.0,2014-12-15,False,left
12,132.5208,0,437,2761,2975,4263,576,-11.0,200,0,0,133.0015,1,0,colocated,03_12_2014 level23_spatial_Mini 15_56 log.txt,37,37,1216,68.0,1.0,2014-12-03,False,left
20,529.6461,0,936,1551,2975,4263,651,-11.0,200,1,1,530.2466,1,0,colocated,04_12_2014 level23_spatial_Mini 16_20 log.txt,37,37,1216,68.0,1.0,2014-12-04,False,left
112,866.442,0,936,1551,2975,4263,576,-11.0,200,1,1,867.3722,1,0,colocated,26_11_2014 level23_spatial_Mini 09_38 log.txt,37,37,1216,68.0,1.0,2014-11-26,False,left
65,568.822,0,936,1551,2975,4263,751,-11.0,200,1,1,569.677,1,0,colocated,02_12_2014 level23_spatial_Mini 14_57 log.txt,37,37,1216,68.0,1.0,2014-12-02,False,left
20,529.6461,0,936,1551,2975,4263,651,-11.0,200,1,1,530.2466,1,0,colocated,04_12_2014 level23_spatial_Mini 16_20 log.txt,37,37,1216,68.0,1.0,2014-12-04,False,left
20,529.6461,0,936,1551,2975,4263,651,-11.0,200,1,1,530.2466,1,0,colocated,04_12_2014 level23_spatial_Mini 16_20 log.txt,37,37,1216,68.0,1.0,2014-12-04,False,left
43,439.9115,0,936,1551,2975,4263,576,-11.0,200,1,0,440.5903,0,0,colocated,26_11_2014 level23_spatial_Mini 09_38 log.txt,37,37,1216,68.0,1.0,2014-11-26,False,left
10,95.9005,0,936,1551,2975,4263,751,-11.0,200,1,1,96.4656,1,0,colocated,21_11_2014 level23_spatial_Mini 14_01 log.txt,37,37,1216,68.0,1.0,2014-11-21,False,left
20,529.6461,0,936,1551,2975,4263,651,-11.0,200,1,1,530.2466,1,0,colocated,04_12_2014 level23_spatial_Mini 16_20 log.txt,37,37,1216,68.0,1.0,2014-12-04,False,left
13,163.3662,0,936,1551,2975,4263,501,-11.0,200,1,0,163.9968,0,0,colocated,15_12_2014 level23_spatial_Mini 08_39 log.txt,37,37,1216,68.0,1.0,2014-12-15,False,left
10,302.9384,0,936,1551,2975,4263,526,-11.0,200,1,1,303.8213,1,0,colocated,28_11_2014 level23_spatial_Mini 09_17 log.txt,37,37,1216,68.0,1.0,2014-11-28,False,left
112,866.442,0,936,1551,2975,4263,576,-11.0,200,1,1,867.3722,1,0,colocated,26_11_2014 level23_spatial_Mini 09_38 log.txt,37,37,1216,68.0,1.0,2014-11-26,False,left
40,349.0071,0,936,1551,2975,4263,651,-11.0,200,1,0,349.7697,0,0,colocated,03_12_2014 level23_spatial_Mini 15_56 log.txt,37,37,1216,68.0,1.0,2014-12-03,False,left
13,163.3662,0,936,1551,2975,4263,501,-11.0,200,1,0,163.9968,0,0,colocated,15_12_2014 level23_spatial_Mini 08_39 log.txt,37,37,1216,68.0,1.0,2014-12-15,False,left
43,612.2043,0,936,1551,2975,4263,601,-11.0,200,1,1,613.0274,1,0,colocated,21_11_2014 level23_spatial_Mini 08_48 log.txt,37,37,1216,68.0,1.0,2014-11-21,False,left
43,439.9115,0,936,1551,2975,4263,576,-11.0,200,1,0,440.5903,0,0,colocated,26_11_2014 level23_spatial_Mini 09_38 log.txt,37,37,1216,68.0,1.0,2014-11-26,False,left
13,163.3662,0,936,1551,2975,4263,501,-11.0,200,1,0,163.9968,0,0,colocated,15_12_2014 level23_spatial_Mini 08_39 log.txt,37,37,1216,68.0,1.0,2014-12-15,False,left
65,547.524,0,936,1551,2975,4263,651,-11.0,200,1,1,548.3955,1,0,colocated,15_12_2014 level23_spatial_Mini 14_12 log.txt,37,37,1216,68.0,1.0,2014-12-15,False,left
52,1260.1796,0,936,1551,2975,4263,621,-11.0,200,1,0,1261.9112,0,0,colocated,26_11_2014 level23_spatial_Mini 15_54 log.txt,37,37,1216,68.0,1.0,2014-11-26,False,left
43,439.9115,0,936,1551,2975,4263,576,-11.0,200,1,0,440.5903,0,0,colocated,26_11_2014 level23_spatial_Mini 09_38 log.txt,37,37,1216,68.0,1.0,2014-11-26,False,left
10,95.9005,0,936,1551,2975,4263,751,-11.0,200,1,1,96.4656,1,0,colocated,21_11_2014 level23_spatial_Mini 14_01 log.txt,37,37,1216,68.0,1.0,2014-11-21,False,left
114,971.6852,0,936,1551,2975,4263,576,-11.0,200,1,1,972.1917,1,0,colocated,15_12_2014 level23_spatial_Mini 08_39 log.txt,37,37,1216,68.0,1.0,2014-12-15,False,left
65,568.822,0,936,1551,2975,4263,751,-11.0,200,1,1,569.677,1,0,colocated,02_12_2014 level23_spatial_Mini 14_57 log.txt,37,37,1216,68.0,1.0,2014-12-02,False,left
109,1138.6134,0,936,1551,2975,4263,526,-11.0,200,1,0,1139.4844,0,0,colocated,21_11_2014 level23_spatial_Mini 08_48 log.txt,37,37,1216,68.0,1.0,2014-11-21,False,left
40,349.0071,0,936,1551,2975,4263,651,-11.0,200,1,0,349.7697,0,0,colocated,03_12_2014 level23_spatial_Mini 15_56 log.txt,37,37,1216,68.0,1.0,2014-12-03,False,left
65,568.822,0,936,1551,2975,4263,751,-11.0,200,1,1,569.677,1,0,colocated,02_12_2014 level23_spatial_Mini 14_57 log.txt,37,37,1216,68.0,1.0,2014-12-02,False,left
108,800.4238,0,936,1551,2975,4263,526,-11.0,200,1,1,802.0027,1,0,colocated,05_12_2014 level23_spatial_Mini 09_42 log.txt,37,37,1216,68.0,1.0,2014-12-05,False,left
10,95.9005,0,936,1551,2975,4263,751,-11.0,200,1,1,96.4656,1,0,colocated,21_11_2014 level23_spatial_Mini 14_01 log.txt,37,37,1216,68.0,1.0,2014-11-21,False,left
20,529.6461,0,936,1551,2975,4263,651,-11.0,200,1,1,530.2466,1,0,colocated,04_12_2014 level23_spatial_Mini 16_20 log.txt,37,37,1216,68.0,1.0,2014-12-04,False,left
43,612.2043,0,936,1551,2975,4263,601,-11.0,200,1,1,613.0274,1,0,colocated,21_11_2014 level23_spatial_Mini 08_48 log.txt,37,37,1216,68.0,1.0,2014-11-21,False,left
70,1393.4671,0,437,2761,2975,4263,546,-11.0,200,0,0,1394.3451,1,1,colocated,26_11_2014 level23_spatial_Mini 15_54 log.txt,37,37,1216,68.0,1.0,2014-11-26,False,right
17,215.9299,0,437,2761,2975,4263,626,-11.0,200,0,0,216.2977,1,1,colocated,15_12_2014 level23_spatial_Mini 08_39 log.txt,37,37,1216,68.0,1.0,2014-12-15,False,right
2,17.3723,0,437,2761,2975,4263,526,-11.0,200,0,0,17.89,1,1,colocated,15_12_2014 level23_spatial_Mini 14_12 log.txt,37,37,1216,68.0,1.0,2014-12-15,False,right
69,497.6359,0,437,2761,2975,4263,626,-11.0,200,0,1,498.9415,0,1,colocated,27_11_2014 level23_spatial_Mini 09_32 log.txt,37,37,1216,68.0,1.0,2014-11-27,False,right
39,384.6352,0,437,2761,2975,4263,501,-11.0,200,0,1,385.1189,0,1,colocated,21_11_2014 level23_spatial_Mini 14_01 log.txt,37,37,1216,68.0,1.0,2014-11-21,False,right
59,547.7788,0,437,2761,2975,4263,576,-11.0,200,0,0,548.2263,1,1,colocated,26_11_2014 level23_spatial_Mini 09_38 log.txt,37,37,1216,68.0,1.0,2014-11-26,False,right
17,215.9299,0,437,2761,2975,4263,626,-11.0,200,0,0,216.2977,1,1,colocated,15_12_2014 level23_spatial_Mini 08_39 log.txt,37,37,1216,68.0,1.0,2014-12-15,False,right
81,643.2185,0,437,2761,2975,4263,551,-11.0,200,0,0,643.9803,1,1,colocated,05_12_2014 level23_spatial_Mini 09_42 log.txt,37,37,1216,68.0,1.0,2014-12-05,False,right
46,701.6648,0,437,2761,2975,4263,726,-11.0,200,0,0,702.064,1,1,colocated,04_12_2014 level23_spatial_Mini 16_20 log.txt,37,37,1216,68.0,1.0,2014-12-04,False,right
69,497.6359,0,437,2761,2975,4263,626,-11.0,200,0,1,498.9415,0,1,colocated,27_11_2014 level23_spatial_Mini 09_32 log.txt,37,37,1216,68.0,1.0,2014-11-27,False,right
69,497.6359,0,437,2761,2975,4263,626,-11.0,200,0,1,498.9415,0,1,colocated,27_11_2014 level23_spatial_Mini 09_32 log.txt,37,37,1216,68.0,1.0,2014-11-27,False,right
94,1027.5058,0,437,2761,2975,4263,651,-11.0,200,0,0,1028.0175,1,1,colocated,21_11_2014 level23_spatial_Mini 08_48 log.txt,37,37,1216,68.0,1.0,2014-11-21,False,right
17,215.9299,0,437,2761,2975,4263,626,-11.0,200,0,0,216.2977,1,1,colocated,15_12_2014 level23_spatial_Mini 08_39 log.txt,37,37,1216,68.0,1.0,2014-12-15,False,right
46,701.6648,0,437,2761,2975,4263,726,-11.0,200,0,0,702.064,1,1,colocated,04_12_2014 level23_spatial_Mini 16_20 log.txt,37,37,1216,68.0,1.0,2014-12-04,False,right
81,643.2185,0,437,2761,2975,4263,551,-11.0,200,0,0,643.9803,1,1,colocated,05_12_2014 level23_spatial_Mini 09_42 log.txt,37,37,1216,68.0,1.0,2014-12-05,False,right
91,794.4902,0,437,2761,2975,4263,551,-11.0,200,0,0,795.2823,1,1,colocated,15_12_2014 level23_spatial_Mini 08_39 log.txt,37,37,1216,68.0,1.0,2014-12-15,False,right
80,681.5845,0,437,2761,2975,4263,551,-11.0,200,0,1,682.506,0,1,colocated,26_11_2014 level23_spatial_Mini 09_38 log.txt,37,37,1216,68.0,1.0,2014-11-26,False,right
51,426.7826,0,437,2761,2975,4263,501,-11.0,200,0,0,427.4987,1,1,colocated,03_12_2014 level23_spatial_Mini 15_56 log.txt,37,37,1216,68.0,1.0,2014-12-03,False,right
30,442.811,0,437,2761,2975,4263,601,-11.0,200,0,0,443.7982,1,1,colocated,28_11_2014 level23_spatial_Mini 09_17 log.txt,37,37,1216,68.0,1.0,2014-11-28,False,right
30,242.479,0,437,2761,2975,4263,676,-11.0,200,0,0,243.2793,1,1,colocated,02_12_2014 level23_spatial_Mini 14_57 log.txt,37,37,1216,68.0,1.0,2014-12-02,False,right
86,745.5186,0,437,2761,2975,4263,501,-11.0,200,0,0,746.1463,1,1,colocated,28_11_2014 level23_spatial_Mini 09_17 log.txt,37,37,1216,68.0,1.0,2014-11-28,False,right
30,442.811,0,437,2761,2975,4263,601,-11.0,200,0,0,443.7982,1,1,colocated,28_11_2014 level23_spatial_Mini 09_17 log.txt,37,37,1216,68.0,1.0,2014-11-28,False,right
70,1393.4671,0,437,2761,2975,4263,546,-11.0,200,0,0,1394.3451,1,1,colocated,26_11_2014 level23_spatial_Mini 15_54 log.txt,37,37,1216,68.0,1.0,2014-11-26,False,right
70,1393.4671,0,437,2761,2975,4263,546,-11.0,200,0,0,1394.3451,1,1,colocated,26_11_2014 level23_spatial_Mini 15_54 log.txt,37,37,1216,68.0,1.0,2014-11-26,False,right
81,643.2185,0,437,2761,2975,4263,551,-11.0,200,0,0,643.9803,1,1,colocated,05_12_2014 level23_spatial_Mini 09_42 log.txt,37,37,1216,68.0,1.0,2014-12-05,False,right
51,426.7826,0,437,2761,2975,4263,501,-11.0,200,0,0,427.4987,1,1,colocated,03_12_2014 level23_spatial_Mini 15_56 log.txt,37,37,1216,68.0,1.0,2014-12-03,False,right
110,1101.1911,0,437,2761,2975,4263,701,-11.0,200,0,0,1102.0241,1,1,colocated,04_12_2014 level23_spatial_Mini 16_20 log.txt,37,37,1216,68.0,1.0,2014-12-04,False,right
94,1027.5058,0,437,2761,2975,4263,651,-11.0,200,0,0,1028.0175,1,1,colocated,21_11_2014 level23_spatial_Mini 08_48 log.txt,37,37,1216,68.0,1.0,2014-11-21,False,right
46,701.6648,0,437,2761,2975,4263,726,-11.0,200,0,0,702.064,1,1,colocated,04_12_2014 level23_spatial_Mini 16_20 log.txt,37,37,1216,68.0,1.0,2014-12-04,False,right
36,348.7016,0,936,1551,2975,4263,626,-11.0,200,1,1,349.224,1,1,colocated,15_12_2014 level23_spatial_Mini 14_12 log.txt,37,37,1216,68.0,1.0,2014-12-15,False,right
43,686.094,0,936,1551,2975,4263,651,-11.0,200,1,1,686.8295,1,1,colocated,04_12_2014 level23_spatial_Mini 16_20 log.txt,37,37,1216,68.0,1.0,2014-12-04,False,right
36,348.7016,0,936,1551,2975,4263,626,-11.0,200,1,1,349.224,1,1,colocated,15_12_2014 level23_spatial_Mini 14_12 log.txt,37,37,1216,68.0,1.0,2014-12-15,False,right
36,348.7016,0,936,1551,2975,4263,626,-11.0,200,1,1,349.224,1,1,colocated,15_12_2014 level23_spatial_Mini 14_12 log.txt,37,37,1216,68.0,1.0,2014-12-15,False,right
117,1191.3668,0,936,1551,2975,4263,751,-11.0,200,1,1,1191.7657,1,1,colocated,21_11_2014 level23_spatial_Mini 08_48 log.txt,37,37,1216,68.0,1.0,2014-11-21,False,right
24,250.3884,0,936,1551,2975,4263,751,-11.0,200,1,0,250.6767,0,1,colocated,21_11_2014 level23_spatial_Mini 14_01 log.txt,37,37,1216,68.0,1.0,2014-11-21,False,right
36,348.7016,0,936,1551,2975,4263,626,-11.0,200,1,1,349.224,1,1,colocated,15_12_2014 level23_spatial_Mini 14_12 log.txt,37,37,1216,68.0,1.0,2014-12-15,False,right
73,673.3471,0,936,1551,2975,4263,501,-11.0,200,1,1,674.0808,1,1,colocated,15_12_2014 level23_spatial_Mini 08_39 log.txt,37,37,1216,68.0,1.0,2014-12-15,False,right
19,152.4096,0,936,1551,2975,4263,751,-11.0,200,1,0,152.9842,0,1,colocated,02_12_2014 level23_spatial_Mini 14_57 log.txt,37,37,1216,68.0,1.0,2014-12-02,False,right
76,615.0985,0,936,1551,2975,4263,676,-11.0,200,1,1,615.5242,1,1,colocated,15_12_2014 level23_spatial_Mini 14_12 log.txt,37,37,1216,68.0,1.0,2014-12-15,False,right
39,575.7663,0,936,1551,2975,4263,501,-11.0,200,1,0,576.1271,0,1,colocated,21_11_2014 level23_spatial_Mini 08_48 log.txt,37,37,1216,68.0,1.0,2014-11-21,False,right
69,551.7496,0,936,1551,2975,4263,501,-11.0,200,1,0,551.7514,0,1,colocated,05_12_2014 level23_spatial_Mini 09_42 log.txt,37,37,1216,68.0,1.0,2014-12-05,False,right
73,673.3471,0,936,1551,2975,4263,501,-11.0,200,1,1,674.0808,1,1,colocated,15_12_2014 level23_spatial_Mini 08_39 log.txt,37,37,1216,68.0,1.0,2014-12-15,False,right
22,217.7837,0,936,1551,2975,4263,726,-11.0,200,1,1,218.5482,1,1,colocated,27_11_2014 level23_spatial_Mini 15_16 log.txt,37,37,1216,68.0,1.0,2014-11-27,False,right
36,348.7016,0,936,1551,2975,4263,626,-11.0,200,1,1,349.224,1,1,colocated,15_12_2014 level23_spatial_Mini 14_12 log.txt,37,37,1216,68.0,1.0,2014-12-15,False,right
102,866.8278,1,936,1551,2975,4263,676,-11.0,200,1,0,868.496,0,1,colocated,15_12_2014 level23_spatial_Mini 08_39 log.txt,37,37,1216,68.0,1.0,2014-12-15,False,right
25,219.1246,0,936,1551,2975,4263,651,-11.0,200,1,0,219.3926,0,1,colocated,03_12_2014 level23_spatial_Mini 15_56 log.txt,37,37,1216,68.0,1.0,2014-12-03,False,right
13,204.5056,0,936,1551,2975,4263,726,-11.0,200,1,0,204.9989,0,1,colocated,26_11_2014 level23_spatial_Mini 09_38 log.txt,37,37,1216,68.0,1.0,2014-11-26,False,right
117,1191.3668,0,936,1551,2975,4263,751,-11.0,200,1,1,1191.7657,1,1,colocated,21_11_2014 level23_spatial_Mini 08_48 log.txt,37,37,1216,68.0,1.0,2014-11-21,False,right
25,219.1246,0,936,1551,2975,4263,651,-11.0,200,1,0,219.3926,0,1,colocated,03_12_2014 level23_spatial_Mini 15_56 log.txt,37,37,1216,68.0,1.0,2014-12-03,False,right
69,551.7496,0,936,1551,2975,4263,501,-11.0,200,1,0,551.7514,0,1,colocated,05_12_2014 level23_spatial_Mini 09_42 log.txt,37,37,1216,68.0,1.0,2014-12-05,False,right
73,673.3471,0,936,1551,2975,4263,501,-11.0,200,1,1,674.0808,1,1,colocated,15_12_2014 level23_spatial_Mini 08_39 log.txt,37,37,1216,68.0,1.0,2014-12-15,False,right
69,551.7496,0,936,1551,2975,4263,501,-11.0,200,1,0,551.7514,0,1,colocated,05_12_2014 level23_spatial_Mini 09_42 log.txt,37,37,1216,68.0,1.0,2014-12-05,False,right
69,551.7496,0,936,1551,2975,4263,501,-11.0,200,1,0,551.7514,0,1,colocated,05_12_2014 level23_spatial_Mini 09_42 log.txt,37,37,1216,68.0,1.0,2014-12-05,False,right
97,994.2562,0,936,1551,2975,4263,526,-11.0,200,1,0,994.6734,0,1,colocated,21_11_2014 level23_spatial_Mini 14_01 log.txt,37,37,1216,68.0,1.0,2014-11-21,False,right
36,348.7016,0,936,1551,2975,4263,626,-11.0,200,1,1,349.224,1,1,colocated,15_12_2014 level23_spatial_Mini 14_12 log.txt,37,37,1216,68.0,1.0,2014-12-15,False,right
102,866.8278,1,936,1551,2975,4263,676,-11.0,200,1,0,868.496,0,1,colocated,15_12_2014 level23_spatial_Mini 08_39 log.txt,37,37,1216,68.0,1.0,2014-12-15,False,right
76,615.0985,0,936,1551,2975,4263,676,-11.0,200,1,1,615.5242,1,1,colocated,15_12_2014 level23_spatial_Mini 14_12 log.txt,37,37,1216,68.0,1.0,2014-12-15,False,right
22,217.7837,0,936,1551,2975,4263,726,-11.0,200,1,1,218.5482,1,1,colocated,27_11_2014 level23_spatial_Mini 15_16 log.txt,37,37,1216,68.0,1.0,2014-11-27,False,right
97,1017.395,0,437,2761,2975,4263,551,-12.0,200,0,0,1018.3719,1,0,colocated,04_12_2014 level23_spatial_Mini 16_20 log.txt,37,37,1216,69.0,2.0,2014-12-04,False,left
87,918.692,0,437,2761,2975,4263,551,-12.0,200,0,0,918.7552,1,0,colocated,21_11_2014 level23_spatial_Mini 14_01 log.txt,37,37,1216,69.0,2.0,2014-11-21,False,left
75,690.1531,0,437,2761,2975,4263,701,-12.0,200,0,0,690.9303,1,0,colocated,15_12_2014 level23_spatial_Mini 08_39 log.txt,37,37,1216,69.0,2.0,2014-12-15,False,left
49,724.1213,0,437,2761,2975,4263,601,-12.0,200,0,0,724.8475,1,0,colocated,04_12_2014 level23_spatial_Mini 16_20 log.txt,37,37,1216,69.0,2.0,2014-12-04,False,left
93,783.5199,0,437,2761,2975,4263,726,-12.0,200,0,1,784.5473,0,0,colocated,28_11_2014 level23_spatial_Mini 09_17 log.txt,37,37,1216,69.0,2.0,2014-11-28,False,left
46,378.25,1,437,2761,2975,4263,551,-12.0,200,0,0,378.8157,1,0,colocated,05_12_2014 level23_spatial_Mini 09_42 log.txt,37,37,1216,69.0,2.0,2014-12-05,False,left
63,1337.2524,1,437,2761,2975,4263,516,-12.0,200,0,0,1338.8784,1,0,colocated,26_11_2014 level23_spatial_Mini 15_54 log.txt,37,37,1216,69.0,2.0,2014-11-26,False,left
97,1017.395,0,437,2761,2975,4263,551,-12.0,200,0,0,1018.3719,1,0,colocated,04_12_2014 level23_spatial_Mini 16_20 log.txt,37,37,1216,69.0,2.0,2014-12-04,False,left
4,37.1901,0,437,2761,2975,4263,576,-12.0,200,0,0,37.5228,1,0,colocated,15_12_2014 level23_spatial_Mini 14_12 log.txt,37,37,1216,69.0,2.0,2014-12-15,False,left
21,375.2312,0,437,2761,2975,4263,601,-12.0,200,0,0,376.3467,1,0,colocated,28_11_2014 level23_spatial_Mini 09_17 log.txt,37,37,1216,69.0,2.0,2014-11-28,False,left
52,379.5887,0,437,2761,2975,4263,701,-12.0,200,0,0,379.957,1,0,colocated,27_11_2014 level23_spatial_Mini 09_32 log.txt,37,37,1216,69.0,2.0,2014-11-27,False,left
146,1413.9025,0,437,2761,2975,4263,676,-12.0,200,0,0,1414.5136,1,0,colocated,21_11_2014 level23_spatial_Mini 14_01 log.txt,37,37,1216,69.0,2.0,2014-11-21,False,left
88,733.5313,0,437,2761,2975,4263,576,-12.0,200,0,0,733.9858,1,0,colocated,26_11_2014 level23_spatial_Mini 09_38 log.txt,37,37,1216,69.0,2.0,2014-11-26,False,left
52,379.5887,0,437,2761,2975,4263,701,-12.0,200,0,0,379.957,1,0,colocated,27_11_2014 level23_spatial_Mini 09_32 log.txt,37,37,1216,69.0,2.0,2014-11-27,False,left
21,375.2312,0,437,2761,2975,4263,601,-12.0,200,0,0,376.3467,1,0,colocated,28_11_2014 level23_spatial_Mini 09_17 log.txt,37,37,1216,69.0,2.0,2014-11-28,False,left
56,721.5861,0,437,2761,2975,4263,651,-12.0,200,0,0,722.1024,1,0,colocated,21_11_2014 level23_spatial_Mini 08_48 log.txt,37,37,1216,69.0,2.0,2014-11-21,False,left
36,345.4436,0,437,2761,2975,4263,551,-12.0,200,0,0,346.484,1,0,colocated,27_11_2014 level23_spatial_Mini 15_16 log.txt,37,37,1216,69.0,2.0,2014-11-27,False,left
52,379.5887,0,437,2761,2975,4263,701,-12.0,200,0,0,379.957,1,0,colocated,27_11_2014 level23_spatial_Mini 09_32 log.txt,37,37,1216,69.0,2.0,2014-11-27,False,left
4,37.1901,0,437,2761,2975,4263,576,-12.0,200,0,0,37.5228,1,0,colocated,15_12_2014 level23_spatial_Mini 14_12 log.txt,37,37,1216,69.0,2.0,2014-12-15,False,left
52,379.5887,0,437,2761,2975,4263,701,-12.0,200,0,0,379.957,1,0,colocated,27_11_2014 level23_spatial_Mini 09_32 log.txt,37,37,1216,69.0,2.0,2014-11-27,False,left
93,783.5199,0,437,2761,2975,4263,726,-12.0,200,0,1,784.5473,0,0,colocated,28_11_2014 level23_spatial_Mini 09_17 log.txt,37,37,1216,69.0,2.0,2014-11-28,False,left
73,633.2027,0,437,2761,2975,4263,726,-12.0,200,0,0,633.6818,1,0,colocated,26_11_2014 level23_spatial_Mini 09_38 log.txt,37,37,1216,69.0,2.0,2014-11-26,False,left
21,375.2312,0,437,2761,2975,4263,601,-12.0,200,0,0,376.3467,1,0,colocated,28_11_2014 level23_spatial_Mini 09_17 log.txt,37,37,1216,69.0,2.0,2014-11-28,False,left
138,1349.0475,0,437,2761,2975,4263,701,-12.0,200,0,0,1349.5333,1,0,colocated,21_11_2014 level23_spatial_Mini 08_48 log.txt,37,37,1216,69.0,2.0,2014-11-21,False,left
75,690.1531,0,437,2761,2975,4263,701,-12.0,200,0,0,690.9303,1,0,colocated,15_12_2014 level23_spatial_Mini 08_39 log.txt,37,37,1216,69.0,2.0,2014-12-15,False,left
73,633.2027,0,437,2761,2975,4263,726,-12.0,200,0,0,633.6818,1,0,colocated,26_11_2014 level23_spatial_Mini 09_38 log.txt,37,37,1216,69.0,2.0,2014-11-26,False,left
49,724.1213,0,437,2761,2975,4263,601,-12.0,200,0,0,724.8475,1,0,colocated,04_12_2014 level23_spatial_Mini 16_20 log.txt,37,37,1216,69.0,2.0,2014-12-04,False,left
93,783.5199,0,437,2761,2975,4263,726,-12.0,200,0,1,784.5473,0,0,colocated,28_11_2014 level23_spatial_Mini 09_17 log.txt,37,37,1216,69.0,2.0,2014-11-28,False,left
73,633.2027,0,437,2761,2975,4263,726,-12.0,200,0,0,633.6818,1,0,colocated,26_11_2014 level23_spatial_Mini 09_38 log.txt,37,37,1216,69.0,2.0,2014-11-26,False,left
3,109.2278,0,936,1551,2975,4263,551,-12.0,200,1,0,109.4791,0,0,colocated,26_11_2014 level23_spatial_Mini 09_38 log.txt,37,37,1216,69.0,2.0,2014-11-26,False,left
55,397.6348,0,936,1551,2975,4263,576,-12.0,200,1,1,398.146,1,0,colocated,27_11_2014 level23_spatial_Mini 09_32 log.txt,37,37,1216,69.0,2.0,2014-11-27,False,left
42,363.2206,0,936,1551,2975,4263,551,-12.0,200,1,0,363.7776,0,0,colocated,03_12_2014 level23_spatial_Mini 15_56 log.txt,37,37,1216,69.0,2.0,2014-12-03,False,left
23,225.7022,0,936,1551,2975,4263,551,-12.0,200,1,0,226.5554,0,0,colocated,27_11_2014 level23_spatial_Mini 15_16 log.txt,37,37,1216,69.0,2.0,2014-11-27,False,left
72,666.7455,0,936,1551,2975,4263,751,-12.0,200,1,1,667.3572,1,0,colocated,28_11_2014 level23_spatial_Mini 09_17 log.txt,37,37,1216,69.0,2.0,2014-11-28,False,left
23,225.7022,0,936,1551,2975,4263,551,-12.0,200,1,0,226.5554,0,0,colocated,27_11_2014 level23_spatial_Mini 15_16 log.txt,37,37,1216,69.0,2.0,2014-11-27,False,left
72,666.7455,0,936,1551,2975,4263,751,-12.0,200,1,1,667.3572,1,0,colocated,28_11_2014 level23_spatial_Mini 09_17 log.txt,37,37,1216,69.0,2.0,2014-11-28,False,left
23,225.7022,0,936,1551,2975,4263,551,-12.0,200,1,0,226.5554,0,0,colocated,27_11_2014 level23_spatial_Mini 15_16 log.txt,37,37,1216,69.0,2.0,2014-11-27,False,left
3,109.2278,0,936,1551,2975,4263,551,-12.0,200,1,0,109.4791,0,0,colocated,26_11_2014 level23_spatial_Mini 09_38 log.txt,37,37,1216,69.0,2.0,2014-11-26,False,left
3,109.2278,0,936,1551,2975,4263,551,-12.0,200,1,0,109.4791,0,0,colocated,26_11_2014 level23_spatial_Mini 09_38 log.txt,37,37,1216,69.0,2.0,2014-11-26,False,left
42,363.2206,0,936,1551,2975,4263,551,-12.0,200,1,0,363.7776,0,0,colocated,03_12_2014 level23_spatial_Mini 15_56 log.txt,37,37,1216,69.0,2.0,2014-12-03,False,left
120,1210.5057,0,936,1551,2975,4263,551,-12.0,200,1,0,1211.4896,0,0,colocated,21_11_2014 level23_spatial_Mini 08_48 log.txt,37,37,1216,69.0,2.0,2014-11-21,False,left
72,666.7455,0,936,1551,2975,4263,751,-12.0,200,1,1,667.3572,1,0,colocated,28_11_2014 level23_spatial_Mini 09_17 log.txt,37,37,1216,69.0,2.0,2014-11-28,False,left
20,197.6446,0,936,1551,2975,4263,601,-12.0,200,1,1,198.1003,1,0,colocated,15_12_2014 level23_spatial_Mini 14_12 log.txt,37,37,1216,69.0,2.0,2014-12-15,False,left
72,666.7455,0,936,1551,2975,4263,751,-12.0,200,1,1,667.3572,1,0,colocated,28_11_2014 level23_spatial_Mini 09_17 log.txt,37,37,1216,69.0,2.0,2014-11-28,False,left
58,474.8158,1,936,1551,2975,4263,526,-12.0,200,1,0,477.386,0,0,colocated,05_12_2014 level23_spatial_Mini 09_42 log.txt,37,37,1216,69.0,2.0,2014-12-05,False,left
55,397.6348,0,936,1551,2975,4263,576,-12.0,200,1,1,398.146,1,0,colocated,27_11_2014 level23_spatial_Mini 09_32 log.txt,37,37,1216,69.0,2.0,2014-11-27,False,left
48,653.6923,0,936,1551,2975,4263,526,-12.0,200,1,1,654.5882,1,0,colocated,21_11_2014 level23_spatial_Mini 08_48 log.txt,37,37,1216,69.0,2.0,2014-11-21,False,left
3,109.2278,0,936,1551,2975,4263,551,-12.0,200,1,0,109.4791,0,0,colocated,26_11_2014 level23_spatial_Mini 09_38 log.txt,37,37,1216,69.0,2.0,2014-11-26,False,left
27,284.6093,0,936,1551,2975,4263,501,-12.0,200,1,0,285.3011,0,0,colocated,21_11_2014 level23_spatial_Mini 14_01 log.txt,37,37,1216,69.0,2.0,2014-11-21,False,left
24,1014.2951,0,936,1551,2975,4263,591,-12.0,200,1,0,1014.6761,0,0,colocated,26_11_2014 level23_spatial_Mini 15_54 log.txt,37,37,1216,69.0,2.0,2014-11-26,False,left
55,397.6348,0,936,1551,2975,4263,576,-12.0,200,1,1,398.146,1,0,colocated,27_11_2014 level23_spatial_Mini 09_32 log.txt,37,37,1216,69.0,2.0,2014-11-27,False,left
120,1210.5057,0,936,1551,2975,4263,551,-12.0,200,1,0,1211.4896,0,0,colocated,21_11_2014 level23_spatial_Mini 08_48 log.txt,37,37,1216,69.0,2.0,2014-11-21,False,left
62,613.0686,1,936,1551,2975,4263,651,-12.0,200,1,1,615.4254,1,0,colocated,15_12_2014 level23_spatial_Mini 08_39 log.txt,37,37,1216,69.0,2.0,2014-12-15,False,left
27,284.6093,0,936,1551,2975,4263,501,-12.0,200,1,0,285.3011,0,0,colocated,21_11_2014 level23_spatial_Mini 14_01 log.txt,37,37,1216,69.0,2.0,2014-11-21,False,left
24,1014.2951,0,936,1551,2975,4263,591,-12.0,200,1,0,1014.6761,0,0,colocated,26_11_2014 level23_spatial_Mini 15_54 log.txt,37,37,1216,69.0,2.0,2014-11-26,False,left
24,1014.2951,0,936,1551,2975,4263,591,-12.0,200,1,0,1014.6761,0,0,colocated,26_11_2014 level23_spatial_Mini 15_54 log.txt,37,37,1216,69.0,2.0,2014-11-26,False,left
48,653.6923,0,936,1551,2975,4263,526,-12.0,200,1,1,654.5882,1,0,colocated,21_11_2014 level23_spatial_Mini 08_48 log.txt,37,37,1216,69.0,2.0,2014-11-21,False,left
72,666.7455,0,936,1551,2975,4263,751,-12.0,200,1,1,667.3572,1,0,colocated,28_11_2014 level23_spatial_Mini 09_17 log.txt,37,37,1216,69.0,2.0,2014-11-28,False,left
76,646.4108,0,437,2761,2975,4263,651,-12.0,200,0,0,646.8793,1,1,colocated,02_12_2014 level23_spatial_Mini 14_57 log.txt,37,37,1216,69.0,2.0,2014-12-02,False,right
76,684.1862,0,437,2761,2975,4263,551,-12.0,200,0,1,685.5338,0,1,colocated,28_11_2014 level23_spatial_Mini 09_17 log.txt,37,37,1216,69.0,2.0,2014-11-28,False,right
61,498.4275,0,437,2761,2975,4263,676,-12.0,200,0,0,498.9936,1,1,colocated,05_12_2014 level23_spatial_Mini 09_42 log.txt,37,37,1216,69.0,2.0,2014-12-05,False,right
42,391.8767,0,437,2761,2975,4263,576,-12.0,200,0,0,392.2303,1,1,colocated,15_12_2014 level23_spatial_Mini 14_12 log.txt,37,37,1216,69.0,2.0,2014-12-15,False,right
47,1228.0165,0,437,2761,2975,4263,576,-12.0,200,0,0,1228.6158,1,1,colocated,26_11_2014 level23_spatial_Mini 15_54 log.txt,37,37,1216,69.0,2.0,2014-11-26,False,right
76,684.1862,0,437,2761,2975,4263,551,-12.0,200,0,1,685.5338,0,1,colocated,28_11_2014 level23_spatial_Mini 09_17 log.txt,37,37,1216,69.0,2.0,2014-11-28,False,right
61,498.4275,0,437,2761,2975,4263,676,-12.0,200,0,0,498.9936,1,1,colocated,05_12_2014 level23_spatial_Mini 09_42 log.txt,37,37,1216,69.0,2.0,2014-12-05,False,right
96,737.1949,0,437,2761,2975,4263,501,-12.0,200,0,0,737.8605,1,1,colocated,05_12_2014 level23_spatial_Mini 09_42 log.txt,37,37,1216,69.0,2.0,2014-12-05,False,right
88,674.0389,0,437,2761,2975,4263,676,-12.0,200,0,0,675.2238,1,1,colocated,15_12_2014 level23_spatial_Mini 14_12 log.txt,37,37,1216,69.0,2.0,2014-12-15,False,right
1,351.4397,0,437,2761,2975,4263,626,-12.0,200,0,0,351.8244,1,1,colocated,04_12_2014 level23_spatial_Mini 16_20 log.txt,37,37,1216,69.0,2.0,2014-12-04,False,right
94,763.5978,0,437,2761,2975,4263,526,-12.0,200,0,0,764.434,1,1,colocated,26_11_2014 level23_spatial_Mini 09_38 log.txt,37,37,1216,69.0,2.0,2014-11-26,False,right
76,646.4108,0,437,2761,2975,4263,651,-12.0,200,0,0,646.8793,1,1,colocated,02_12_2014 level23_spatial_Mini 14_57 log.txt,37,37,1216,69.0,2.0,2014-12-02,False,right
23,273.0854,1,437,2761,2975,4263,676,-12.0,200,0,0,273.5639,1,1,colocated,15_12_2014 level23_spatial_Mini 08_39 log.txt,37,37,1216,69.0,2.0,2014-12-15,False,right
96,737.1949,0,437,2761,2975,4263,501,-12.0,200,0,0,737.8605,1,1,colocated,05_12_2014 level23_spatial_Mini 09_42 log.txt,37,37,1216,69.0,2.0,2014-12-05,False,right
76,646.4108,0,437,2761,2975,4263,651,-12.0,200,0,0,646.8793,1,1,colocated,02_12_2014 level23_spatial_Mini 14_57 log.txt,37,37,1216,69.0,2.0,2014-12-02,False,right
23,273.0854,1,437,2761,2975,4263,676,-12.0,200,0,0,273.5639,1,1,colocated,15_12_2014 level23_spatial_Mini 08_39 log.txt,37,37,1216,69.0,2.0,2014-12-15,False,right
1,351.4397,0,437,2761,2975,4263,626,-12.0,200,0,0,351.8244,1,1,colocated,04_12_2014 level23_spatial_Mini 16_20 log.txt,37,37,1216,69.0,2.0,2014-12-04,False,right
49,510.1146,0,437,2761,2975,4263,526,-12.0,200,0,0,510.8355,1,1,colocated,27_11_2014 level23_spatial_Mini 15_16 log.txt,37,37,1216,69.0,2.0,2014-11-27,False,right
1,351.4397,0,437,2761,2975,4263,626,-12.0,200,0,0,351.8244,1,1,colocated,04_12_2014 level23_spatial_Mini 16_20 log.txt,37,37,1216,69.0,2.0,2014-12-04,False,right
47,1228.0165,0,437,2761,2975,4263,576,-12.0,200,0,0,1228.6158,1,1,colocated,26_11_2014 level23_spatial_Mini 15_54 log.txt,37,37,1216,69.0,2.0,2014-11-26,False,right
23,273.0854,1,437,2761,2975,4263,676,-12.0,200,0,0,273.5639,1,1,colocated,15_12_2014 level23_spatial_Mini 08_39 log.txt,37,37,1216,69.0,2.0,2014-12-15,False,right
24,214.7236,0,437,2761,2975,4263,701,-12.0,200,0,0,215.5069,1,1,colocated,03_12_2014 level23_spatial_Mini 15_56 log.txt,37,37,1216,69.0,2.0,2014-12-03,False,right
49,510.1146,0,437,2761,2975,4263,526,-12.0,200,0,0,510.8355,1,1,colocated,27_11_2014 level23_spatial_Mini 15_16 log.txt,37,37,1216,69.0,2.0,2014-11-27,False,right
35,467.9112,0,437,2761,2975,4263,751,-12.0,200,0,0,468.4316,1,1,colocated,28_11_2014 level23_spatial_Mini 09_17 log.txt,37,37,1216,69.0,2.0,2014-11-28,False,right
31,327.1128,0,437,2761,2975,4263,751,-12.0,200,0,0,327.5796,1,1,colocated,21_11_2014 level23_spatial_Mini 14_01 log.txt,37,37,1216,69.0,2.0,2014-11-21,False,right
1,351.4397,0,437,2761,2975,4263,626,-12.0,200,0,0,351.8244,1,1,colocated,04_12_2014 level23_spatial_Mini 16_20 log.txt,37,37,1216,69.0,2.0,2014-12-04,False,right
96,737.1949,0,437,2761,2975,4263,501,-12.0,200,0,0,737.8605,1,1,colocated,05_12_2014 level23_spatial_Mini 09_42 log.txt,37,37,1216,69.0,2.0,2014-12-05,False,right
31,327.1128,0,437,2761,2975,4263,751,-12.0,200,0,0,327.5796,1,1,colocated,21_11_2014 level23_spatial_Mini 14_01 log.txt,37,37,1216,69.0,2.0,2014-11-21,False,right
27,311.7018,0,437,2761,2975,4263,651,-12.0,200,0,0,312.6014,1,1,colocated,26_11_2014 level23_spatial_Mini 09_38 log.txt,37,37,1216,69.0,2.0,2014-11-26,False,right
104,1070.3189,0,936,1551,2975,4263,701,-12.0,200,1,1,1072.0259,1,1,colocated,04_12_2014 level23_spatial_Mini 16_20 log.txt,37,37,1216,69.0,2.0,2014-12-04,False,right
60,674.8682,1,936,1551,2975,4263,601,-12.0,200,1,0,676.0968,0,1,colocated,21_11_2014 level23_spatial_Mini 14_01 log.txt,37,37,1216,69.0,2.0,2014-11-21,False,right
86,767.308,0,936,1551,2975,4263,601,-12.0,200,1,1,768.5757,1,1,colocated,15_12_2014 level23_spatial_Mini 08_39 log.txt,37,37,1216,69.0,2.0,2014-12-15,False,right
104,1070.3189,0,936,1551,2975,4263,701,-12.0,200,1,1,1072.0259,1,1,colocated,04_12_2014 level23_spatial_Mini 16_20 log.txt,37,37,1216,69.0,2.0,2014-12-04,False,right
60,674.8682,1,936,1551,2975,4263,601,-12.0,200,1,0,676.0968,0,1,colocated,21_11_2014 level23_spatial_Mini 14_01 log.txt,37,37,1216,69.0,2.0,2014-11-21,False,right
72,667.2176,0,936,1551,2975,4263,526,-12.0,200,1,1,667.798,1,1,colocated,15_12_2014 level23_spatial_Mini 08_39 log.txt,37,37,1216,69.0,2.0,2014-12-15,False,right
86,767.308,0,936,1551,2975,4263,601,-12.0,200,1,1,768.5757,1,1,colocated,15_12_2014 level23_spatial_Mini 08_39 log.txt,37,37,1216,69.0,2.0,2014-12-15,False,right
32,276.1578,0,936,1551,2975,4263,601,-12.0,200,1,0,276.4842,0,1,colocated,05_12_2014 level23_spatial_Mini 09_42 log.txt,37,37,1216,69.0,2.0,2014-12-05,False,right
91,774.237,0,936,1551,2975,4263,576,-12.0,200,1,1,774.8308,1,1,colocated,28_11_2014 level23_spatial_Mini 09_17 log.txt,37,37,1216,69.0,2.0,2014-11-28,False,right
91,774.237,0,936,1551,2975,4263,576,-12.0,200,1,1,774.8308,1,1,colocated,28_11_2014 level23_spatial_Mini 09_17 log.txt,37,37,1216,69.0,2.0,2014-11-28,False,right
60,674.8682,1,936,1551,2975,4263,601,-12.0,200,1,0,676.0968,0,1,colocated,21_11_2014 level23_spatial_Mini 14_01 log.txt,37,37,1216,69.0,2.0,2014-11-21,False,right
41,422.5584,0,936,1551,2975,4263,526,-12.0,200,1,0,423.5331,0,1,colocated,26_11_2014 level23_spatial_Mini 09_38 log.txt,37,37,1216,69.0,2.0,2014-11-26,False,right
20,367.2663,1,936,1551,2975,4263,651,-12.0,200,1,1,367.9338,1,1,colocated,28_11_2014 level23_spatial_Mini 09_17 log.txt,37,37,1216,69.0,2.0,2014-11-28,False,right
41,422.5584,0,936,1551,2975,4263,526,-12.0,200,1,0,423.5331,0,1,colocated,26_11_2014 level23_spatial_Mini 09_38 log.txt,37,37,1216,69.0,2.0,2014-11-26,False,right
86,767.308,0,936,1551,2975,4263,601,-12.0,200,1,1,768.5757,1,1,colocated,15_12_2014 level23_spatial_Mini 08_39 log.txt,37,37,1216,69.0,2.0,2014-12-15,False,right
110,1108.2412,0,936,1551,2975,4263,676,-12.0,200,1,0,1109.3277,0,1,colocated,21_11_2014 level23_spatial_Mini 14_01 log.txt,37,37,1216,69.0,2.0,2014-11-21,False,right
38,567.5225,0,936,1551,2975,4263,551,-12.0,200,1,1,568.021,1,1,colocated,21_11_2014 level23_spatial_Mini 08_48 log.txt,37,37,1216,69.0,2.0,2014-11-21,False,right
82,576.3913,0,936,1551,2975,4263,551,-12.0,200,1,0,578.4855,0,1,colocated,27_11_2014 level23_spatial_Mini 09_32 log.txt,37,37,1216,69.0,2.0,2014-11-27,False,right
86,767.308,0,936,1551,2975,4263,601,-12.0,200,1,1,768.5757,1,1,colocated,15_12_2014 level23_spatial_Mini 08_39 log.txt,37,37,1216,69.0,2.0,2014-12-15,False,right
2,576.4422,0,936,1551,2975,4263,576,-12.0,200,1,1,578.404,1,1,colocated,27_11_2014 level23_spatial_Mini 15_03 log.txt,37,37,1216,69.0,2.0,2014-11-27,False,right
35,266.9218,1,936,1551,2975,4263,551,-12.0,200,1,1,267.3808,1,1,colocated,02_12_2014 level23_spatial_Mini 14_57 log.txt,37,37,1216,69.0,2.0,2014-12-02,False,right
55,754.2252,0,936,1551,2975,4263,626,-12.0,200,1,1,755.4463,1,1,colocated,04_12_2014 level23_spatial_Mini 16_20 log.txt,37,37,1216,69.0,2.0,2014-12-04,False,right
82,576.3913,0,936,1551,2975,4263,551,-12.0,200,1,0,578.4855,0,1,colocated,27_11_2014 level23_spatial_Mini 09_32 log.txt,37,37,1216,69.0,2.0,2014-11-27,False,right
2,576.4422,0,936,1551,2975,4263,576,-12.0,200,1,1,578.404,1,1,colocated,27_11_2014 level23_spatial_Mini 15_03 log.txt,37,37,1216,69.0,2.0,2014-11-27,False,right
41,422.5584,0,936,1551,2975,4263,526,-12.0,200,1,0,423.5331,0,1,colocated,26_11_2014 level23_spatial_Mini 09_38 log.txt,37,37,1216,69.0,2.0,2014-11-26,False,right
41,422.5584,0,936,1551,2975,4263,526,-12.0,200,1,0,423.5331,0,1,colocated,26_11_2014 level23_spatial_Mini 09_38 log.txt,37,37,1216,69.0,2.0,2014-11-26,False,right
97,1041.9175,0,936,1551,2975,4263,676,-12.0,200,1,0,1042.3785,0,1,colocated,21_11_2014 level23_spatial_Mini 08_48 log.txt,37,37,1216,69.0,2.0,2014-11-21,False,right
35,266.9218,1,936,1551,2975,4263,551,-12.0,200,1,1,267.3808,1,1,colocated,02_12_2014 level23_spatial_Mini 14_57 log.txt,37,37,1216,69.0,2.0,2014-12-02,False,right
10,84.7535,0,936,1551,2975,4263,526,-12.0,200,1,1,85.3159,1,1,colocated,27_11_2014 level23_spatial_Mini 09_32 log.txt,37,37,1216,69.0,2.0,2014-11-27,False,right
54,359.1134,1,437,2761,2975,4263,503,-13.0,200,0,1,361.6645,0,0,colocated,04_02_2014 level23_spatial_Mini 10_44 log.txt,37,37,1216,70.0,3.0,2014-02-04,False,left
70,396.2275,1,437,2761,2975,4263,511,-13.0,200,0,0,399.0183,1,0,colocated,31_10_2014 level23_spatial_Mini 08_56 log.txt,37,37,1216,70.0,3.0,2014-10-31,False,left
10,74.7291,1,437,2761,2975,4263,503,-13.0,200,0,1,76.1694,0,0,colocated,11_03_2014 level23_spatial_Mini 10_12 log.txt,37,37,1216,70.0,3.0,2014-03-11,False,left
10,74.7291,1,437,2761,2975,4263,503,-13.0,200,0,1,76.1694,0,0,colocated,11_03_2014 level23_spatial_Mini 10_12 log.txt,37,37,1216,70.0,3.0,2014-03-11,False,left
13,839.9468,0,437,2761,2975,4263,509,-13.0,200,0,1,841.3245,0,0,colocated,25_04_2014 level23_spatial_Mini 10_51 log.txt,37,37,1216,70.0,3.0,2014-04-25,False,left
50,368.26,1,437,2761,2975,4263,505,-13.0,200,0,1,370.7008,0,0,colocated,10_04_2014 level23_spatial_Mini 14_53 log.txt,37,37,1216,70.0,3.0,2014-04-10,False,left
42,257.9211,0,437,2761,2975,4263,502,-13.0,200,0,0,257.9655,1,0,colocated,31_10_2014 level23_spatial_Mini 14_15 log.txt,37,37,1216,70.0,3.0,2014-10-31,False,left
34,288.1065,1,437,2761,2975,4263,511,-13.0,200,0,1,290.6674,0,0,colocated,31_03_2014 level23_spatial_Mini 15_41 log.txt,37,37,1216,70.0,3.0,2014-03-31,False,left
63,324.1381,0,437,2761,2975,4263,505,-13.0,200,0,0,325.2061,1,0,colocated,08_07_2014 level23_spatial_Mini 17_43 log.txt,37,37,1216,70.0,3.0,2014-07-08,False,left
10,74.7291,1,437,2761,2975,4263,503,-13.0,200,0,1,76.1694,0,0,colocated,11_03_2014 level23_spatial_Mini 10_12 log.txt,37,37,1216,70.0,3.0,2014-03-11,False,left
54,359.1134,1,437,2761,2975,4263,503,-13.0,200,0,1,361.6645,0,0,colocated,04_02_2014 level23_spatial_Mini 10_44 log.txt,37,37,1216,70.0,3.0,2014-02-04,False,left
63,324.1381,0,437,2761,2975,4263,505,-13.0,200,0,0,325.2061,1,0,colocated,08_07_2014 level23_spatial_Mini 17_43 log.txt,37,37,1216,70.0,3.0,2014-07-08,False,left
40,318.9712,0,437,2761,2975,4263,503,-13.0,200,0,1,319.4178,0,0,colocated,13_03_2014 level23_spatial_Mini 08_35 log.txt,37,37,1216,70.0,3.0,2014-03-13,False,left
13,839.9468,0,437,2761,2975,4263,509,-13.0,200,0,1,841.3245,0,0,colocated,25_04_2014 level23_spatial_Mini 10_51 log.txt,37,37,1216,70.0,3.0,2014-04-25,False,left
23,152.0664,1,437,2761,2975,4263,510,-13.0,200,0,0,154.9975,1,0,colocated,09_04_2014 level23_spatial_Mini 09_15 log.txt,37,37,1216,70.0,3.0,2014-04-09,False,left
2,8.3956,1,437,2761,2975,4263,509,-13.0,200,0,1,9.3226,0,0,colocated,14_03_2014 level23_spatial_Mini 15_38 log.txt,37,37,1216,70.0,3.0,2014-03-14,False,left
40,318.9712,0,437,2761,2975,4263,503,-13.0,200,0,1,319.4178,0,0,colocated,13_03_2014 level23_spatial_Mini 08_35 log.txt,37,37,1216,70.0,3.0,2014-03-13,False,left
16,1126.9883,0,437,2761,2975,4263,502,-13.0,200,0,1,1127.8008,0,0,colocated,24_04_2014 level23_spatial_Mini 14_13 log.txt,37,37,1216,70.0,3.0,2014-04-24,False,left
49,528.5179,1,437,2761,2975,4263,508,-13.0,200,0,0,531.9157,1,0,colocated,13_12_2013 level23_spatial_Mini 09_07 log.txt,37,37,1216,70.0,3.0,2013-12-13,False,left
21,122.132,0,437,2761,2975,4263,506,-13.0,200,0,0,123.3162,1,0,colocated,23_04_2014 level23_spatial_Mini 15_38 log.txt,37,37,1216,70.0,3.0,2014-04-23,False,left
51,457.2719,1,437,2761,2975,4263,506,-13.0,200,0,1,459.3664,0,0,colocated,09_04_2014 level23_spatial_Mini 13_52 log.txt,37,37,1216,70.0,3.0,2014-04-09,False,left
43,293.5217,1,437,2761,2975,4263,507,-13.0,200,0,1,296.3427,0,0,colocated,14_03_2014 level23_spatial_Mini 10_20 log.txt,37,37,1216,70.0,3.0,2014-03-14,False,left
23,152.0664,1,437,2761,2975,4263,510,-13.0,200,0,0,154.9975,1,0,colocated,09_04_2014 level23_spatial_Mini 09_15 log.txt,37,37,1216,70.0,3.0,2014-04-09,False,left
21,122.132,0,437,2761,2975,4263,506,-13.0,200,0,0,123.3162,1,0,colocated,23_04_2014 level23_spatial_Mini 15_38 log.txt,37,37,1216,70.0,3.0,2014-04-23,False,left
2,8.3956,1,437,2761,2975,4263,509,-13.0,200,0,1,9.3226,0,0,colocated,14_03_2014 level23_spatial_Mini 15_38 log.txt,37,37,1216,70.0,3.0,2014-03-14,False,left
111,619.3202,0,437,2761,2975,4263,508,-13.0,200,0,0,620.2284,1,0,colocated,31_10_2014 level23_spatial_Mini 08_56 log.txt,37,37,1216,70.0,3.0,2014-10-31,False,left
42,257.9211,0,437,2761,2975,4263,502,-13.0,200,0,0,257.9655,1,0,colocated,31_10_2014 level23_spatial_Mini 14_15 log.txt,37,37,1216,70.0,3.0,2014-10-31,False,left
2,8.3956,1,437,2761,2975,4263,509,-13.0,200,0,1,9.3226,0,0,colocated,14_03_2014 level23_spatial_Mini 15_38 log.txt,37,37,1216,70.0,3.0,2014-03-14,False,left
13,839.9468,0,437,2761,2975,4263,509,-13.0,200,0,1,841.3245,0,0,colocated,25_04_2014 level23_spatial_Mini 10_51 log.txt,37,37,1216,70.0,3.0,2014-04-25,False,left
36,1247.1829,0,936,1551,2975,4263,504,-13.0,200,1,1,1248.0383,1,0,colocated,24_04_2014 level23_spatial_Mini 14_13 log.txt,37,37,1216,70.0,3.0,2014-04-24,False,left
99,1446.6243,1,936,1551,2975,4263,504,-13.0,200,1,-1,-1.0,0,0,colocated,20_12_2013 level23_spatial_Mini 09_02 log.txt,37,37,1216,70.0,3.0,2013-12-20,False,left
17,91.843,0,936,1551,2975,4263,509,-13.0,200,1,1,93.037,1,0,colocated,30_10_2014 level23_spatial_Mini 08_01 log.txt,37,37,1216,70.0,3.0,2014-10-30,False,left
27,159.7102,1,936,1551,2975,4263,508,-13.0,200,1,1,160.6528,1,0,colocated,23_04_2014 level23_spatial_Mini 15_38 log.txt,37,37,1216,70.0,3.0,2014-04-23,False,left
61,517.4359,0,936,1551,2975,4263,502,-13.0,200,1,1,518.791,1,0,colocated,09_04_2014 level23_spatial_Mini 13_52 log.txt,37,37,1216,70.0,3.0,2014-04-09,False,left
