Trial,StartTime,CenterReward,F1,F2,F3,F4,HoldTime,Atten,Pitch,Side,Response,RespTime,Correct,SpatialMask,SpatialCondition,originalFile,LeftTemperature,RightTemperature,fNum,vowel_level,SNR,day,treatment,VowelLocation
81,464.1126,0,437,2761,2975,4263,501,-6.0,200,0,1,465.0652,0,0,colocated,11_03_2014 level23_spatial_Mini 17_07 log.txt,37,37,1216,63.0,-4.0,2014-03-11,False,left
96,834.1946,0,437,2761,2975,4263,502,-6.0,200,0,1,835.3364,0,0,colocated,08_08_2014 level23_spatial_Mini 15_09 log.txt,37,37,1216,63.0,-4.0,2014-08-08,False,left
50,281.1638,0,437,2761,2975,4263,504,-6.0,200,0,0,282.4815,1,0,colocated,10_07_2014 level23_spatial_Mini 14_03 log.txt,37,37,1216,63.0,-4.0,2014-07-10,False,left
83,467.3301,0,437,2761,2975,4263,501,-6.0,200,0,0,468.5515,1,0,colocated,31_10_2014 level23_spatial_Mini 08_56 log.txt,37,37,1216,63.0,-4.0,2014-10-31,False,left
27,1201.0646,1,437,2761,2975,4263,510,-6.0,200,0,0,1203.3861,1,0,colocated,24_04_2014 level23_spatial_Mini 14_13 log.txt,37,37,1216,63.0,-4.0,2014-04-24,False,left
25,144.9273,1,437,2761,2975,4263,511,-6.0,200,0,0,147.3304,1,0,colocated,17_11_2014 level23_spatial_Mini 15_46 log.txt,37,37,1216,63.0,-4.0,2014-11-17,False,left
48,250.078,0,437,2761,2975,4263,506,-6.0,200,0,0,251.2367,1,0,colocated,08_07_2014 level23_spatial_Mini 17_43 log.txt,37,37,1216,63.0,-4.0,2014-07-08,False,left
57,389.8074,1,437,2761,2975,4263,510,-6.0,200,0,1,390.6729,0,0,colocated,23_04_2014 level23_spatial_Mini 15_38 log.txt,37,37,1216,63.0,-4.0,2014-04-23,False,left
48,250.078,0,437,2761,2975,4263,506,-6.0,200,0,0,251.2367,1,0,colocated,08_07_2014 level23_spatial_Mini 17_43 log.txt,37,37,1216,63.0,-4.0,2014-07-08,False,left
191,1410.1193,1,437,2761,2975,4263,507,-6.0,200,0,0,1412.3814,1,0,colocated,17_11_2014 level23_spatial_Mini 10_07 log.txt,37,37,1216,63.0,-4.0,2014-11-17,False,left
44,241.0297,1,437,2761,2975,4263,504,-6.0,200,0,0,243.1817,1,0,colocated,30_10_2014 level23_spatial_Mini 08_01 log.txt,37,37,1216,63.0,-4.0,2014-10-30,False,left
3,17.1916,1,437,2761,2975,4263,510,-6.0,200,0,1,19.4693,0,0,colocated,09_07_2014 level23_spatial_Mini 14_31 log.txt,37,37,1216,63.0,-4.0,2014-07-09,False,left
25,144.9273,1,437,2761,2975,4263,511,-6.0,200,0,0,147.3304,1,0,colocated,17_11_2014 level23_spatial_Mini 15_46 log.txt,37,37,1216,63.0,-4.0,2014-11-17,False,left
83,467.3301,0,437,2761,2975,4263,501,-6.0,200,0,0,468.5515,1,0,colocated,31_10_2014 level23_spatial_Mini 08_56 log.txt,37,37,1216,63.0,-4.0,2014-10-31,False,left
72,507.7833,1,437,2761,2975,4263,508,-6.0,200,0,1,510.6588,0,0,colocated,10_04_2014 level23_spatial_Mini 14_53 log.txt,37,37,1216,63.0,-4.0,2014-04-10,False,left
113,549.648,0,437,2761,2975,4263,504,-6.0,200,0,1,550.4182,0,0,colocated,13_03_2014 level23_spatial_Mini 16_17 log.txt,37,37,1216,63.0,-4.0,2014-03-13,False,left
45,508.6689,1,437,2761,2975,4263,507,-6.0,200,0,1,510.0882,0,0,colocated,20_12_2013 level23_spatial_Mini 09_02 log.txt,37,37,1216,63.0,-4.0,2013-12-20,False,left
59,381.9202,1,437,2761,2975,4263,511,-6.0,200,0,0,383.4711,1,0,colocated,31_10_2014 level23_spatial_Mini 14_15 log.txt,37,37,1216,63.0,-4.0,2014-10-31,False,left
1,26.9426,1,437,2761,2975,4263,503,-6.0,200,0,1,27.3298,0,0,colocated,04_02_2014 level23_spatial_Mini 10_44 log.txt,37,37,1216,63.0,-4.0,2014-02-04,False,left
80,851.3589,1,437,2761,2975,4263,510,-6.0,200,0,0,855.3221,1,0,colocated,20_12_2013 level23_spatial_Mini 09_02 log.txt,37,37,1216,63.0,-4.0,2013-12-20,False,left
44,241.0297,1,437,2761,2975,4263,504,-6.0,200,0,0,243.1817,1,0,colocated,30_10_2014 level23_spatial_Mini 08_01 log.txt,37,37,1216,63.0,-4.0,2014-10-30,False,left
57,389.8074,1,437,2761,2975,4263,510,-6.0,200,0,1,390.6729,0,0,colocated,23_04_2014 level23_spatial_Mini 15_38 log.txt,37,37,1216,63.0,-4.0,2014-04-23,False,left
25,144.9273,1,437,2761,2975,4263,511,-6.0,200,0,0,147.3304,1,0,colocated,17_11_2014 level23_spatial_Mini 15_46 log.txt,37,37,1216,63.0,-4.0,2014-11-17,False,left
80,851.3589,1,437,2761,2975,4263,510,-6.0,200,0,0,855.3221,1,0,colocated,20_12_2013 level23_spatial_Mini 09_02 log.txt,37,37,1216,63.0,-4.0,2013-12-20,False,left
32,618.7338,0,437,2761,2975,4263,505,-6.0,200,0,1,619.3678,0,0,colocated,23_04_2014 level23_spatial_Mini 11_32 log.txt,37,37,1216,63.0,-4.0,2014-04-23,False,left
81,464.1126,0,437,2761,2975,4263,501,-6.0,200,0,1,465.0652,0,0,colocated,11_03_2014 level23_spatial_Mini 17_07 log.txt,37,37,1216,63.0,-4.0,2014-03-11,False,left
44,241.0297,1,437,2761,2975,4263,504,-6.0,200,0,0,243.1817,1,0,colocated,30_10_2014 level23_spatial_Mini 08_01 log.txt,37,37,1216,63.0,-4.0,2014-10-30,False,left
36,365.6912,0,437,2761,2975,4263,505,-6.0,200,0,1,366.6332,0,0,colocated,09_04_2014 level23_spatial_Mini 13_52 log.txt,37,37,1216,63.0,-4.0,2014-04-09,False,left
98,1023.35,0,437,2761,2975,4263,508,-6.0,200,0,1,1024.3827,0,0,colocated,23_04_2014 level23_spatial_Mini 11_32 log.txt,37,37,1216,63.0,-4.0,2014-04-23,False,left
19,195.2151,0,936,1551,2975,4263,501,-6.0,200,1,1,196.3825,1,0,colocated,31_03_2014 level23_spatial_Mini 15_41 log.txt,37,37,1216,63.0,-4.0,2014-03-31,False,left
21,127.6958,0,936,1551,2975,4263,510,-6.0,200,1,1,129.1078,1,0,colocated,31_10_2014 level23_spatial_Mini 14_15 log.txt,37,37,1216,63.0,-4.0,2014-10-31,False,left
74,762.2504,0,936,1551,2975,4263,507,-6.0,200,1,1,763.45,1,0,colocated,13_12_2013 level23_spatial_Mini 09_07 log.txt,37,37,1216,63.0,-4.0,2013-12-13,False,left
18,139.5336,1,936,1551,2975,4263,511,-6.0,200,1,0,142.2633,0,0,colocated,14_03_2014 level23_spatial_Mini 10_20 log.txt,37,37,1216,63.0,-4.0,2014-03-14,False,left
74,599.4707,1,936,1551,2975,4263,511,-6.0,200,1,1,600.4013,1,0,colocated,17_11_2014 level23_spatial_Mini 10_07 log.txt,37,37,1216,63.0,-4.0,2014-11-17,False,left
165,1215.806,0,936,1551,2975,4263,507,-6.0,200,1,1,1216.9698,1,0,colocated,17_11_2014 level23_spatial_Mini 10_07 log.txt,37,37,1216,63.0,-4.0,2014-11-17,False,left
51,317.4807,0,936,1551,2975,4263,501,-6.0,200,1,1,318.5307,1,0,colocated,09_04_2014 level23_spatial_Mini 09_15 log.txt,37,37,1216,63.0,-4.0,2014-04-09,False,left
31,182.1526,1,936,1551,2975,4263,502,-6.0,200,1,1,182.8661,1,0,colocated,11_03_2014 level23_spatial_Mini 17_07 log.txt,37,37,1216,63.0,-4.0,2014-03-11,False,left
31,339.5048,0,936,1551,2975,4263,508,-6.0,200,1,1,340.5988,1,0,colocated,09_04_2014 level23_spatial_Mini 13_52 log.txt,37,37,1216,63.0,-4.0,2014-04-09,False,left
34,385.1441,0,936,1551,2975,4263,505,-6.0,200,1,0,390.4969,0,0,colocated,13_12_2013 level23_spatial_Mini 09_07 log.txt,37,37,1216,63.0,-4.0,2013-12-13,False,left
56,590.9397,0,936,1551,2975,4263,509,-6.0,200,1,1,591.8956,1,0,colocated,20_12_2013 level23_spatial_Mini 09_02 log.txt,37,37,1216,63.0,-4.0,2013-12-20,False,left
67,380.1675,0,936,1551,2975,4263,501,-6.0,200,1,0,381.4882,0,0,colocated,09_07_2014 level23_spatial_Mini 14_31 log.txt,37,37,1216,63.0,-4.0,2014-07-09,False,left
18,139.5336,1,936,1551,2975,4263,511,-6.0,200,1,0,142.2633,0,0,colocated,14_03_2014 level23_spatial_Mini 10_20 log.txt,37,37,1216,63.0,-4.0,2014-03-14,False,left
82,884.9817,1,936,1551,2975,4263,503,-6.0,200,1,1,893.0509,1,0,colocated,20_12_2013 level23_spatial_Mini 09_02 log.txt,37,37,1216,63.0,-4.0,2013-12-20,False,left
4,26.949,1,936,1551,2975,4263,502,-6.0,200,1,1,29.228,1,0,colocated,10_07_2014 level23_spatial_Mini 14_03 log.txt,37,37,1216,63.0,-4.0,2014-07-10,False,left
33,178.0581,1,936,1551,2975,4263,502,-6.0,200,1,0,179.7979,0,0,colocated,30_10_2014 level23_spatial_Mini 08_01 log.txt,37,37,1216,63.0,-4.0,2014-10-30,False,left
32,184.8349,1,936,1551,2975,4263,504,-6.0,200,1,0,186.7586,0,0,colocated,17_11_2014 level23_spatial_Mini 15_46 log.txt,37,37,1216,63.0,-4.0,2014-11-17,False,left
35,282.2881,0,936,1551,2975,4263,501,-6.0,200,1,1,286.1888,1,0,colocated,13_03_2014 level23_spatial_Mini 08_35 log.txt,37,37,1216,63.0,-4.0,2014-03-13,False,left
24,583.8365,0,936,1551,2975,4263,502,-6.0,200,1,1,584.2655,1,0,colocated,23_04_2014 level23_spatial_Mini 11_32 log.txt,37,37,1216,63.0,-4.0,2014-04-23,False,left
32,184.8349,1,936,1551,2975,4263,504,-6.0,200,1,0,186.7586,0,0,colocated,17_11_2014 level23_spatial_Mini 15_46 log.txt,37,37,1216,63.0,-4.0,2014-11-17,False,left
44,294.5568,1,936,1551,2975,4263,507,-6.0,200,1,1,296.5316,1,0,colocated,04_02_2014 level23_spatial_Mini 10_44 log.txt,37,37,1216,63.0,-4.0,2014-02-04,False,left
34,385.1441,0,936,1551,2975,4263,505,-6.0,200,1,0,390.4969,0,0,colocated,13_12_2013 level23_spatial_Mini 09_07 log.txt,37,37,1216,63.0,-4.0,2013-12-13,False,left
7,62.4685,1,936,1551,2975,4263,507,-6.0,200,1,0,65.2304,0,0,colocated,24_03_2014 level23_spatial_Mini 14_04 log.txt,37,37,1216,63.0,-4.0,2014-03-24,False,left
150,1334.6921,0,936,1551,2975,4263,508,-6.0,200,1,1,1335.6803,1,0,colocated,23_04_2014 level23_spatial_Mini 11_32 log.txt,37,37,1216,63.0,-4.0,2014-04-23,False,left
29,1212.0326,0,936,1551,2975,4263,502,-6.0,200,1,1,1212.9184,1,0,colocated,24_04_2014 level23_spatial_Mini 14_13 log.txt,37,37,1216,63.0,-4.0,2014-04-24,False,left
106,938.731,1,936,1551,2975,4263,504,-6.0,200,1,1,940.4423,1,0,colocated,08_08_2014 level23_spatial_Mini 15_09 log.txt,37,37,1216,63.0,-4.0,2014-08-08,False,left
98,550.5638,1,936,1551,2975,4263,506,-6.0,200,1,1,552.3818,1,0,colocated,11_03_2014 level23_spatial_Mini 17_07 log.txt,37,37,1216,63.0,-4.0,2014-03-11,False,left
115,565.9992,0,936,1551,2975,4263,502,-6.0,200,1,1,566.9993,1,0,colocated,13_03_2014 level23_spatial_Mini 16_17 log.txt,37,37,1216,63.0,-4.0,2014-03-13,False,left
33,178.0581,1,936,1551,2975,4263,502,-6.0,200,1,0,179.7979,0,0,colocated,30_10_2014 level23_spatial_Mini 08_01 log.txt,37,37,1216,63.0,-4.0,2014-10-30,False,left
103,890.506,0,437,2761,2975,4263,505,-6.0,200,0,1,891.4412,0,1,colocated,08_08_2014 level23_spatial_Mini 15_09 log.txt,37,37,1216,63.0,-4.0,2014-08-08,False,right
2,156.4595,0,437,2761,2975,4263,508,-6.0,200,0,0,157.7945,1,1,colocated,20_12_2013 level23_spatial_Mini 09_02 log.txt,37,37,1216,63.0,-4.0,2013-12-20,False,right
11,57.8663,0,437,2761,2975,4263,501,-6.0,200,0,1,58.6828,0,1,colocated,09_07_2014 level23_spatial_Mini 14_31 log.txt,37,37,1216,63.0,-4.0,2014-07-09,False,right
84,652.8934,1,437,2761,2975,4263,504,-6.0,200,0,0,656.8809,1,1,colocated,09_04_2014 level23_spatial_Mini 13_52 log.txt,37,37,1216,63.0,-4.0,2014-04-09,False,right
20,268.8045,0,437,2761,2975,4263,507,-6.0,200,0,0,275.1514,1,1,colocated,13_12_2013 level23_spatial_Mini 09_07 log.txt,37,37,1216,63.0,-4.0,2013-12-13,False,right
35,259.1388,1,437,2761,2975,4263,505,-6.0,200,0,1,261.5892,0,1,colocated,10_04_2014 level23_spatial_Mini 14_53 log.txt,37,37,1216,63.0,-4.0,2014-04-10,False,right
5,104.1771,0,437,2761,2975,4263,502,-6.0,200,0,1,108.8723,0,1,colocated,13_03_2014 level23_spatial_Mini 08_35 log.txt,37,37,1216,63.0,-4.0,2014-03-13,False,right
57,351.6461,1,437,2761,2975,4263,506,-6.0,200,0,0,354.5773,1,1,colocated,31_10_2014 level23_spatial_Mini 14_15 log.txt,37,37,1216,63.0,-4.0,2014-10-31,False,right
11,63.571,1,437,2761,2975,4263,509,-6.0,200,0,0,67.086,1,1,colocated,17_11_2014 level23_spatial_Mini 15_46 log.txt,37,37,1216,63.0,-4.0,2014-11-17,False,right
26,921.2128,1,437,2761,2975,4263,502,-6.0,200,0,1,923.4267,0,1,colocated,25_04_2014 level23_spatial_Mini 10_51 log.txt,37,37,1216,63.0,-4.0,2014-04-25,False,right
103,890.506,0,437,2761,2975,4263,505,-6.0,200,0,1,891.4412,0,1,colocated,08_08_2014 level23_spatial_Mini 15_09 log.txt,37,37,1216,63.0,-4.0,2014-08-08,False,right
103,890.506,0,437,2761,2975,4263,505,-6.0,200,0,1,891.4412,0,1,colocated,08_08_2014 level23_spatial_Mini 15_09 log.txt,37,37,1216,63.0,-4.0,2014-08-08,False,right
56,375.0762,0,437,2761,2975,4263,506,-6.0,200,0,0,376.5646,1,1,colocated,11_03_2014 level23_spatial_Mini 10_12 log.txt,37,37,1216,63.0,-4.0,2014-03-11,False,right
10,74.2785,0,437,2761,2975,4263,503,-6.0,200,0,1,75.2653,0,1,colocated,11_03_2014 level23_spatial_Mini 17_07 log.txt,37,37,1216,63.0,-4.0,2014-03-11,False,right
42,248.2661,0,437,2761,2975,4263,503,-6.0,200,0,1,249.4188,0,1,colocated,14_03_2014 level23_spatial_Mini 15_38 log.txt,37,37,1216,63.0,-4.0,2014-03-14,False,right
12,1088.5865,1,437,2761,2975,4263,502,-6.0,200,0,0,1091.7109,1,1,colocated,24_04_2014 level23_spatial_Mini 14_13 log.txt,37,37,1216,63.0,-4.0,2014-04-24,False,right
56,375.0762,0,437,2761,2975,4263,506,-6.0,200,0,0,376.5646,1,1,colocated,11_03_2014 level23_spatial_Mini 10_12 log.txt,37,37,1216,63.0,-4.0,2014-03-11,False,right
11,63.571,1,437,2761,2975,4263,509,-6.0,200,0,0,67.086,1,1,colocated,17_11_2014 level23_spatial_Mini 15_46 log.txt,37,37,1216,63.0,-4.0,2014-11-17,False,right
20,268.8045,0,437,2761,2975,4263,507,-6.0,200,0,0,275.1514,1,1,colocated,13_12_2013 level23_spatial_Mini 09_07 log.txt,37,37,1216,63.0,-4.0,2013-12-13,False,right
49,448.4574,0,437,2761,2975,4263,502,-6.0,200,0,1,449.1064,0,1,colocated,19_11_2014 level23_spatial_Mini 13_54 log.txt,37,37,1216,63.0,-4.0,2014-11-19,False,right
92,1016.5495,0,437,2761,2975,4263,506,-6.0,200,0,0,1021.9621,1,1,colocated,20_12_2013 level23_spatial_Mini 09_02 log.txt,37,37,1216,63.0,-4.0,2013-12-20,False,right
57,351.6461,1,437,2761,2975,4263,506,-6.0,200,0,0,354.5773,1,1,colocated,31_10_2014 level23_spatial_Mini 14_15 log.txt,37,37,1216,63.0,-4.0,2014-10-31,False,right
84,652.8934,1,437,2761,2975,4263,504,-6.0,200,0,0,656.8809,1,1,colocated,09_04_2014 level23_spatial_Mini 13_52 log.txt,37,37,1216,63.0,-4.0,2014-04-09,False,right
9,202.6821,1,437,2761,2975,4263,509,-6.0,200,0,1,205.4458,0,1,colocated,08_08_2014 level23_spatial_Mini 15_09 log.txt,37,37,1216,63.0,-4.0,2014-08-08,False,right
9,51.2213,0,437,2761,2975,4263,508,-6.0,200,0,1,51.8234,0,1,colocated,23_04_2014 level23_spatial_Mini 15_38 log.txt,37,37,1216,63.0,-4.0,2014-04-23,False,right
201,1034.8364,0,437,2761,2975,4263,505,-6.0,200,0,1,1035.9295,0,1,colocated,13_03_2014 level23_spatial_Mini 16_17 log.txt,37,37,1216,63.0,-4.0,2014-03-13,False,right
35,259.1388,1,437,2761,2975,4263,505,-6.0,200,0,1,261.5892,0,1,colocated,10_04_2014 level23_spatial_Mini 14_53 log.txt,37,37,1216,63.0,-4.0,2014-04-10,False,right
77,390.075,1,437,2761,2975,4263,511,-6.0,200,0,1,392.6248,0,1,colocated,08_07_2014 level23_spatial_Mini 17_43 log.txt,37,37,1216,63.0,-4.0,2014-07-08,False,right
108,712.516,1,437,2761,2975,4263,501,-6.0,200,0,1,713.4703,0,1,colocated,04_02_2014 level23_spatial_Mini 10_44 log.txt,37,37,1216,63.0,-4.0,2014-02-04,False,right
68,612.3121,1,936,1551,2975,4263,502,-6.0,200,1,1,614.4771,1,1,colocated,08_08_2014 level23_spatial_Mini 15_09 log.txt,37,37,1216,63.0,-4.0,2014-08-08,False,right
108,849.2244,0,936,1551,2975,4263,504,-6.0,200,1,0,850.5409,0,1,colocated,17_11_2014 level23_spatial_Mini 10_07 log.txt,37,37,1216,63.0,-4.0,2014-11-17,False,right
97,638.1221,0,936,1551,2975,4263,502,-6.0,200,1,1,638.9324,1,1,colocated,04_02_2014 level23_spatial_Mini 10_44 log.txt,37,37,1216,63.0,-4.0,2014-02-04,False,right
88,909.9904,0,936,1551,2975,4263,506,-6.0,200,1,0,910.6704,0,1,colocated,13_12_2013 level23_spatial_Mini 09_07 log.txt,37,37,1216,63.0,-4.0,2013-12-13,False,right
13,168.3244,1,936,1551,2975,4263,511,-6.0,200,1,0,169.1694,0,1,colocated,31_03_2014 level23_spatial_Mini 15_41 log.txt,37,37,1216,63.0,-4.0,2014-03-31,False,right
25,193.8833,0,936,1551,2975,4263,502,-6.0,200,1,0,195.2509,0,1,colocated,10_04_2014 level23_spatial_Mini 14_53 log.txt,37,37,1216,63.0,-4.0,2014-04-10,False,right
8,44.9952,0,936,1551,2975,4263,509,-6.0,200,1,1,45.3626,1,1,colocated,09_07_2014 level23_spatial_Mini 14_31 log.txt,37,37,1216,63.0,-4.0,2014-07-09,False,right
20,116.3282,0,936,1551,2975,4263,505,-6.0,200,1,1,118.2865,1,1,colocated,10_07_2014 level23_spatial_Mini 14_03 log.txt,37,37,1216,63.0,-4.0,2014-07-10,False,right
5,42.8446,1,936,1551,2975,4263,502,-6.0,200,1,1,45.6712,1,1,colocated,11_03_2014 level23_spatial_Mini 17_07 log.txt,37,37,1216,63.0,-4.0,2014-03-11,False,right
66,445.5962,1,936,1551,2975,4263,507,-6.0,200,1,1,447.3328,1,1,colocated,14_03_2014 level23_spatial_Mini 10_20 log.txt,37,37,1216,63.0,-4.0,2014-03-14,False,right
37,1251.4158,1,936,1551,2975,4263,501,-6.0,200,1,1,1252.145,1,1,colocated,24_04_2014 level23_spatial_Mini 14_13 log.txt,37,37,1216,63.0,-4.0,2014-04-24,False,right
47,512.2832,1,936,1551,2975,4263,510,-6.0,200,1,1,513.8151,1,1,colocated,13_12_2013 level23_spatial_Mini 09_07 log.txt,37,37,1216,63.0,-4.0,2013-12-13,False,right
13,168.3244,1,936,1551,2975,4263,511,-6.0,200,1,0,169.1694,0,1,colocated,31_03_2014 level23_spatial_Mini 15_41 log.txt,37,37,1216,63.0,-4.0,2014-03-31,False,right
116,1143.4738,1,936,1551,2975,4263,501,-6.0,200,1,1,1144.2082,1,1,colocated,23_04_2014 level23_spatial_Mini 11_32 log.txt,37,37,1216,63.0,-4.0,2014-04-23,False,right
47,512.2832,1,936,1551,2975,4263,510,-6.0,200,1,1,513.8151,1,1,colocated,13_12_2013 level23_spatial_Mini 09_07 log.txt,37,37,1216,63.0,-4.0,2013-12-13,False,right
40,240.5829,1,936,1551,2975,4263,511,-6.0,200,1,0,243.0697,0,1,colocated,31_10_2014 level23_spatial_Mini 08_56 log.txt,37,37,1216,63.0,-4.0,2014-10-31,False,right
37,1251.4158,1,936,1551,2975,4263,501,-6.0,200,1,1,1252.145,1,1,colocated,24_04_2014 level23_spatial_Mini 14_13 log.txt,37,37,1216,63.0,-4.0,2014-04-24,False,right
62,388.3592,0,936,1551,2975,4263,507,-6.0,200,1,1,389.8393,1,1,colocated,09_04_2014 level23_spatial_Mini 09_15 log.txt,37,37,1216,63.0,-4.0,2014-04-09,False,right
116,1143.4738,1,936,1551,2975,4263,501,-6.0,200,1,1,1144.2082,1,1,colocated,23_04_2014 level23_spatial_Mini 11_32 log.txt,37,37,1216,63.0,-4.0,2014-04-23,False,right
2,176.6041,0,936,1551,2975,4263,510,-6.0,200,1,1,177.5211,1,1,colocated,09_04_2014 level23_spatial_Mini 13_52 log.txt,37,37,1216,63.0,-4.0,2014-04-09,False,right
6,40.3287,0,936,1551,2975,4263,503,-6.0,200,1,1,43.2854,1,1,colocated,31_10_2014 level23_spatial_Mini 14_15 log.txt,37,37,1216,63.0,-4.0,2014-10-31,False,right
25,193.8833,0,936,1551,2975,4263,502,-6.0,200,1,0,195.2509,0,1,colocated,10_04_2014 level23_spatial_Mini 14_53 log.txt,37,37,1216,63.0,-4.0,2014-04-10,False,right
41,280.5241,0,936,1551,2975,4263,507,-6.0,200,1,1,281.1261,1,1,colocated,04_02_2014 level23_spatial_Mini 10_44 log.txt,37,37,1216,63.0,-4.0,2014-02-04,False,right
116,1143.4738,1,936,1551,2975,4263,501,-6.0,200,1,1,1144.2082,1,1,colocated,23_04_2014 level23_spatial_Mini 11_32 log.txt,37,37,1216,63.0,-4.0,2014-04-23,False,right
37,1251.4158,1,936,1551,2975,4263,501,-6.0,200,1,1,1252.145,1,1,colocated,24_04_2014 level23_spatial_Mini 14_13 log.txt,37,37,1216,63.0,-4.0,2014-04-24,False,right
20,116.3282,0,936,1551,2975,4263,505,-6.0,200,1,1,118.2865,1,1,colocated,10_07_2014 level23_spatial_Mini 14_03 log.txt,37,37,1216,63.0,-4.0,2014-07-10,False,right
88,909.9904,0,936,1551,2975,4263,506,-6.0,200,1,0,910.6704,0,1,colocated,13_12_2013 level23_spatial_Mini 09_07 log.txt,37,37,1216,63.0,-4.0,2013-12-13,False,right
58,512.7635,0,936,1551,2975,4263,511,-6.0,200,1,0,513.6087,0,1,colocated,19_11_2014 level23_spatial_Mini 13_54 log.txt,37,37,1216,63.0,-4.0,2014-11-19,False,right
9,75.5985,0,936,1551,2975,4263,505,-6.0,200,1,1,76.8067,1,1,colocated,24_03_2014 level23_spatial_Mini 14_04 log.txt,37,37,1216,63.0,-4.0,2014-03-24,False,right
69,389.9169,0,437,2761,2975,4263,507,-8.0,200,0,0,391.3459,1,0,colocated,11_03_2014 level23_spatial_Mini 17_07 log.txt,37,37,1216,65.0,-2.0,2014-03-11,False,left
89,961.3918,1,437,2761,2975,4263,502,-8.0,200,0,0,962.5075,1,0,colocated,23_04_2014 level23_spatial_Mini 11_32 log.txt,37,37,1216,65.0,-2.0,2014-04-23,False,left
140,1077.1979,1,437,2761,2975,4263,509,-8.0,200,0,0,1079.7643,1,0,colocated,17_11_2014 level23_spatial_Mini 10_07 log.txt,37,37,1216,65.0,-2.0,2014-11-17,False,left
16,225.77,0,437,2761,2975,4263,509,-8.0,200,0,1,227.1772,0,0,colocated,13_12_2013 level23_spatial_Mini 09_07 log.txt,37,37,1216,65.0,-2.0,2013-12-13,False,left
53,328.7608,1,437,2761,2975,4263,507,-8.0,200,0,1,334.9638,0,0,colocated,23_04_2014 level23_spatial_Mini 15_38 log.txt,37,37,1216,65.0,-2.0,2014-04-23,False,left
36,304.9767,0,437,2761,2975,4263,508,-8.0,200,0,1,305.7935,0,0,colocated,31_03_2014 level23_spatial_Mini 15_41 log.txt,37,37,1216,65.0,-2.0,2014-03-31,False,left
89,961.3918,1,437,2761,2975,4263,502,-8.0,200,0,0,962.5075,1,0,colocated,23_04_2014 level23_spatial_Mini 11_32 log.txt,37,37,1216,65.0,-2.0,2014-04-23,False,left
140,1077.1979,1,437,2761,2975,4263,509,-8.0,200,0,0,1079.7643,1,0,colocated,17_11_2014 level23_spatial_Mini 10_07 log.txt,37,37,1216,65.0,-2.0,2014-11-17,False,left
51,551.7653,0,437,2761,2975,4263,504,-8.0,200,0,0,552.7436,1,0,colocated,20_12_2013 level23_spatial_Mini 09_02 log.txt,37,37,1216,65.0,-2.0,2013-12-20,False,left
16,225.77,0,437,2761,2975,4263,509,-8.0,200,0,1,227.1772,0,0,colocated,13_12_2013 level23_spatial_Mini 09_07 log.txt,37,37,1216,65.0,-2.0,2013-12-13,False,left
37,226.0477,0,437,2761,2975,4263,505,-8.0,200,0,1,228.6516,0,0,colocated,31_10_2014 level23_spatial_Mini 08_56 log.txt,37,37,1216,65.0,-2.0,2014-10-31,False,left
69,389.9169,0,437,2761,2975,4263,507,-8.0,200,0,0,391.3459,1,0,colocated,11_03_2014 level23_spatial_Mini 17_07 log.txt,37,37,1216,65.0,-2.0,2014-03-11,False,left
89,961.3918,1,437,2761,2975,4263,502,-8.0,200,0,0,962.5075,1,0,colocated,23_04_2014 level23_spatial_Mini 11_32 log.txt,37,37,1216,65.0,-2.0,2014-04-23,False,left
49,295.1961,1,437,2761,2975,4263,504,-8.0,200,0,0,295.3165,1,0,colocated,31_10_2014 level23_spatial_Mini 14_15 log.txt,37,37,1216,65.0,-2.0,2014-10-31,False,left
47,314.2941,0,437,2761,2975,4263,505,-8.0,200,0,1,314.8396,0,0,colocated,11_03_2014 level23_spatial_Mini 10_12 log.txt,37,37,1216,65.0,-2.0,2014-03-11,False,left
24,301.3029,0,437,2761,2975,4263,501,-8.0,200,0,1,305.2336,0,0,colocated,08_08_2014 level23_spatial_Mini 15_09 log.txt,37,37,1216,65.0,-2.0,2014-08-08,False,left
111,1162.0076,0,437,2761,2975,4263,506,-8.0,200,0,1,1163.1864,0,0,colocated,13_12_2013 level23_spatial_Mini 09_07 log.txt,37,37,1216,65.0,-2.0,2013-12-13,False,left
8,82.6338,0,437,2761,2975,4263,501,-8.0,200,0,0,83.7323,1,0,colocated,17_11_2014 level23_spatial_Mini 10_07 log.txt,37,37,1216,65.0,-2.0,2014-11-17,False,left
140,1077.1979,1,437,2761,2975,4263,509,-8.0,200,0,0,1079.7643,1,0,colocated,17_11_2014 level23_spatial_Mini 10_07 log.txt,37,37,1216,65.0,-2.0,2014-11-17,False,left
65,435.0056,0,437,2761,2975,4263,505,-8.0,200,0,1,435.5167,0,0,colocated,04_02_2014 level23_spatial_Mini 10_44 log.txt,37,37,1216,65.0,-2.0,2014-02-04,False,left
5,1047.2536,1,437,2761,2975,4263,508,-8.0,200,0,0,1051.7813,1,0,colocated,24_04_2014 level23_spatial_Mini 14_13 log.txt,37,37,1216,65.0,-2.0,2014-04-24,False,left
40,258.0089,0,437,2761,2975,4263,511,-8.0,200,0,1,258.9792,0,0,colocated,09_04_2014 level23_spatial_Mini 09_15 log.txt,37,37,1216,65.0,-2.0,2014-04-09,False,left
49,295.1961,1,437,2761,2975,4263,504,-8.0,200,0,0,295.3165,1,0,colocated,31_10_2014 level23_spatial_Mini 14_15 log.txt,37,37,1216,65.0,-2.0,2014-10-31,False,left
16,225.77,0,437,2761,2975,4263,509,-8.0,200,0,1,227.1772,0,0,colocated,13_12_2013 level23_spatial_Mini 09_07 log.txt,37,37,1216,65.0,-2.0,2013-12-13,False,left
62,345.2013,1,437,2761,2975,4263,511,-8.0,200,0,1,348.0866,0,0,colocated,30_10_2014 level23_spatial_Mini 08_01 log.txt,37,37,1216,65.0,-2.0,2014-10-30,False,left
123,690.6406,0,437,2761,2975,4263,501,-8.0,200,0,0,691.5798,1,0,colocated,31_10_2014 level23_spatial_Mini 08_56 log.txt,37,37,1216,65.0,-2.0,2014-10-31,False,left
47,314.2941,0,437,2761,2975,4263,505,-8.0,200,0,1,314.8396,0,0,colocated,11_03_2014 level23_spatial_Mini 10_12 log.txt,37,37,1216,65.0,-2.0,2014-03-11,False,left
49,295.1961,1,437,2761,2975,4263,504,-8.0,200,0,0,295.3165,1,0,colocated,31_10_2014 level23_spatial_Mini 14_15 log.txt,37,37,1216,65.0,-2.0,2014-10-31,False,left
19,194.2276,1,437,2761,2975,4263,505,-8.0,200,0,1,196.2663,0,0,colocated,13_03_2014 level23_spatial_Mini 08_35 log.txt,37,37,1216,65.0,-2.0,2014-03-13,False,left
69,462.7276,1,936,1551,2975,4263,506,-8.0,200,1,0,464.9205,0,0,colocated,04_02_2014 level23_spatial_Mini 10_44 log.txt,37,37,1216,65.0,-2.0,2014-02-04,False,left
59,336.3824,0,936,1551,2975,4263,503,-8.0,200,1,1,337.4449,1,0,colocated,09_07_2014 level23_spatial_Mini 14_31 log.txt,37,37,1216,65.0,-2.0,2014-07-09,False,left
114,631.6384,0,936,1551,2975,4263,506,-8.0,200,1,1,633.2085,1,0,colocated,31_10_2014 level23_spatial_Mini 08_56 log.txt,37,37,1216,65.0,-2.0,2014-10-31,False,left
25,307.5474,1,936,1551,2975,4263,511,-8.0,200,1,1,309.9484,1,0,colocated,19_11_2014 level23_spatial_Mini 13_54 log.txt,37,37,1216,65.0,-2.0,2014-11-19,False,left
66,339.2383,1,936,1551,2975,4263,502,-8.0,200,1,1,339.8193,1,0,colocated,08_07_2014 level23_spatial_Mini 17_43 log.txt,37,37,1216,65.0,-2.0,2014-07-08,False,left
68,383.0225,1,936,1551,2975,4263,505,-8.0,200,1,1,385.9653,1,0,colocated,31_10_2014 level23_spatial_Mini 08_56 log.txt,37,37,1216,65.0,-2.0,2014-10-31,False,left
59,336.3824,0,936,1551,2975,4263,503,-8.0,200,1,1,337.4449,1,0,colocated,09_07_2014 level23_spatial_Mini 14_31 log.txt,37,37,1216,65.0,-2.0,2014-07-09,False,left
97,1014.0998,0,936,1551,2975,4263,504,-8.0,200,1,1,1015.0077,1,0,colocated,13_12_2013 level23_spatial_Mini 09_07 log.txt,37,37,1216,65.0,-2.0,2013-12-13,False,left
25,307.5474,1,936,1551,2975,4263,511,-8.0,200,1,1,309.9484,1,0,colocated,19_11_2014 level23_spatial_Mini 13_54 log.txt,37,37,1216,65.0,-2.0,2014-11-19,False,left
68,383.0225,1,936,1551,2975,4263,505,-8.0,200,1,1,385.9653,1,0,colocated,31_10_2014 level23_spatial_Mini 08_56 log.txt,37,37,1216,65.0,-2.0,2014-10-31,False,left
114,631.6384,0,936,1551,2975,4263,506,-8.0,200,1,1,633.2085,1,0,colocated,31_10_2014 level23_spatial_Mini 08_56 log.txt,37,37,1216,65.0,-2.0,2014-10-31,False,left
22,220.7513,1,936,1551,2975,4263,505,-8.0,200,1,1,223.3167,1,0,colocated,31_03_2014 level23_spatial_Mini 15_41 log.txt,37,37,1216,65.0,-2.0,2014-03-31,False,left
43,264.0773,0,936,1551,2975,4263,506,-8.0,200,1,1,265.3839,1,0,colocated,31_10_2014 level23_spatial_Mini 14_15 log.txt,37,37,1216,65.0,-2.0,2014-10-31,False,left
73,411.2382,1,936,1551,2975,4263,504,-8.0,200,1,0,413.0364,0,0,colocated,30_10_2014 level23_spatial_Mini 08_01 log.txt,37,37,1216,65.0,-2.0,2014-10-30,False,left
25,307.5474,1,936,1551,2975,4263,511,-8.0,200,1,1,309.9484,1,0,colocated,19_11_2014 level23_spatial_Mini 13_54 log.txt,37,37,1216,65.0,-2.0,2014-11-19,False,left
43,264.0773,0,936,1551,2975,4263,506,-8.0,200,1,1,265.3839,1,0,colocated,31_10_2014 level23_spatial_Mini 14_15 log.txt,37,37,1216,65.0,-2.0,2014-10-31,False,left
60,1226.0436,0,936,1551,2975,4263,506,-8.0,200,1,1,1227.5538,1,0,colocated,25_04_2014 level23_spatial_Mini 10_51 log.txt,37,37,1216,65.0,-2.0,2014-04-25,False,left
19,130.1839,0,936,1551,2975,4263,508,-8.0,200,1,0,132.6601,0,0,colocated,09_04_2014 level23_spatial_Mini 09_15 log.txt,37,37,1216,65.0,-2.0,2014-04-09,False,left
91,595.9916,0,936,1551,2975,4263,511,-8.0,200,1,0,597.4345,0,0,colocated,11_03_2014 level23_spatial_Mini 10_12 log.txt,37,37,1216,65.0,-2.0,2014-03-11,False,left
31,234.4539,0,936,1551,2975,4263,507,-8.0,200,1,1,235.2918,1,0,colocated,10_04_2014 level23_spatial_Mini 14_53 log.txt,37,37,1216,65.0,-2.0,2014-04-10,False,left
97,1014.0998,0,936,1551,2975,4263,504,-8.0,200,1,1,1015.0077,1,0,colocated,13_12_2013 level23_spatial_Mini 09_07 log.txt,37,37,1216,65.0,-2.0,2013-12-13,False,left
60,1226.0436,0,936,1551,2975,4263,506,-8.0,200,1,1,1227.5538,1,0,colocated,25_04_2014 level23_spatial_Mini 10_51 log.txt,37,37,1216,65.0,-2.0,2014-04-25,False,left
32,184.8127,1,936,1551,2975,4263,509,-8.0,200,1,0,187.2004,0,0,colocated,14_03_2014 level23_spatial_Mini 15_38 log.txt,37,37,1216,65.0,-2.0,2014-03-14,False,left
68,383.0225,1,936,1551,2975,4263,505,-8.0,200,1,1,385.9653,1,0,colocated,31_10_2014 level23_spatial_Mini 08_56 log.txt,37,37,1216,65.0,-2.0,2014-10-31,False,left
43,264.0773,0,936,1551,2975,4263,506,-8.0,200,1,1,265.3839,1,0,colocated,31_10_2014 level23_spatial_Mini 14_15 log.txt,37,37,1216,65.0,-2.0,2014-10-31,False,left
91,595.9916,0,936,1551,2975,4263,511,-8.0,200,1,0,597.4345,0,0,colocated,11_03_2014 level23_spatial_Mini 10_12 log.txt,37,37,1216,65.0,-2.0,2014-03-11,False,left
170,1245.3369,1,936,1551,2975,4263,510,-8.0,200,1,0,1247.6782,0,0,colocated,17_11_2014 level23_spatial_Mini 10_07 log.txt,37,37,1216,65.0,-2.0,2014-11-17,False,left
43,264.0773,0,936,1551,2975,4263,506,-8.0,200,1,1,265.3839,1,0,colocated,31_10_2014 level23_spatial_Mini 14_15 log.txt,37,37,1216,65.0,-2.0,2014-10-31,False,left
91,595.9916,0,936,1551,2975,4263,511,-8.0,200,1,0,597.4345,0,0,colocated,11_03_2014 level23_spatial_Mini 10_12 log.txt,37,37,1216,65.0,-2.0,2014-03-11,False,left
55,410.066,1,437,2761,2975,4263,501,-8.0,200,0,1,412.6722,0,1,colocated,13_03_2014 level23_spatial_Mini 08_35 log.txt,37,37,1216,65.0,-2.0,2014-03-13,False,right
36,368.542,1,437,2761,2975,4263,509,-8.0,200,0,1,370.6346,0,1,colocated,19_11_2014 level23_spatial_Mini 13_54 log.txt,37,37,1216,65.0,-2.0,2014-11-19,False,right
92,884.8441,0,437,2761,2975,4263,508,-8.0,200,0,0,887.4517,1,1,colocated,10_04_2014 level23_spatial_Mini 14_53 log.txt,37,37,1216,65.0,-2.0,2014-04-10,False,right
78,447.364,0,437,2761,2975,4263,507,-8.0,200,0,0,448.3706,1,1,colocated,11_03_2014 level23_spatial_Mini 17_07 log.txt,37,37,1216,65.0,-2.0,2014-03-11,False,right
78,447.364,0,437,2761,2975,4263,507,-8.0,200,0,0,448.3706,1,1,colocated,11_03_2014 level23_spatial_Mini 17_07 log.txt,37,37,1216,65.0,-2.0,2014-03-11,False,right
75,768.616,1,437,2761,2975,4263,503,-8.0,200,0,1,769.2825,0,1,colocated,13_12_2013 level23_spatial_Mini 09_07 log.txt,37,37,1216,65.0,-2.0,2013-12-13,False,right
55,338.4137,1,437,2761,2975,4263,507,-8.0,200,0,1,340.536,0,1,colocated,10_07_2014 level23_spatial_Mini 14_03 log.txt,37,37,1216,65.0,-2.0,2014-07-10,False,right
53,286.9572,1,437,2761,2975,4263,509,-8.0,200,0,1,289.1731,0,1,colocated,09_07_2014 level23_spatial_Mini 14_31 log.txt,37,37,1216,65.0,-2.0,2014-07-09,False,right
36,254.5926,0,437,2761,2975,4263,501,-8.0,200,0,0,255.3949,1,1,colocated,04_02_2014 level23_spatial_Mini 10_44 log.txt,37,37,1216,65.0,-2.0,2014-02-04,False,right
36,254.5926,0,437,2761,2975,4263,501,-8.0,200,0,0,255.3949,1,1,colocated,04_02_2014 level23_spatial_Mini 10_44 log.txt,37,37,1216,65.0,-2.0,2014-02-04,False,right
121,684.0883,0,437,2761,2975,4263,510,-8.0,200,0,1,685.271,0,1,colocated,31_10_2014 level23_spatial_Mini 08_56 log.txt,37,37,1216,65.0,-2.0,2014-10-31,False,right
48,282.4366,0,437,2761,2975,4263,508,-8.0,200,0,0,283.6517,1,1,colocated,31_10_2014 level23_spatial_Mini 08_56 log.txt,37,37,1216,65.0,-2.0,2014-10-31,False,right
45,254.2179,1,437,2761,2975,4263,509,-8.0,200,0,0,256.3198,1,1,colocated,17_11_2014 level23_spatial_Mini 15_46 log.txt,37,37,1216,65.0,-2.0,2014-11-17,False,right
9,66.8384,0,437,2761,2975,4263,502,-8.0,200,0,0,67.8567,1,1,colocated,11_04_2014 level23_spatial_Mini 14_17 log.txt,37,37,1216,65.0,-2.0,2014-04-11,False,right
7,50.5968,0,437,2761,2975,4263,509,-8.0,200,0,0,51.6719,1,1,colocated,09_04_2014 level23_spatial_Mini 09_15 log.txt,37,37,1216,65.0,-2.0,2014-04-09,False,right
78,447.364,0,437,2761,2975,4263,507,-8.0,200,0,0,448.3706,1,1,colocated,11_03_2014 level23_spatial_Mini 17_07 log.txt,37,37,1216,65.0,-2.0,2014-03-11,False,right
18,549.9512,0,437,2761,2975,4263,504,-8.0,200,0,1,550.2903,0,1,colocated,23_04_2014 level23_spatial_Mini 11_32 log.txt,37,37,1216,65.0,-2.0,2014-04-23,False,right
4,110.8407,0,437,2761,2975,4263,505,-8.0,200,0,0,112.4579,1,1,colocated,13_12_2013 level23_spatial_Mini 09_07 log.txt,37,37,1216,65.0,-2.0,2013-12-13,False,right
51,295.1963,0,437,2761,2975,4263,510,-8.0,200,0,1,296.2385,0,1,colocated,14_03_2014 level23_spatial_Mini 15_38 log.txt,37,37,1216,65.0,-2.0,2014-03-14,False,right
9,66.8384,0,437,2761,2975,4263,502,-8.0,200,0,0,67.8567,1,1,colocated,11_04_2014 level23_spatial_Mini 14_17 log.txt,37,37,1216,65.0,-2.0,2014-04-11,False,right
18,549.9512,0,437,2761,2975,4263,504,-8.0,200,0,1,550.2903,0,1,colocated,23_04_2014 level23_spatial_Mini 11_32 log.txt,37,37,1216,65.0,-2.0,2014-04-23,False,right
7,50.5968,0,437,2761,2975,4263,509,-8.0,200,0,0,51.6719,1,1,colocated,09_04_2014 level23_spatial_Mini 09_15 log.txt,37,37,1216,65.0,-2.0,2014-04-09,False,right
55,410.066,1,437,2761,2975,4263,501,-8.0,200,0,1,412.6722,0,1,colocated,13_03_2014 level23_spatial_Mini 08_35 log.txt,37,37,1216,65.0,-2.0,2014-03-13,False,right
37,249.2819,1,437,2761,2975,4263,501,-8.0,200,0,1,252.6865,0,1,colocated,14_03_2014 level23_spatial_Mini 10_20 log.txt,37,37,1216,65.0,-2.0,2014-03-14,False,right
36,368.542,1,437,2761,2975,4263,509,-8.0,200,0,1,370.6346,0,1,colocated,19_11_2014 level23_spatial_Mini 13_54 log.txt,37,37,1216,65.0,-2.0,2014-11-19,False,right
37,249.2819,1,437,2761,2975,4263,501,-8.0,200,0,1,252.6865,0,1,colocated,14_03_2014 level23_spatial_Mini 10_20 log.txt,37,37,1216,65.0,-2.0,2014-03-14,False,right
78,447.364,0,437,2761,2975,4263,507,-8.0,200,0,0,448.3706,1,1,colocated,11_03_2014 level23_spatial_Mini 17_07 log.txt,37,37,1216,65.0,-2.0,2014-03-11,False,right
27,158.5688,1,437,2761,2975,4263,511,-8.0,200,0,1,161.1821,0,1,colocated,31_10_2014 level23_spatial_Mini 14_15 log.txt,37,37,1216,65.0,-2.0,2014-10-31,False,right
36,368.542,1,437,2761,2975,4263,509,-8.0,200,0,1,370.6346,0,1,colocated,19_11_2014 level23_spatial_Mini 13_54 log.txt,37,37,1216,65.0,-2.0,2014-11-19,False,right
71,395.6023,0,936,1551,2975,4263,503,-8.0,200,1,0,396.6101,0,1,colocated,17_11_2014 level23_spatial_Mini 15_46 log.txt,37,37,1216,65.0,-2.0,2014-11-17,False,right
25,131.0054,0,936,1551,2975,4263,501,-8.0,200,1,1,132.3662,1,1,colocated,08_07_2014 level23_spatial_Mini 17_43 log.txt,37,37,1216,65.0,-2.0,2014-07-08,False,right
4,25.6612,0,936,1551,2975,4263,509,-8.0,200,1,1,26.09,1,1,colocated,23_04_2014 level23_spatial_Mini 15_38 log.txt,37,37,1216,65.0,-2.0,2014-04-23,False,right
78,670.5742,0,936,1551,2975,4263,501,-8.0,200,1,1,671.8415,1,1,colocated,19_11_2014 level23_spatial_Mini 13_54 log.txt,37,37,1216,65.0,-2.0,2014-11-19,False,right
85,859.4707,1,936,1551,2975,4263,509,-8.0,200,1,1,867.4511,1,1,colocated,13_12_2013 level23_spatial_Mini 09_07 log.txt,37,37,1216,65.0,-2.0,2013-12-13,False,right
180,896.6477,1,936,1551,2975,4263,508,-8.0,200,1,1,899.8877,1,1,colocated,13_03_2014 level23_spatial_Mini 16_17 log.txt,37,37,1216,65.0,-2.0,2014-03-13,False,right
71,401.3736,1,936,1551,2975,4263,508,-8.0,200,1,1,403.6503,1,1,colocated,30_10_2014 level23_spatial_Mini 08_01 log.txt,37,37,1216,65.0,-2.0,2014-10-30,False,right
5,23.8154,0,936,1551,2975,4263,511,-8.0,200,1,0,24.7333,0,1,colocated,14_03_2014 level23_spatial_Mini 15_38 log.txt,37,37,1216,65.0,-2.0,2014-03-14,False,right
138,1058.2933,0,936,1551,2975,4263,510,-8.0,200,1,1,1059.6476,1,1,colocated,17_11_2014 level23_spatial_Mini 10_07 log.txt,37,37,1216,65.0,-2.0,2014-11-17,False,right
4,25.6612,0,936,1551,2975,4263,509,-8.0,200,1,1,26.09,1,1,colocated,23_04_2014 level23_spatial_Mini 15_38 log.txt,37,37,1216,65.0,-2.0,2014-04-23,False,right
138,1058.2933,0,936,1551,2975,4263,510,-8.0,200,1,1,1059.6476,1,1,colocated,17_11_2014 level23_spatial_Mini 10_07 log.txt,37,37,1216,65.0,-2.0,2014-11-17,False,right
59,370.9716,0,936,1551,2975,4263,503,-8.0,200,1,1,372.1833,1,1,colocated,10_07_2014 level23_spatial_Mini 14_03 log.txt,37,37,1216,65.0,-2.0,2014-07-10,False,right
11,150.3968,0,936,1551,2975,4263,508,-8.0,200,1,1,151.0761,1,1,colocated,31_03_2014 level23_spatial_Mini 15_41 log.txt,37,37,1216,65.0,-2.0,2014-03-31,False,right
140,1277.8439,0,936,1551,2975,4263,505,-8.0,200,1,1,1278.3935,1,1,colocated,23_04_2014 level23_spatial_Mini 11_32 log.txt,37,37,1216,65.0,-2.0,2014-04-23,False,right
4,25.6612,0,936,1551,2975,4263,509,-8.0,200,1,1,26.09,1,1,colocated,23_04_2014 level23_spatial_Mini 15_38 log.txt,37,37,1216,65.0,-2.0,2014-04-23,False,right
49,287.0426,1,936,1551,2975,4263,504,-8.0,200,1,0,289.4037,0,1,colocated,31_10_2014 level23_spatial_Mini 08_56 log.txt,37,37,1216,65.0,-2.0,2014-10-31,False,right
1,751.5451,1,936,1551,2975,4263,504,-8.0,200,1,0,757.3927,0,1,colocated,25_04_2014 level23_spatial_Mini 10_51 log.txt,37,37,1216,65.0,-2.0,2014-04-25,False,right
92,986.1822,0,936,1551,2975,4263,507,-8.0,200,1,0,987.5594,0,1,colocated,23_04_2014 level23_spatial_Mini 11_32 log.txt,37,37,1216,65.0,-2.0,2014-04-23,False,right
45,301.0269,1,936,1551,2975,4263,504,-8.0,200,1,1,303.0945,1,1,colocated,04_02_2014 level23_spatial_Mini 10_44 log.txt,37,37,1216,65.0,-2.0,2014-02-04,False,right
12,431.8513,1,936,1551,2975,4263,510,-8.0,200,1,1,434.1883,1,1,colocated,20_11_2014 level23_spatial_Mini 14_10 log.txt,37,37,1216,65.0,-2.0,2014-11-20,False,right
49,362.7804,1,936,1551,2975,4263,509,-8.0,200,1,1,365.2791,1,1,colocated,10_04_2014 level23_spatial_Mini 14_53 log.txt,37,37,1216,65.0,-2.0,2014-04-10,False,right
88,785.5427,1,936,1551,2975,4263,509,-8.0,200,1,1,787.4288,1,1,colocated,08_08_2014 level23_spatial_Mini 15_09 log.txt,37,37,1216,65.0,-2.0,2014-08-08,False,right
71,401.3736,1,936,1551,2975,4263,508,-8.0,200,1,1,403.6503,1,1,colocated,30_10_2014 level23_spatial_Mini 08_01 log.txt,37,37,1216,65.0,-2.0,2014-10-30,False,right
11,150.3968,0,936,1551,2975,4263,508,-8.0,200,1,1,151.0761,1,1,colocated,31_03_2014 level23_spatial_Mini 15_41 log.txt,37,37,1216,65.0,-2.0,2014-03-31,False,right
42,345.6587,1,936,1551,2975,4263,501,-8.0,200,1,1,351.53,1,1,colocated,17_11_2014 level23_spatial_Mini 10_07 log.txt,37,37,1216,65.0,-2.0,2014-11-17,False,right
14,102.1582,0,936,1551,2975,4263,501,-8.0,200,1,1,104.5183,1,1,colocated,24_03_2014 level23_spatial_Mini 14_04 log.txt,37,37,1216,65.0,-2.0,2014-03-24,False,right
88,785.5427,1,936,1551,2975,4263,509,-8.0,200,1,1,787.4288,1,1,colocated,08_08_2014 level23_spatial_Mini 15_09 log.txt,37,37,1216,65.0,-2.0,2014-08-08,False,right
85,859.4707,1,936,1551,2975,4263,509,-8.0,200,1,1,867.4511,1,1,colocated,13_12_2013 level23_spatial_Mini 09_07 log.txt,37,37,1216,65.0,-2.0,2013-12-13,False,right
71,395.6023,0,936,1551,2975,4263,503,-8.0,200,1,0,396.6101,0,1,colocated,17_11_2014 level23_spatial_Mini 15_46 log.txt,37,37,1216,65.0,-2.0,2014-11-17,False,right
37,1075.5007,1,437,2761,2975,4263,509,-10.0,200,0,0,1078.0573,1,0,colocated,25_04_2014 level23_spatial_Mini 10_51 log.txt,37,37,1216,67.0,0.0,2014-04-25,False,left
23,392.7618,0,437,2761,2975,4263,676,-10.0,200,0,0,393.0075,1,0,colocated,28_11_2014 level23_spatial_Mini 09_17 log.txt,37,37,1216,67.0,0.0,2014-11-28,False,left
37,274.4379,1,437,2761,2975,4263,576,-10.0,200,0,0,275.3196,1,0,colocated,27_11_2014 level23_spatial_Mini 09_32 log.txt,37,37,1216,67.0,0.0,2014-11-27,False,left
102,795.9911,1,437,2761,2975,4263,503,-10.0,200,0,0,797.6804,1,0,colocated,17_11_2014 level23_spatial_Mini 10_07 log.txt,37,37,1216,67.0,0.0,2014-11-17,False,left
47,291.5577,0,437,2761,2975,4263,504,-10.0,200,0,1,292.1933,0,0,colocated,23_04_2014 level23_spatial_Mini 15_38 log.txt,37,37,1216,67.0,0.0,2014-04-23,False,left
31,160.2743,0,437,2761,2975,4263,508,-10.0,200,0,0,161.843,1,0,colocated,08_07_2014 level23_spatial_Mini 17_43 log.txt,37,37,1216,67.0,0.0,2014-07-08,False,left
22,534.0868,1,437,2761,2975,4263,506,-10.0,200,0,0,536.4544,1,0,colocated,20_11_2014 level23_spatial_Mini 14_10 log.txt,37,37,1216,67.0,0.0,2014-11-20,False,left
53,742.0514,0,437,2761,2975,4263,651,-10.0,200,0,1,743.2153,0,0,colocated,04_12_2014 level23_spatial_Mini 16_20 log.txt,37,37,1216,67.0,0.0,2014-12-04,False,left
46,306.7609,0,437,2761,2975,4263,510,-10.0,200,0,1,307.735,0,0,colocated,04_02_2014 level23_spatial_Mini 10_44 log.txt,37,37,1216,67.0,0.0,2014-02-04,False,left
31,160.2743,0,437,2761,2975,4263,508,-10.0,200,0,0,161.843,1,0,colocated,08_07_2014 level23_spatial_Mini 17_43 log.txt,37,37,1216,67.0,0.0,2014-07-08,False,left
51,393.9092,0,437,2761,2975,4263,576,-10.0,200,0,1,394.8353,0,0,colocated,02_12_2014 level23_spatial_Mini 14_57 log.txt,37,37,1216,67.0,0.0,2014-12-02,False,left
40,378.3771,0,437,2761,2975,4263,551,-10.0,200,0,1,379.1579,0,0,colocated,15_12_2014 level23_spatial_Mini 14_12 log.txt,37,37,1216,67.0,0.0,2014-12-15,False,left
98,724.0341,0,437,2761,2975,4263,676,-10.0,200,0,1,725.115,0,0,colocated,15_12_2014 level23_spatial_Mini 14_12 log.txt,37,37,1216,67.0,0.0,2014-12-15,False,left
47,494.4644,0,437,2761,2975,4263,701,-10.0,200,0,1,494.9616,0,0,colocated,27_11_2014 level23_spatial_Mini 15_16 log.txt,37,37,1216,67.0,0.0,2014-11-27,False,left
40,378.3771,0,437,2761,2975,4263,551,-10.0,200,0,1,379.1579,0,0,colocated,15_12_2014 level23_spatial_Mini 14_12 log.txt,37,37,1216,67.0,0.0,2014-12-15,False,left
20,562.6482,0,437,2761,2975,4263,503,-10.0,200,0,1,563.4637,0,0,colocated,23_04_2014 level23_spatial_Mini 11_32 log.txt,37,37,1216,67.0,0.0,2014-04-23,False,left
43,361.1877,0,437,2761,2975,4263,701,-10.0,200,0,0,362.2352,1,0,colocated,05_12_2014 level23_spatial_Mini 09_42 log.txt,37,37,1216,67.0,0.0,2014-12-05,False,left
206,1062.0281,1,437,2761,2975,4263,502,-10.0,200,0,1,1065.3679,0,0,colocated,13_03_2014 level23_spatial_Mini 16_17 log.txt,37,37,1216,67.0,0.0,2014-03-13,False,left
65,595.3043,0,437,2761,2975,4263,503,-10.0,200,0,1,596.2282,0,0,colocated,08_08_2014 level23_spatial_Mini 15_09 log.txt,37,37,1216,67.0,0.0,2014-08-08,False,left
79,447.3867,1,437,2761,2975,4263,502,-10.0,200,0,1,450.072,0,0,colocated,31_10_2014 level23_spatial_Mini 08_56 log.txt,37,37,1216,67.0,0.0,2014-10-31,False,left
67,554.1968,0,437,2761,2975,4263,507,-10.0,200,0,0,556.5304,1,0,colocated,09_04_2014 level23_spatial_Mini 13_52 log.txt,37,37,1216,67.0,0.0,2014-04-09,False,left
23,392.7618,0,437,2761,2975,4263,676,-10.0,200,0,0,393.0075,1,0,colocated,28_11_2014 level23_spatial_Mini 09_17 log.txt,37,37,1216,67.0,0.0,2014-11-28,False,left
98,724.0341,0,437,2761,2975,4263,676,-10.0,200,0,1,725.115,0,0,colocated,15_12_2014 level23_spatial_Mini 14_12 log.txt,37,37,1216,67.0,0.0,2014-12-15,False,left
47,291.5577,0,437,2761,2975,4263,504,-10.0,200,0,1,292.1933,0,0,colocated,23_04_2014 level23_spatial_Mini 15_38 log.txt,37,37,1216,67.0,0.0,2014-04-23,False,left
44,251.7071,1,437,2761,2975,4263,506,-10.0,200,0,0,254.1707,1,0,colocated,11_03_2014 level23_spatial_Mini 17_07 log.txt,37,37,1216,67.0,0.0,2014-03-11,False,left
15,366.5272,0,437,2761,2975,4263,701,-10.0,200,0,0,366.9736,1,0,colocated,21_11_2014 level23_spatial_Mini 08_48 log.txt,37,37,1216,67.0,0.0,2014-11-21,False,left
98,724.0341,0,437,2761,2975,4263,676,-10.0,200,0,1,725.115,0,0,colocated,15_12_2014 level23_spatial_Mini 14_12 log.txt,37,37,1216,67.0,0.0,2014-12-15,False,left
26,278.0753,0,437,2761,2975,4263,551,-10.0,200,0,0,278.4525,1,0,colocated,21_11_2014 level23_spatial_Mini 14_01 log.txt,37,37,1216,67.0,0.0,2014-11-21,False,left
53,742.0514,0,437,2761,2975,4263,651,-10.0,200,0,1,743.2153,0,0,colocated,04_12_2014 level23_spatial_Mini 16_20 log.txt,37,37,1216,67.0,0.0,2014-12-04,False,left
6,133.5527,0,936,1551,2975,4263,504,-10.0,200,1,0,135.2774,0,0,colocated,13_12_2013 level23_spatial_Mini 09_07 log.txt,37,37,1216,67.0,0.0,2013-12-13,False,left
92,486.5548,0,936,1551,2975,4263,505,-10.0,200,1,1,487.352,1,0,colocated,08_07_2014 level23_spatial_Mini 17_43 log.txt,37,37,1216,67.0,0.0,2014-07-08,False,left
52,322.9285,1,936,1551,2975,4263,503,-10.0,200,1,1,325.2856,1,0,colocated,23_04_2014 level23_spatial_Mini 15_38 log.txt,37,37,1216,67.0,0.0,2014-04-23,False,left
21,158.7088,0,936,1551,2975,4263,701,-10.0,200,1,0,159.0599,0,0,colocated,27_11_2014 level23_spatial_Mini 09_32 log.txt,37,37,1216,67.0,0.0,2014-11-27,False,left
133,1021.2241,1,936,1551,2975,4263,501,-10.0,200,1,0,1023.7281,0,0,colocated,17_11_2014 level23_spatial_Mini 10_07 log.txt,37,37,1216,67.0,0.0,2014-11-17,False,left
6,265.015,1,936,1551,2975,4263,726,-10.0,200,1,1,265.4467,1,0,colocated,28_11_2014 level23_spatial_Mini 09_17 log.txt,37,37,1216,67.0,0.0,2014-11-28,False,left
75,1315.7428,1,936,1551,2975,4263,505,-10.0,200,1,1,1319.4235,1,0,colocated,25_04_2014 level23_spatial_Mini 10_51 log.txt,37,37,1216,67.0,0.0,2014-04-25,False,left
50,486.7987,0,936,1551,2975,4263,601,-10.0,200,1,1,487.9637,1,0,colocated,26_11_2014 level23_spatial_Mini 09_38 log.txt,37,37,1216,67.0,0.0,2014-11-26,False,left
78,436.133,0,936,1551,2975,4263,510,-10.0,200,1,0,437.374,0,0,colocated,17_11_2014 level23_spatial_Mini 15_46 log.txt,37,37,1216,67.0,0.0,2014-11-17,False,left
86,416.2755,0,936,1551,2975,4263,501,-10.0,200,1,0,416.3333,0,0,colocated,13_03_2014 level23_spatial_Mini 16_17 log.txt,37,37,1216,67.0,0.0,2014-03-13,False,left
75,652.9916,1,936,1551,2975,4263,505,-10.0,200,1,1,655.4459,1,0,colocated,08_08_2014 level23_spatial_Mini 15_09 log.txt,37,37,1216,67.0,0.0,2014-08-08,False,left
4,186.6708,0,936,1551,2975,4263,501,-10.0,200,1,1,187.7203,1,0,colocated,09_04_2014 level23_spatial_Mini 13_52 log.txt,37,37,1216,67.0,0.0,2014-04-09,False,left
108,843.3359,0,936,1551,2975,4263,626,-10.0,200,1,0,844.3186,0,0,colocated,26_11_2014 level23_spatial_Mini 09_38 log.txt,37,37,1216,67.0,0.0,2014-11-26,False,left
3,19.3274,0,936,1551,2975,4263,506,-10.0,200,1,1,22.756,1,0,colocated,11_03_2014 level23_spatial_Mini 10_12 log.txt,37,37,1216,67.0,0.0,2014-03-11,False,left
56,484.2621,0,936,1551,2975,4263,511,-10.0,200,1,1,485.3617,1,0,colocated,17_11_2014 level23_spatial_Mini 10_07 log.txt,37,37,1216,67.0,0.0,2014-11-17,False,left
62,418.0334,1,936,1551,2975,4263,508,-10.0,200,1,1,421.1637,1,0,colocated,04_02_2014 level23_spatial_Mini 10_44 log.txt,37,37,1216,67.0,0.0,2014-02-04,False,left
18,220.9626,0,936,1551,2975,4263,501,-10.0,200,1,1,221.44,1,0,colocated,15_12_2014 level23_spatial_Mini 08_39 log.txt,37,37,1216,67.0,0.0,2014-12-15,False,left
17,141.4542,0,936,1551,2975,4263,726,-10.0,200,1,0,141.8894,0,0,colocated,05_12_2014 level23_spatial_Mini 09_42 log.txt,37,37,1216,67.0,0.0,2014-12-05,False,left
23,122.7965,0,936,1551,2975,4263,504,-10.0,200,1,1,123.7864,1,0,colocated,08_07_2014 level23_spatial_Mini 17_43 log.txt,37,37,1216,67.0,0.0,2014-07-08,False,left
49,360.3868,1,936,1551,2975,4263,507,-10.0,200,1,1,365.8604,1,0,colocated,24_03_2014 level23_spatial_Mini 14_04 log.txt,37,37,1216,67.0,0.0,2014-03-24,False,left
16,922.3328,0,936,1551,2975,4263,651,-10.0,200,1,1,922.9921,1,0,colocated,26_11_2014 level23_spatial_Mini 15_54 log.txt,37,37,1216,67.0,0.0,2014-11-26,False,left
108,843.3359,0,936,1551,2975,4263,626,-10.0,200,1,0,844.3186,0,0,colocated,26_11_2014 level23_spatial_Mini 09_38 log.txt,37,37,1216,67.0,0.0,2014-11-26,False,left
3,19.3274,0,936,1551,2975,4263,506,-10.0,200,1,1,22.756,1,0,colocated,11_03_2014 level23_spatial_Mini 10_12 log.txt,37,37,1216,67.0,0.0,2014-03-11,False,left
21,158.7088,0,936,1551,2975,4263,701,-10.0,200,1,0,159.0599,0,0,colocated,27_11_2014 level23_spatial_Mini 09_32 log.txt,37,37,1216,67.0,0.0,2014-11-27,False,left
16,922.3328,0,936,1551,2975,4263,651,-10.0,200,1,1,922.9921,1,0,colocated,26_11_2014 level23_spatial_Mini 15_54 log.txt,37,37,1216,67.0,0.0,2014-11-26,False,left
75,652.9916,1,936,1551,2975,4263,505,-10.0,200,1,1,655.4459,1,0,colocated,08_08_2014 level23_spatial_Mini 15_09 log.txt,37,37,1216,67.0,0.0,2014-08-08,False,left
38,207.3774,1,936,1551,2975,4263,501,-10.0,200,1,1,209.9177,1,0,colocated,30_10_2014 level23_spatial_Mini 08_01 log.txt,37,37,1216,67.0,0.0,2014-10-30,False,left
6,37.9373,0,936,1551,2975,4263,510,-10.0,200,1,1,38.902,1,0,colocated,10_07_2014 level23_spatial_Mini 14_03 log.txt,37,37,1216,67.0,0.0,2014-07-10,False,left
108,843.3359,0,936,1551,2975,4263,626,-10.0,200,1,0,844.3186,0,0,colocated,26_11_2014 level23_spatial_Mini 09_38 log.txt,37,37,1216,67.0,0.0,2014-11-26,False,left
83,890.6695,0,437,2761,2975,4263,651,-10.0,200,0,1,891.4023,0,1,colocated,21_11_2014 level23_spatial_Mini 14_01 log.txt,37,37,1216,67.0,0.0,2014-11-21,False,right
41,251.8581,0,437,2761,2975,4263,501,-10.0,200,0,0,252.8656,1,1,colocated,31_10_2014 level23_spatial_Mini 14_15 log.txt,37,37,1216,67.0,0.0,2014-10-31,False,right
82,462.4408,0,437,2761,2975,4263,503,-10.0,200,0,0,463.5323,1,1,colocated,31_10_2014 level23_spatial_Mini 08_56 log.txt,37,37,1216,67.0,0.0,2014-10-31,False,right
53,563.5251,1,437,2761,2975,4263,501,-10.0,200,0,1,564.2458,0,1,colocated,28_11_2014 level23_spatial_Mini 09_17 log.txt,37,37,1216,67.0,0.0,2014-11-28,False,right
99,794.4051,0,437,2761,2975,4263,751,-10.0,200,0,0,794.6795,1,1,colocated,26_11_2014 level23_spatial_Mini 09_38 log.txt,37,37,1216,67.0,0.0,2014-11-26,False,right
30,383.9502,1,437,2761,2975,4263,504,-10.0,200,0,0,388.0393,1,1,colocated,20_12_2013 level23_spatial_Mini 09_02 log.txt,37,37,1216,67.0,0.0,2013-12-20,False,right
63,515.5213,0,437,2761,2975,4263,751,-10.0,200,0,0,515.9914,1,1,colocated,05_12_2014 level23_spatial_Mini 09_42 log.txt,37,37,1216,67.0,0.0,2014-12-05,False,right
94,495.8998,0,437,2761,2975,4263,502,-10.0,200,0,1,496.7052,0,1,colocated,08_07_2014 level23_spatial_Mini 17_43 log.txt,37,37,1216,67.0,0.0,2014-07-08,False,right
33,347.9421,1,437,2761,2975,4263,502,-10.0,200,0,1,350.024,0,1,colocated,09_04_2014 level23_spatial_Mini 13_52 log.txt,37,37,1216,67.0,0.0,2014-04-09,False,right
61,409.6027,1,437,2761,2975,4263,511,-10.0,200,0,0,411.7096,1,1,colocated,04_02_2014 level23_spatial_Mini 10_44 log.txt,37,37,1216,67.0,0.0,2014-02-04,False,right
79,904.7761,0,437,2761,2975,4263,626,-10.0,200,0,0,905.2815,1,1,colocated,04_12_2014 level23_spatial_Mini 16_20 log.txt,37,37,1216,67.0,0.0,2014-12-04,False,right
63,515.5213,0,437,2761,2975,4263,751,-10.0,200,0,0,515.9914,1,1,colocated,05_12_2014 level23_spatial_Mini 09_42 log.txt,37,37,1216,67.0,0.0,2014-12-05,False,right
36,647.0946,0,437,2761,2975,4263,751,-10.0,200,0,0,647.4247,1,1,colocated,04_12_2014 level23_spatial_Mini 16_20 log.txt,37,37,1216,67.0,0.0,2014-12-04,False,right
23,136.3018,1,437,2761,2975,4263,510,-10.0,200,0,1,138.5071,0,1,colocated,11_03_2014 level23_spatial_Mini 17_07 log.txt,37,37,1216,67.0,0.0,2014-03-11,False,right
7,68.2366,0,437,2761,2975,4263,676,-10.0,200,0,1,68.9366,0,1,colocated,15_12_2014 level23_spatial_Mini 08_39 log.txt,37,37,1216,67.0,0.0,2014-12-15,False,right
65,367.357,0,437,2761,2975,4263,506,-10.0,200,0,0,368.4405,1,1,colocated,17_11_2014 level23_spatial_Mini 15_46 log.txt,37,37,1216,67.0,0.0,2014-11-17,False,right
53,563.5251,1,437,2761,2975,4263,501,-10.0,200,0,1,564.2458,0,1,colocated,28_11_2014 level23_spatial_Mini 09_17 log.txt,37,37,1216,67.0,0.0,2014-11-28,False,right
82,462.4408,0,437,2761,2975,4263,503,-10.0,200,0,0,463.5323,1,1,colocated,31_10_2014 level23_spatial_Mini 08_56 log.txt,37,37,1216,67.0,0.0,2014-10-31,False,right
75,528.9477,0,437,2761,2975,4263,502,-10.0,200,0,1,529.7277,0,1,colocated,10_04_2014 level23_spatial_Mini 14_53 log.txt,37,37,1216,67.0,0.0,2014-04-10,False,right
32,349.7182,1,437,2761,2975,4263,505,-10.0,200,0,1,355.3226,0,1,colocated,08_08_2014 level23_spatial_Mini 15_09 log.txt,37,37,1216,67.0,0.0,2014-08-08,False,right
62,553.0068,0,437,2761,2975,4263,526,-10.0,200,0,0,553.3225,1,1,colocated,02_12_2014 level23_spatial_Mini 14_57 log.txt,37,37,1216,67.0,0.0,2014-12-02,False,right
1,91.0959,0,437,2761,2975,4263,502,-10.0,200,0,0,91.7638,1,1,colocated,31_03_2014 level23_spatial_Mini 15_41 log.txt,37,37,1216,67.0,0.0,2014-03-31,False,right
23,206.5203,0,437,2761,2975,4263,551,-10.0,200,0,0,207.8551,1,1,colocated,03_12_2014 level23_spatial_Mini 15_56 log.txt,37,37,1216,67.0,0.0,2014-12-03,False,right
8,120.1791,0,437,2761,2975,4263,576,-10.0,200,0,0,122.0927,1,1,colocated,27_11_2014 level23_spatial_Mini 15_16 log.txt,37,37,1216,67.0,0.0,2014-11-27,False,right
79,911.8514,0,437,2761,2975,4263,505,-10.0,200,0,1,912.8035,0,1,colocated,14_03_2014 level23_spatial_Mini 15_38 log.txt,37,37,1216,67.0,0.0,2014-03-14,False,right
62,553.0068,0,437,2761,2975,4263,526,-10.0,200,0,0,553.3225,1,1,colocated,02_12_2014 level23_spatial_Mini 14_57 log.txt,37,37,1216,67.0,0.0,2014-12-02,False,right
39,200.289,1,437,2761,2975,4263,504,-10.0,200,0,1,202.3896,0,1,colocated,09_07_2014 level23_spatial_Mini 14_31 log.txt,37,37,1216,67.0,0.0,2014-07-09,False,right
33,347.9421,1,437,2761,2975,4263,502,-10.0,200,0,1,350.024,0,1,colocated,09_04_2014 level23_spatial_Mini 13_52 log.txt,37,37,1216,67.0,0.0,2014-04-09,False,right
8,57.3934,1,437,2761,2975,4263,504,-10.0,200,0,0,59.7567,1,1,colocated,09_04_2014 level23_spatial_Mini 09_15 log.txt,37,37,1216,67.0,0.0,2014-04-09,False,right
60,620.1088,1,936,1551,2975,4263,501,-10.0,200,1,1,622.37,1,1,colocated,20_12_2013 level23_spatial_Mini 09_02 log.txt,37,37,1216,67.0,0.0,2013-12-20,False,right
23,293.1778,1,936,1551,2975,4263,506,-10.0,200,1,1,293.872,1,1,colocated,09_04_2014 level23_spatial_Mini 13_52 log.txt,37,37,1216,67.0,0.0,2014-04-09,False,right
35,235.2338,0,936,1551,2975,4263,502,-10.0,200,1,0,236.2827,0,1,colocated,09_04_2014 level23_spatial_Mini 09_15 log.txt,37,37,1216,67.0,0.0,2014-04-09,False,right
116,998.6426,0,936,1551,2975,4263,726,-10.0,200,1,0,999.0901,0,1,colocated,15_12_2014 level23_spatial_Mini 08_39 log.txt,37,37,1216,67.0,0.0,2014-12-15,False,right
42,504.4307,0,936,1551,2975,4263,751,-10.0,200,1,1,505.2743,1,1,colocated,28_11_2014 level23_spatial_Mini 09_17 log.txt,37,37,1216,67.0,0.0,2014-11-28,False,right
28,248.5943,1,936,1551,2975,4263,511,-10.0,200,1,1,250.9785,1,1,colocated,13_03_2014 level23_spatial_Mini 08_35 log.txt,37,37,1216,67.0,0.0,2014-03-13,False,right
44,1360.5688,0,936,1551,2975,4263,506,-10.0,200,1,-1,-1.0,0,1,colocated,24_04_2014 level23_spatial_Mini 14_13 log.txt,37,37,1216,67.0,0.0,2014-04-24,False,right
10,55.7772,1,936,1551,2975,4263,726,-10.0,200,1,0,56.2165,0,1,colocated,28_11_2014 level23_spatial_Mini 15_07 log.txt,37,37,1216,67.0,0.0,2014-11-28,False,right
145,1100.2361,1,936,1551,2975,4263,505,-10.0,200,1,1,1102.8918,1,1,colocated,17_11_2014 level23_spatial_Mini 10_07 log.txt,37,37,1216,67.0,0.0,2014-11-17,False,right
97,544.418,1,936,1551,2975,4263,501,-10.0,200,1,0,546.3433,0,1,colocated,31_10_2014 level23_spatial_Mini 08_56 log.txt,37,37,1216,67.0,0.0,2014-10-31,False,right
1,432.7522,0,936,1551,2975,4263,501,-10.0,200,1,1,434.6903,1,1,colocated,23_04_2014 level23_spatial_Mini 11_32 log.txt,37,37,1216,67.0,0.0,2014-04-23,False,right
84,472.0751,1,936,1551,2975,4263,510,-10.0,200,1,1,474.2404,1,1,colocated,31_10_2014 level23_spatial_Mini 08_56 log.txt,37,37,1216,67.0,0.0,2014-10-31,False,right
60,620.1088,1,936,1551,2975,4263,501,-10.0,200,1,1,622.37,1,1,colocated,20_12_2013 level23_spatial_Mini 09_02 log.txt,37,37,1216,67.0,0.0,2013-12-20,False,right
35,235.2338,0,936,1551,2975,4263,502,-10.0,200,1,0,236.2827,0,1,colocated,09_04_2014 level23_spatial_Mini 09_15 log.txt,37,37,1216,67.0,0.0,2014-04-09,False,right
123,930.7165,0,936,1551,2975,4263,676,-10.0,200,1,1,932.3114,1,1,colocated,26_11_2014 level23_spatial_Mini 09_38 log.txt,37,37,1216,67.0,0.0,2014-11-26,False,right
31,612.301,0,936,1551,2975,4263,626,-10.0,200,1,0,613.7352,0,1,colocated,04_12_2014 level23_spatial_Mini 16_20 log.txt,37,37,1216,67.0,0.0,2014-12-04,False,right
136,1263.3403,0,936,1551,2975,4263,510,-10.0,200,1,0,1263.9443,0,1,colocated,23_04_2014 level23_spatial_Mini 11_32 log.txt,37,37,1216,67.0,0.0,2014-04-23,False,right
84,472.0751,1,936,1551,2975,4263,510,-10.0,200,1,1,474.2404,1,1,colocated,31_10_2014 level23_spatial_Mini 08_56 log.txt,37,37,1216,67.0,0.0,2014-10-31,False,right
81,450.2914,1,936,1551,2975,4263,507,-10.0,200,1,0,452.1306,0,1,colocated,17_11_2014 level23_spatial_Mini 15_46 log.txt,37,37,1216,67.0,0.0,2014-11-17,False,right
63,557.1827,1,936,1551,2975,4263,726,-10.0,200,1,0,557.6213,0,1,colocated,02_12_2014 level23_spatial_Mini 14_57 log.txt,37,37,1216,67.0,0.0,2014-12-02,False,right
51,319.2652,0,936,1551,2975,4263,508,-10.0,200,1,1,320.0282,1,1,colocated,23_04_2014 level23_spatial_Mini 15_38 log.txt,37,37,1216,67.0,0.0,2014-04-23,False,right
7,76.2895,1,936,1551,2975,4263,626,-10.0,200,1,0,76.5836,0,1,colocated,05_12_2014 level23_spatial_Mini 09_42 log.txt,37,37,1216,67.0,0.0,2014-12-05,False,right
40,220.6906,0,936,1551,2975,4263,507,-10.0,200,1,1,222.0149,1,1,colocated,30_10_2014 level23_spatial_Mini 08_01 log.txt,37,37,1216,67.0,0.0,2014-10-30,False,right
24,912.9937,0,936,1551,2975,4263,504,-10.0,200,1,1,913.898,1,1,colocated,25_04_2014 level23_spatial_Mini 10_51 log.txt,37,37,1216,67.0,0.0,2014-04-25,False,right
37,214.1027,1,936,1551,2975,4263,507,-10.0,200,1,0,217.8965,0,1,colocated,11_03_2014 level23_spatial_Mini 17_07 log.txt,37,37,1216,67.0,0.0,2014-03-11,False,right
35,235.2338,0,936,1551,2975,4263,502,-10.0,200,1,0,236.2827,0,1,colocated,09_04_2014 level23_spatial_Mini 09_15 log.txt,37,37,1216,67.0,0.0,2014-04-09,False,right
104,681.8234,0,936,1551,2975,4263,503,-10.0,200,1,1,682.6415,1,1,colocated,04_02_2014 level23_spatial_Mini 10_44 log.txt,37,37,1216,67.0,0.0,2014-02-04,False,right
83,1404.0988,1,936,1551,2975,4263,501,-10.0,200,1,1,1405.5342,1,1,colocated,25_04_2014 level23_spatial_Mini 10_51 log.txt,37,37,1216,67.0,0.0,2014-04-25,False,right
1,432.7522,0,936,1551,2975,4263,501,-10.0,200,1,1,434.6903,1,1,colocated,23_04_2014 level23_spatial_Mini 11_32 log.txt,37,37,1216,67.0,0.0,2014-04-23,False,right
95,816.1561,0,437,2761,2975,4263,626,-11.0,200,0,1,817.9132,0,0,colocated,15_12_2014 level23_spatial_Mini 08_39 log.txt,37,37,1216,68.0,1.0,2014-12-15,False,left
77,850.8412,0,437,2761,2975,4263,526,-11.0,200,0,0,851.7132,1,0,colocated,21_11_2014 level23_spatial_Mini 14_01 log.txt,37,37,1216,68.0,1.0,2014-11-21,False,left
83,704.3096,0,437,2761,2975,4263,626,-11.0,200,0,1,705.1534,0,0,colocated,26_11_2014 level23_spatial_Mini 09_38 log.txt,37,37,1216,68.0,1.0,2014-11-26,False,left
44,367.9044,0,437,2761,2975,4263,626,-11.0,200,0,0,368.22,1,0,colocated,05_12_2014 level23_spatial_Mini 09_42 log.txt,37,37,1216,68.0,1.0,2014-12-05,False,left
95,816.1561,0,437,2761,2975,4263,626,-11.0,200,0,1,817.9132,0,0,colocated,15_12_2014 level23_spatial_Mini 08_39 log.txt,37,37,1216,68.0,1.0,2014-12-15,False,left
76,886.3516,0,437,2761,2975,4263,676,-11.0,200,0,0,886.8776,1,0,colocated,04_12_2014 level23_spatial_Mini 16_20 log.txt,37,37,1216,68.0,1.0,2014-12-04,False,left
44,367.9044,0,437,2761,2975,4263,626,-11.0,200,0,0,368.22,1,0,colocated,05_12_2014 level23_spatial_Mini 09_42 log.txt,37,37,1216,68.0,1.0,2014-12-05,False,left
46,527.6878,0,437,2761,2975,4263,501,-11.0,200,0,0,528.3327,1,0,colocated,28_11_2014 level23_spatial_Mini 09_17 log.txt,37,37,1216,68.0,1.0,2014-11-28,False,left
31,291.444,0,437,2761,2975,4263,676,-11.0,200,0,0,292.6366,1,0,colocated,27_11_2014 level23_spatial_Mini 15_16 log.txt,37,37,1216,68.0,1.0,2014-11-27,False,left
76,886.3516,0,437,2761,2975,4263,676,-11.0,200,0,0,886.8776,1,0,colocated,04_12_2014 level23_spatial_Mini 16_20 log.txt,37,37,1216,68.0,1.0,2014-12-04,False,left
68,600.6496,0,437,2761,2975,4263,751,-11.0,200,0,0,601.1834,1,0,colocated,26_11_2014 level23_spatial_Mini 09_38 log.txt,37,37,1216,68.0,1.0,2014-11-26,False,left
95,816.1561,0,437,2761,2975,4263,626,-11.0,200,0,1,817.9132,0,0,colocated,15_12_2014 level23_spatial_Mini 08_39 log.txt,37,37,1216,68.0,1.0,2014-12-15,False,left
83,704.3096,0,437,2761,2975,4263,626,-11.0,200,0,1,705.1534,0,0,colocated,26_11_2014 level23_spatial_Mini 09_38 log.txt,37,37,1216,68.0,1.0,2014-11-26,False,left
44,367.9044,0,437,2761,2975,4263,626,-11.0,200,0,0,368.22,1,0,colocated,05_12_2014 level23_spatial_Mini 09_42 log.txt,37,37,1216,68.0,1.0,2014-12-05,False,left
60,1320.8407,0,437,2761,2975,4263,516,-11.0,200,0,0,1321.5044,1,0,colocated,26_11_2014 level23_spatial_Mini 15_54 log.txt,37,37,1216,68.0,1.0,2014-11-26,False,left
139,1358.2571,0,437,2761,2975,4263,526,-11.0,200,0,0,1358.7393,1,0,colocated,21_11_2014 level23_spatial_Mini 14_01 log.txt,37,37,1216,68.0,1.0,2014-11-21,False,left
76,886.3516,0,437,2761,2975,4263,676,-11.0,200,0,0,886.8776,1,0,colocated,04_12_2014 level23_spatial_Mini 16_20 log.txt,37,37,1216,68.0,1.0,2014-12-04,False,left
12,132.5208,0,437,2761,2975,4263,576,-11.0,200,0,0,133.0015,1,0,colocated,03_12_2014 level23_spatial_Mini 15_56 log.txt,37,37,1216,68.0,1.0,2014-12-03,False,left
6,291.2312,0,437,2761,2975,4263,526,-11.0,200,0,0,293.0822,1,0,colocated,21_11_2014 level23_spatial_Mini 08_48 log.txt,37,37,1216,68.0,1.0,2014-11-21,False,left
100,737.8887,0,437,2761,2975,4263,601,-11.0,200,0,1,739.1293,0,0,colocated,15_12_2014 level23_spatial_Mini 14_12 log.txt,37,37,1216,68.0,1.0,2014-12-15,False,left
68,600.6496,0,437,2761,2975,4263,751,-11.0,200,0,0,601.1834,1,0,colocated,26_11_2014 level23_spatial_Mini 09_38 log.txt,37,37,1216,68.0,1.0,2014-11-26,False,left
100,737.8887,0,437,2761,2975,4263,601,-11.0,200,0,1,739.1293,0,0,colocated,15_12_2014 level23_spatial_Mini 14_12 log.txt,37,37,1216,68.0,1.0,2014-12-15,False,left
76,886.3516,0,437,2761,2975,4263,676,-11.0,200,0,0,886.8776,1,0,colocated,04_12_2014 level23_spatial_Mini 16_20 log.txt,37,37,1216,68.0,1.0,2014-12-04,False,left
31,291.444,0,437,2761,2975,4263,676,-11.0,200,0,0,292.6366,1,0,colocated,27_11_2014 level23_spatial_Mini 15_16 log.txt,37,37,1216,68.0,1.0,2014-11-27,False,left
46,527.6878,0,437,2761,2975,4263,501,-11.0,200,0,0,528.3327,1,0,colocated,28_11_2014 level23_spatial_Mini 09_17 log.txt,37,37,1216,68.0,1.0,2014-11-28,False,left
31,291.444,0,437,2761,2975,4263,676,-11.0,200,0,0,292.6366,1,0,colocated,27_11_2014 level23_spatial_Mini 15_16 log.txt,37,37,1216,68.0,1.0,2014-11-27,False,left
60,1320.8407,0,437,2761,2975,4263,516,-11.0,200,0,0,1321.5044,1,0,colocated,26_11_2014 level23_spatial_Mini 15_54 log.txt,37,37,1216,68.0,1.0,2014-11-26,False,left
83,704.3096,0,437,2761,2975,4263,626,-11.0,200,0,1,705.1534,0,0,colocated,26_11_2014 level23_spatial_Mini 09_38 log.txt,37,37,1216,68.0,1.0,2014-11-26,False,left
89,699.9782,0,437,2761,2975,4263,601,-11.0,200,0,0,700.3464,1,0,colocated,05_12_2014 level23_spatial_Mini 09_42 log.txt,37,37,1216,68.0,1.0,2014-12-05,False,left
10,95.9005,0,936,1551,2975,4263,751,-11.0,200,1,1,96.4656,1,0,colocated,21_11_2014 level23_spatial_Mini 14_01 log.txt,37,37,1216,68.0,1.0,2014-11-21,False,left
10,95.9005,0,936,1551,2975,4263,751,-11.0,200,1,1,96.4656,1,0,colocated,21_11_2014 level23_spatial_Mini 14_01 log.txt,37,37,1216,68.0,1.0,2014-11-21,False,left
10,302.9384,0,936,1551,2975,4263,526,-11.0,200,1,1,303.8213,1,0,colocated,28_11_2014 level23_spatial_Mini 09_17 log.txt,37,37,1216,68.0,1.0,2014-11-28,False,left
43,612.2043,0,936,1551,2975,4263,601,-11.0,200,1,1,613.0274,1,0,colocated,21_11_2014 level23_spatial_Mini 08_48 log.txt,37,37,1216,68.0,1.0,2014-11-21,False,left
112,866.442,0,936,1551,2975,4263,576,-11.0,200,1,1,867.3722,1,0,colocated,26_11_2014 level23_spatial_Mini 09_38 log.txt,37,37,1216,68.0,1.0,2014-11-26,False,left
52,1260.1796,0,936,1551,2975,4263,621,-11.0,200,1,0,1261.9112,0,0,colocated,26_11_2014 level23_spatial_Mini 15_54 log.txt,37,37,1216,68.0,1.0,2014-11-26,False,left
43,439.9115,0,936,1551,2975,4263,576,-11.0,200,1,0,440.5903,0,0,colocated,26_11_2014 level23_spatial_Mini 09_38 log.txt,37,37,1216,68.0,1.0,2014-11-26,False,left
10,95.9005,0,936,1551,2975,4263,751,-11.0,200,1,1,96.4656,1,0,colocated,21_11_2014 level23_spatial_Mini 14_01 log.txt,37,37,1216,68.0,1.0,2014-11-21,False,left
10,95.9005,0,936,1551,2975,4263,751,-11.0,200,1,1,96.4656,1,0,colocated,21_11_2014 level23_spatial_Mini 14_01 log.txt,37,37,1216,68.0,1.0,2014-11-21,False,left
13,163.3662,0,936,1551,2975,4263,501,-11.0,200,1,0,163.9968,0,0,colocated,15_12_2014 level23_spatial_Mini 08_39 log.txt,37,37,1216,68.0,1.0,2014-12-15,False,left
10,95.9005,0,936,1551,2975,4263,751,-11.0,200,1,1,96.4656,1,0,colocated,21_11_2014 level23_spatial_Mini 14_01 log.txt,37,37,1216,68.0,1.0,2014-11-21,False,left
13,163.3662,0,936,1551,2975,4263,501,-11.0,200,1,0,163.9968,0,0,colocated,15_12_2014 level23_spatial_Mini 08_39 log.txt,37,37,1216,68.0,1.0,2014-12-15,False,left
20,529.6461,0,936,1551,2975,4263,651,-11.0,200,1,1,530.2466,1,0,colocated,04_12_2014 level23_spatial_Mini 16_20 log.txt,37,37,1216,68.0,1.0,2014-12-04,False,left
109,1138.6134,0,936,1551,2975,4263,526,-11.0,200,1,0,1139.4844,0,0,colocated,21_11_2014 level23_spatial_Mini 08_48 log.txt,37,37,1216,68.0,1.0,2014-11-21,False,left
20,529.6461,0,936,1551,2975,4263,651,-11.0,200,1,1,530.2466,1,0,colocated,04_12_2014 level23_spatial_Mini 16_20 log.txt,37,37,1216,68.0,1.0,2014-12-04,False,left
109,1138.6134,0,936,1551,2975,4263,526,-11.0,200,1,0,1139.4844,0,0,colocated,21_11_2014 level23_spatial_Mini 08_48 log.txt,37,37,1216,68.0,1.0,2014-11-21,False,left
65,568.822,0,936,1551,2975,4263,751,-11.0,200,1,1,569.677,1,0,colocated,02_12_2014 level23_spatial_Mini 14_57 log.txt,37,37,1216,68.0,1.0,2014-12-02,False,left
108,800.4238,0,936,1551,2975,4263,526,-11.0,200,1,1,802.0027,1,0,colocated,05_12_2014 level23_spatial_Mini 09_42 log.txt,37,37,1216,68.0,1.0,2014-12-05,False,left
24,210.9363,0,936,1551,2975,4263,676,-11.0,200,1,0,211.3654,0,0,colocated,05_12_2014 level23_spatial_Mini 09_42 log.txt,37,37,1216,68.0,1.0,2014-12-05,False,left
52,1260.1796,0,936,1551,2975,4263,621,-11.0,200,1,0,1261.9112,0,0,colocated,26_11_2014 level23_spatial_Mini 15_54 log.txt,37,37,1216,68.0,1.0,2014-11-26,False,left
40,349.0071,0,936,1551,2975,4263,651,-11.0,200,1,0,349.7697,0,0,colocated,03_12_2014 level23_spatial_Mini 15_56 log.txt,37,37,1216,68.0,1.0,2014-12-03,False,left
10,95.9005,0,936,1551,2975,4263,751,-11.0,200,1,1,96.4656,1,0,colocated,21_11_2014 level23_spatial_Mini 14_01 log.txt,37,37,1216,68.0,1.0,2014-11-21,False,left
24,210.9363,0,936,1551,2975,4263,676,-11.0,200,1,0,211.3654,0,0,colocated,05_12_2014 level23_spatial_Mini 09_42 log.txt,37,37,1216,68.0,1.0,2014-12-05,False,left
43,439.9115,0,936,1551,2975,4263,576,-11.0,200,1,0,440.5903,0,0,colocated,26_11_2014 level23_spatial_Mini 09_38 log.txt,37,37,1216,68.0,1.0,2014-11-26,False,left
43,439.9115,0,936,1551,2975,4263,576,-11.0,200,1,0,440.5903,0,0,colocated,26_11_2014 level23_spatial_Mini 09_38 log.txt,37,37,1216,68.0,1.0,2014-11-26,False,left
114,971.6852,0,936,1551,2975,4263,576,-11.0,200,1,1,972.1917,1,0,colocated,15_12_2014 level23_spatial_Mini 08_39 log.txt,37,37,1216,68.0,1.0,2014-12-15,False,left
10,95.9005,0,936,1551,2975,4263,751,-11.0,200,1,1,96.4656,1,0,colocated,21_11_2014 level23_spatial_Mini 14_01 log.txt,37,37,1216,68.0,1.0,2014-11-21,False,left
43,612.2043,0,936,1551,2975,4263,601,-11.0,200,1,1,613.0274,1,0,colocated,21_11_2014 level23_spatial_Mini 08_48 log.txt,37,37,1216,68.0,1.0,2014-11-21,False,left
43,439.9115,0,936,1551,2975,4263,576,-11.0,200,1,0,440.5903,0,0,colocated,26_11_2014 level23_spatial_Mini 09_38 log.txt,37,37,1216,68.0,1.0,2014-11-26,False,left
80,681.5845,0,437,2761,2975,4263,551,-11.0,200,0,1,682.506,0,1,colocated,26_11_2014 level23_spatial_Mini 09_38 log.txt,37,37,1216,68.0,1.0,2014-11-26,False,right
91,794.4902,0,437,2761,2975,4263,551,-11.0,200,0,0,795.2823,1,1,colocated,15_12_2014 level23_spatial_Mini 08_39 log.txt,37,37,1216,68.0,1.0,2014-12-15,False,right
80,681.5845,0,437,2761,2975,4263,551,-11.0,200,0,1,682.506,0,1,colocated,26_11_2014 level23_spatial_Mini 09_38 log.txt,37,37,1216,68.0,1.0,2014-11-26,False,right
30,242.479,0,437,2761,2975,4263,676,-11.0,200,0,0,243.2793,1,1,colocated,02_12_2014 level23_spatial_Mini 14_57 log.txt,37,37,1216,68.0,1.0,2014-12-02,False,right
86,745.5186,0,437,2761,2975,4263,501,-11.0,200,0,0,746.1463,1,1,colocated,28_11_2014 level23_spatial_Mini 09_17 log.txt,37,37,1216,68.0,1.0,2014-11-28,False,right
69,497.6359,0,437,2761,2975,4263,626,-11.0,200,0,1,498.9415,0,1,colocated,27_11_2014 level23_spatial_Mini 09_32 log.txt,37,37,1216,68.0,1.0,2014-11-27,False,right
94,1027.5058,0,437,2761,2975,4263,651,-11.0,200,0,0,1028.0175,1,1,colocated,21_11_2014 level23_spatial_Mini 08_48 log.txt,37,37,1216,68.0,1.0,2014-11-21,False,right
69,497.6359,0,437,2761,2975,4263,626,-11.0,200,0,1,498.9415,0,1,colocated,27_11_2014 level23_spatial_Mini 09_32 log.txt,37,37,1216,68.0,1.0,2014-11-27,False,right
39,384.6352,0,437,2761,2975,4263,501,-11.0,200,0,1,385.1189,0,1,colocated,21_11_2014 level23_spatial_Mini 14_01 log.txt,37,37,1216,68.0,1.0,2014-11-21,False,right
91,794.4902,0,437,2761,2975,4263,551,-11.0,200,0,0,795.2823,1,1,colocated,15_12_2014 level23_spatial_Mini 08_39 log.txt,37,37,1216,68.0,1.0,2014-12-15,False,right
2,17.3723,0,437,2761,2975,4263,526,-11.0,200,0,0,17.89,1,1,colocated,15_12_2014 level23_spatial_Mini 14_12 log.txt,37,37,1216,68.0,1.0,2014-12-15,False,right
51,426.7826,0,437,2761,2975,4263,501,-11.0,200,0,0,427.4987,1,1,colocated,03_12_2014 level23_spatial_Mini 15_56 log.txt,37,37,1216,68.0,1.0,2014-12-03,False,right
30,242.479,0,437,2761,2975,4263,676,-11.0,200,0,0,243.2793,1,1,colocated,02_12_2014 level23_spatial_Mini 14_57 log.txt,37,37,1216,68.0,1.0,2014-12-02,False,right
39,384.6352,0,437,2761,2975,4263,501,-11.0,200,0,1,385.1189,0,1,colocated,21_11_2014 level23_spatial_Mini 14_01 log.txt,37,37,1216,68.0,1.0,2014-11-21,False,right
81,643.2185,0,437,2761,2975,4263,551,-11.0,200,0,0,643.9803,1,1,colocated,05_12_2014 level23_spatial_Mini 09_42 log.txt,37,37,1216,68.0,1.0,2014-12-05,False,right
69,497.6359,0,437,2761,2975,4263,626,-11.0,200,0,1,498.9415,0,1,colocated,27_11_2014 level23_spatial_Mini 09_32 log.txt,37,37,1216,68.0,1.0,2014-11-27,False,right
110,1101.1911,0,437,2761,2975,4263,701,-11.0,200,0,0,1102.0241,1,1,colocated,04_12_2014 level23_spatial_Mini 16_20 log.txt,37,37,1216,68.0,1.0,2014-12-04,False,right
30,442.811,0,437,2761,2975,4263,601,-11.0,200,0,0,443.7982,1,1,colocated,28_11_2014 level23_spatial_Mini 09_17 log.txt,37,37,1216,68.0,1.0,2014-11-28,False,right
59,547.7788,0,437,2761,2975,4263,576,-11.0,200,0,0,548.2263,1,1,colocated,26_11_2014 level23_spatial_Mini 09_38 log.txt,37,37,1216,68.0,1.0,2014-11-26,False,right
80,681.5845,0,437,2761,2975,4263,551,-11.0,200,0,1,682.506,0,1,colocated,26_11_2014 level23_spatial_Mini 09_38 log.txt,37,37,1216,68.0,1.0,2014-11-26,False,right
39,384.6352,0,437,2761,2975,4263,501,-11.0,200,0,1,385.1189,0,1,colocated,21_11_2014 level23_spatial_Mini 14_01 log.txt,37,37,1216,68.0,1.0,2014-11-21,False,right
91,794.4902,0,437,2761,2975,4263,551,-11.0,200,0,0,795.2823,1,1,colocated,15_12_2014 level23_spatial_Mini 08_39 log.txt,37,37,1216,68.0,1.0,2014-12-15,False,right
59,547.7788,0,437,2761,2975,4263,576,-11.0,200,0,0,548.2263,1,1,colocated,26_11_2014 level23_spatial_Mini 09_38 log.txt,37,37,1216,68.0,1.0,2014-11-26,False,right
51,426.7826,0,437,2761,2975,4263,501,-11.0,200,0,0,427.4987,1,1,colocated,03_12_2014 level23_spatial_Mini 15_56 log.txt,37,37,1216,68.0,1.0,2014-12-03,False,right
69,497.6359,0,437,2761,2975,4263,626,-11.0,200,0,1,498.9415,0,1,colocated,27_11_2014 level23_spatial_Mini 09_32 log.txt,37,37,1216,68.0,1.0,2014-11-27,False,right
51,426.7826,0,437,2761,2975,4263,501,-11.0,200,0,0,427.4987,1,1,colocated,03_12_2014 level23_spatial_Mini 15_56 log.txt,37,37,1216,68.0,1.0,2014-12-03,False,right
91,794.4902,0,437,2761,2975,4263,551,-11.0,200,0,0,795.2823,1,1,colocated,15_12_2014 level23_spatial_Mini 08_39 log.txt,37,37,1216,68.0,1.0,2014-12-15,False,right
51,426.7826,0,437,2761,2975,4263,501,-11.0,200,0,0,427.4987,1,1,colocated,03_12_2014 level23_spatial_Mini 15_56 log.txt,37,37,1216,68.0,1.0,2014-12-03,False,right
2,17.3723,0,437,2761,2975,4263,526,-11.0,200,0,0,17.89,1,1,colocated,15_12_2014 level23_spatial_Mini 14_12 log.txt,37,37,1216,68.0,1.0,2014-12-15,False,right
39,575.7663,0,936,1551,2975,4263,501,-11.0,200,1,0,576.1271,0,1,colocated,21_11_2014 level23_spatial_Mini 08_48 log.txt,37,37,1216,68.0,1.0,2014-11-21,False,right
76,615.0985,0,936,1551,2975,4263,676,-11.0,200,1,1,615.5242,1,1,colocated,15_12_2014 level23_spatial_Mini 14_12 log.txt,37,37,1216,68.0,1.0,2014-12-15,False,right
39,575.7663,0,936,1551,2975,4263,501,-11.0,200,1,0,576.1271,0,1,colocated,21_11_2014 level23_spatial_Mini 08_48 log.txt,37,37,1216,68.0,1.0,2014-11-21,False,right
61,607.2097,0,936,1551,2975,4263,676,-11.0,200,1,1,607.6762,1,1,colocated,28_11_2014 level23_spatial_Mini 09_17 log.txt,37,37,1216,68.0,1.0,2014-11-28,False,right
61,607.2097,0,936,1551,2975,4263,676,-11.0,200,1,1,607.6762,1,1,colocated,28_11_2014 level23_spatial_Mini 09_17 log.txt,37,37,1216,68.0,1.0,2014-11-28,False,right
19,152.4096,0,936,1551,2975,4263,751,-11.0,200,1,0,152.9842,0,1,colocated,02_12_2014 level23_spatial_Mini 14_57 log.txt,37,37,1216,68.0,1.0,2014-12-02,False,right
22,217.7837,0,936,1551,2975,4263,726,-11.0,200,1,1,218.5482,1,1,colocated,27_11_2014 level23_spatial_Mini 15_16 log.txt,37,37,1216,68.0,1.0,2014-11-27,False,right
61,607.2097,0,936,1551,2975,4263,676,-11.0,200,1,1,607.6762,1,1,colocated,28_11_2014 level23_spatial_Mini 09_17 log.txt,37,37,1216,68.0,1.0,2014-11-28,False,right
76,615.0985,0,936,1551,2975,4263,676,-11.0,200,1,1,615.5242,1,1,colocated,15_12_2014 level23_spatial_Mini 14_12 log.txt,37,37,1216,68.0,1.0,2014-12-15,False,right
97,994.2562,0,936,1551,2975,4263,526,-11.0,200,1,0,994.6734,0,1,colocated,21_11_2014 level23_spatial_Mini 14_01 log.txt,37,37,1216,68.0,1.0,2014-11-21,False,right
73,673.3471,0,936,1551,2975,4263,501,-11.0,200,1,1,674.0808,1,1,colocated,15_12_2014 level23_spatial_Mini 08_39 log.txt,37,37,1216,68.0,1.0,2014-12-15,False,right
19,152.4096,0,936,1551,2975,4263,751,-11.0,200,1,0,152.9842,0,1,colocated,02_12_2014 level23_spatial_Mini 14_57 log.txt,37,37,1216,68.0,1.0,2014-12-02,False,right
19,152.4096,0,936,1551,2975,4263,751,-11.0,200,1,0,152.9842,0,1,colocated,02_12_2014 level23_spatial_Mini 14_57 log.txt,37,37,1216,68.0,1.0,2014-12-02,False,right
61,607.2097,0,936,1551,2975,4263,676,-11.0,200,1,1,607.6762,1,1,colocated,28_11_2014 level23_spatial_Mini 09_17 log.txt,37,37,1216,68.0,1.0,2014-11-28,False,right
76,615.0985,0,936,1551,2975,4263,676,-11.0,200,1,1,615.5242,1,1,colocated,15_12_2014 level23_spatial_Mini 14_12 log.txt,37,37,1216,68.0,1.0,2014-12-15,False,right
36,348.7016,0,936,1551,2975,4263,626,-11.0,200,1,1,349.224,1,1,colocated,15_12_2014 level23_spatial_Mini 14_12 log.txt,37,37,1216,68.0,1.0,2014-12-15,False,right
2,20.3939,0,936,1551,2975,4263,626,-11.0,200,1,0,20.7317,0,1,colocated,27_11_2014 level23_spatial_Mini 09_32 log.txt,37,37,1216,68.0,1.0,2014-11-27,False,right
97,994.2562,0,936,1551,2975,4263,526,-11.0,200,1,0,994.6734,0,1,colocated,21_11_2014 level23_spatial_Mini 14_01 log.txt,37,37,1216,68.0,1.0,2014-11-21,False,right
13,204.5056,0,936,1551,2975,4263,726,-11.0,200,1,0,204.9989,0,1,colocated,26_11_2014 level23_spatial_Mini 09_38 log.txt,37,37,1216,68.0,1.0,2014-11-26,False,right
76,615.0985,0,936,1551,2975,4263,676,-11.0,200,1,1,615.5242,1,1,colocated,15_12_2014 level23_spatial_Mini 14_12 log.txt,37,37,1216,68.0,1.0,2014-12-15,False,right
22,217.7837,0,936,1551,2975,4263,726,-11.0,200,1,1,218.5482,1,1,colocated,27_11_2014 level23_spatial_Mini 15_16 log.txt,37,37,1216,68.0,1.0,2014-11-27,False,right
117,1191.3668,0,936,1551,2975,4263,751,-11.0,200,1,1,1191.7657,1,1,colocated,21_11_2014 level23_spatial_Mini 08_48 log.txt,37,37,1216,68.0,1.0,2014-11-21,False,right
69,551.7496,0,936,1551,2975,4263,501,-11.0,200,1,0,551.7514,0,1,colocated,05_12_2014 level23_spatial_Mini 09_42 log.txt,37,37,1216,68.0,1.0,2014-12-05,False,right
19,152.4096,0,936,1551,2975,4263,751,-11.0,200,1,0,152.9842,0,1,colocated,02_12_2014 level23_spatial_Mini 14_57 log.txt,37,37,1216,68.0,1.0,2014-12-02,False,right
69,551.7496,0,936,1551,2975,4263,501,-11.0,200,1,0,551.7514,0,1,colocated,05_12_2014 level23_spatial_Mini 09_42 log.txt,37,37,1216,68.0,1.0,2014-12-05,False,right
19,152.4096,0,936,1551,2975,4263,751,-11.0,200,1,0,152.9842,0,1,colocated,02_12_2014 level23_spatial_Mini 14_57 log.txt,37,37,1216,68.0,1.0,2014-12-02,False,right
22,217.7837,0,936,1551,2975,4263,726,-11.0,200,1,1,218.5482,1,1,colocated,27_11_2014 level23_spatial_Mini 15_16 log.txt,37,37,1216,68.0,1.0,2014-11-27,False,right
24,250.3884,0,936,1551,2975,4263,751,-11.0,200,1,0,250.6767,0,1,colocated,21_11_2014 level23_spatial_Mini 14_01 log.txt,37,37,1216,68.0,1.0,2014-11-21,False,right
25,219.1246,0,936,1551,2975,4263,651,-11.0,200,1,0,219.3926,0,1,colocated,03_12_2014 level23_spatial_Mini 15_56 log.txt,37,37,1216,68.0,1.0,2014-12-03,False,right
146,1413.9025,0,437,2761,2975,4263,676,-12.0,200,0,0,1414.5136,1,0,colocated,21_11_2014 level23_spatial_Mini 14_01 log.txt,37,37,1216,69.0,2.0,2014-11-21,False,left
146,1413.9025,0,437,2761,2975,4263,676,-12.0,200,0,0,1414.5136,1,0,colocated,21_11_2014 level23_spatial_Mini 14_01 log.txt,37,37,1216,69.0,2.0,2014-11-21,False,left
46,399.4518,0,437,2761,2975,4263,726,-12.0,200,0,0,399.7899,1,0,colocated,03_12_2014 level23_spatial_Mini 15_56 log.txt,37,37,1216,69.0,2.0,2014-12-03,False,left
63,1337.2524,1,437,2761,2975,4263,516,-12.0,200,0,0,1338.8784,1,0,colocated,26_11_2014 level23_spatial_Mini 15_54 log.txt,37,37,1216,69.0,2.0,2014-11-26,False,left
52,379.5887,0,437,2761,2975,4263,701,-12.0,200,0,0,379.957,1,0,colocated,27_11_2014 level23_spatial_Mini 09_32 log.txt,37,37,1216,69.0,2.0,2014-11-27,False,left
138,1349.0475,0,437,2761,2975,4263,701,-12.0,200,0,0,1349.5333,1,0,colocated,21_11_2014 level23_spatial_Mini 08_48 log.txt,37,37,1216,69.0,2.0,2014-11-21,False,left
46,378.25,1,437,2761,2975,4263,551,-12.0,200,0,0,378.8157,1,0,colocated,05_12_2014 level23_spatial_Mini 09_42 log.txt,37,37,1216,69.0,2.0,2014-12-05,False,left
46,399.4518,0,437,2761,2975,4263,726,-12.0,200,0,0,399.7899,1,0,colocated,03_12_2014 level23_spatial_Mini 15_56 log.txt,37,37,1216,69.0,2.0,2014-12-03,False,left
146,1413.9025,0,437,2761,2975,4263,676,-12.0,200,0,0,1414.5136,1,0,colocated,21_11_2014 level23_spatial_Mini 14_01 log.txt,37,37,1216,69.0,2.0,2014-11-21,False,left
46,378.25,1,437,2761,2975,4263,551,-12.0,200,0,0,378.8157,1,0,colocated,05_12_2014 level23_spatial_Mini 09_42 log.txt,37,37,1216,69.0,2.0,2014-12-05,False,left
52,379.5887,0,437,2761,2975,4263,701,-12.0,200,0,0,379.957,1,0,colocated,27_11_2014 level23_spatial_Mini 09_32 log.txt,37,37,1216,69.0,2.0,2014-11-27,False,left
93,783.5199,0,437,2761,2975,4263,726,-12.0,200,0,1,784.5473,0,0,colocated,28_11_2014 level23_spatial_Mini 09_17 log.txt,37,37,1216,69.0,2.0,2014-11-28,False,left
42,307.6287,0,437,2761,2975,4263,601,-12.0,200,0,0,307.641,1,0,colocated,02_12_2014 level23_spatial_Mini 14_57 log.txt,37,37,1216,69.0,2.0,2014-12-02,False,left
56,721.5861,0,437,2761,2975,4263,651,-12.0,200,0,0,722.1024,1,0,colocated,21_11_2014 level23_spatial_Mini 08_48 log.txt,37,37,1216,69.0,2.0,2014-11-21,False,left
52,379.5887,0,437,2761,2975,4263,701,-12.0,200,0,0,379.957,1,0,colocated,27_11_2014 level23_spatial_Mini 09_32 log.txt,37,37,1216,69.0,2.0,2014-11-27,False,left
46,378.25,1,437,2761,2975,4263,551,-12.0,200,0,0,378.8157,1,0,colocated,05_12_2014 level23_spatial_Mini 09_42 log.txt,37,37,1216,69.0,2.0,2014-12-05,False,left
138,1349.0475,0,437,2761,2975,4263,701,-12.0,200,0,0,1349.5333,1,0,colocated,21_11_2014 level23_spatial_Mini 08_48 log.txt,37,37,1216,69.0,2.0,2014-11-21,False,left
138,1349.0475,0,437,2761,2975,4263,701,-12.0,200,0,0,1349.5333,1,0,colocated,21_11_2014 level23_spatial_Mini 08_48 log.txt,37,37,1216,69.0,2.0,2014-11-21,False,left
21,375.2312,0,437,2761,2975,4263,601,-12.0,200,0,0,376.3467,1,0,colocated,28_11_2014 level23_spatial_Mini 09_17 log.txt,37,37,1216,69.0,2.0,2014-11-28,False,left
138,1349.0475,0,437,2761,2975,4263,701,-12.0,200,0,0,1349.5333,1,0,colocated,21_11_2014 level23_spatial_Mini 08_48 log.txt,37,37,1216,69.0,2.0,2014-11-21,False,left
97,1017.395,0,437,2761,2975,4263,551,-12.0,200,0,0,1018.3719,1,0,colocated,04_12_2014 level23_spatial_Mini 16_20 log.txt,37,37,1216,69.0,2.0,2014-12-04,False,left
46,378.25,1,437,2761,2975,4263,551,-12.0,200,0,0,378.8157,1,0,colocated,05_12_2014 level23_spatial_Mini 09_42 log.txt,37,37,1216,69.0,2.0,2014-12-05,False,left
46,399.4518,0,437,2761,2975,4263,726,-12.0,200,0,0,399.7899,1,0,colocated,03_12_2014 level23_spatial_Mini 15_56 log.txt,37,37,1216,69.0,2.0,2014-12-03,False,left
52,379.5887,0,437,2761,2975,4263,701,-12.0,200,0,0,379.957,1,0,colocated,27_11_2014 level23_spatial_Mini 09_32 log.txt,37,37,1216,69.0,2.0,2014-11-27,False,left
4,37.1901,0,437,2761,2975,4263,576,-12.0,200,0,0,37.5228,1,0,colocated,15_12_2014 level23_spatial_Mini 14_12 log.txt,37,37,1216,69.0,2.0,2014-12-15,False,left
88,733.5313,0,437,2761,2975,4263,576,-12.0,200,0,0,733.9858,1,0,colocated,26_11_2014 level23_spatial_Mini 09_38 log.txt,37,37,1216,69.0,2.0,2014-11-26,False,left
75,690.1531,0,437,2761,2975,4263,701,-12.0,200,0,0,690.9303,1,0,colocated,15_12_2014 level23_spatial_Mini 08_39 log.txt,37,37,1216,69.0,2.0,2014-12-15,False,left
36,345.4436,0,437,2761,2975,4263,551,-12.0,200,0,0,346.484,1,0,colocated,27_11_2014 level23_spatial_Mini 15_16 log.txt,37,37,1216,69.0,2.0,2014-11-27,False,left
75,690.1531,0,437,2761,2975,4263,701,-12.0,200,0,0,690.9303,1,0,colocated,15_12_2014 level23_spatial_Mini 08_39 log.txt,37,37,1216,69.0,2.0,2014-12-15,False,left
27,284.6093,0,936,1551,2975,4263,501,-12.0,200,1,0,285.3011,0,0,colocated,21_11_2014 level23_spatial_Mini 14_01 log.txt,37,37,1216,69.0,2.0,2014-11-21,False,left
48,653.6923,0,936,1551,2975,4263,526,-12.0,200,1,1,654.5882,1,0,colocated,21_11_2014 level23_spatial_Mini 08_48 log.txt,37,37,1216,69.0,2.0,2014-11-21,False,left
80,562.0656,0,936,1551,2975,4263,601,-12.0,200,1,1,562.7463,1,0,colocated,27_11_2014 level23_spatial_Mini 09_32 log.txt,37,37,1216,69.0,2.0,2014-11-27,False,left
48,653.6923,0,936,1551,2975,4263,526,-12.0,200,1,1,654.5882,1,0,colocated,21_11_2014 level23_spatial_Mini 08_48 log.txt,37,37,1216,69.0,2.0,2014-11-21,False,left
48,653.6923,0,936,1551,2975,4263,526,-12.0,200,1,1,654.5882,1,0,colocated,21_11_2014 level23_spatial_Mini 08_48 log.txt,37,37,1216,69.0,2.0,2014-11-21,False,left
20,197.6446,0,936,1551,2975,4263,601,-12.0,200,1,1,198.1003,1,0,colocated,15_12_2014 level23_spatial_Mini 14_12 log.txt,37,37,1216,69.0,2.0,2014-12-15,False,left
120,1210.5057,0,936,1551,2975,4263,551,-12.0,200,1,0,1211.4896,0,0,colocated,21_11_2014 level23_spatial_Mini 08_48 log.txt,37,37,1216,69.0,2.0,2014-11-21,False,left
80,562.0656,0,936,1551,2975,4263,601,-12.0,200,1,1,562.7463,1,0,colocated,27_11_2014 level23_spatial_Mini 09_32 log.txt,37,37,1216,69.0,2.0,2014-11-27,False,left
120,1210.5057,0,936,1551,2975,4263,551,-12.0,200,1,0,1211.4896,0,0,colocated,21_11_2014 level23_spatial_Mini 08_48 log.txt,37,37,1216,69.0,2.0,2014-11-21,False,left
27,284.6093,0,936,1551,2975,4263,501,-12.0,200,1,0,285.3011,0,0,colocated,21_11_2014 level23_spatial_Mini 14_01 log.txt,37,37,1216,69.0,2.0,2014-11-21,False,left
23,225.7022,0,936,1551,2975,4263,551,-12.0,200,1,0,226.5554,0,0,colocated,27_11_2014 level23_spatial_Mini 15_16 log.txt,37,37,1216,69.0,2.0,2014-11-27,False,left
23,225.7022,0,936,1551,2975,4263,551,-12.0,200,1,0,226.5554,0,0,colocated,27_11_2014 level23_spatial_Mini 15_16 log.txt,37,37,1216,69.0,2.0,2014-11-27,False,left
55,397.6348,0,936,1551,2975,4263,576,-12.0,200,1,1,398.146,1,0,colocated,27_11_2014 level23_spatial_Mini 09_32 log.txt,37,37,1216,69.0,2.0,2014-11-27,False,left
72,666.7455,0,936,1551,2975,4263,751,-12.0,200,1,1,667.3572,1,0,colocated,28_11_2014 level23_spatial_Mini 09_17 log.txt,37,37,1216,69.0,2.0,2014-11-28,False,left
15,487.2921,0,936,1551,2975,4263,676,-12.0,200,1,1,488.0171,1,0,colocated,04_12_2014 level23_spatial_Mini 16_20 log.txt,37,37,1216,69.0,2.0,2014-12-04,False,left
80,562.0656,0,936,1551,2975,4263,601,-12.0,200,1,1,562.7463,1,0,colocated,27_11_2014 level23_spatial_Mini 09_32 log.txt,37,37,1216,69.0,2.0,2014-11-27,False,left
23,225.7022,0,936,1551,2975,4263,551,-12.0,200,1,0,226.5554,0,0,colocated,27_11_2014 level23_spatial_Mini 15_16 log.txt,37,37,1216,69.0,2.0,2014-11-27,False,left
3,109.2278,0,936,1551,2975,4263,551,-12.0,200,1,0,109.4791,0,0,colocated,26_11_2014 level23_spatial_Mini 09_38 log.txt,37,37,1216,69.0,2.0,2014-11-26,False,left
27,284.6093,0,936,1551,2975,4263,501,-12.0,200,1,0,285.3011,0,0,colocated,21_11_2014 level23_spatial_Mini 14_01 log.txt,37,37,1216,69.0,2.0,2014-11-21,False,left
20,197.6446,0,936,1551,2975,4263,601,-12.0,200,1,1,198.1003,1,0,colocated,15_12_2014 level23_spatial_Mini 14_12 log.txt,37,37,1216,69.0,2.0,2014-12-15,False,left
23,225.7022,0,936,1551,2975,4263,551,-12.0,200,1,0,226.5554,0,0,colocated,27_11_2014 level23_spatial_Mini 15_16 log.txt,37,37,1216,69.0,2.0,2014-11-27,False,left
20,197.6446,0,936,1551,2975,4263,601,-12.0,200,1,1,198.1003,1,0,colocated,15_12_2014 level23_spatial_Mini 14_12 log.txt,37,37,1216,69.0,2.0,2014-12-15,False,left
20,197.6446,0,936,1551,2975,4263,601,-12.0,200,1,1,198.1003,1,0,colocated,15_12_2014 level23_spatial_Mini 14_12 log.txt,37,37,1216,69.0,2.0,2014-12-15,False,left
62,613.0686,1,936,1551,2975,4263,651,-12.0,200,1,1,615.4254,1,0,colocated,15_12_2014 level23_spatial_Mini 08_39 log.txt,37,37,1216,69.0,2.0,2014-12-15,False,left
24,1014.2951,0,936,1551,2975,4263,591,-12.0,200,1,0,1014.6761,0,0,colocated,26_11_2014 level23_spatial_Mini 15_54 log.txt,37,37,1216,69.0,2.0,2014-11-26,False,left
55,397.6348,0,936,1551,2975,4263,576,-12.0,200,1,1,398.146,1,0,colocated,27_11_2014 level23_spatial_Mini 09_32 log.txt,37,37,1216,69.0,2.0,2014-11-27,False,left
3,109.2278,0,936,1551,2975,4263,551,-12.0,200,1,0,109.4791,0,0,colocated,26_11_2014 level23_spatial_Mini 09_38 log.txt,37,37,1216,69.0,2.0,2014-11-26,False,left
80,562.0656,0,936,1551,2975,4263,601,-12.0,200,1,1,562.7463,1,0,colocated,27_11_2014 level23_spatial_Mini 09_32 log.txt,37,37,1216,69.0,2.0,2014-11-27,False,left
15,487.2921,0,936,1551,2975,4263,676,-12.0,200,1,1,488.0171,1,0,colocated,04_12_2014 level23_spatial_Mini 16_20 log.txt,37,37,1216,69.0,2.0,2014-12-04,False,left
96,737.1949,0,437,2761,2975,4263,501,-12.0,200,0,0,737.8605,1,1,colocated,05_12_2014 level23_spatial_Mini 09_42 log.txt,37,37,1216,69.0,2.0,2014-12-05,False,right
46,339.1906,0,437,2761,2975,4263,626,-12.0,200,0,0,339.6444,1,1,colocated,27_11_2014 level23_spatial_Mini 09_32 log.txt,37,37,1216,69.0,2.0,2014-11-27,False,right
76,684.1862,0,437,2761,2975,4263,551,-12.0,200,0,1,685.5338,0,1,colocated,28_11_2014 level23_spatial_Mini 09_17 log.txt,37,37,1216,69.0,2.0,2014-11-28,False,right
47,1228.0165,0,437,2761,2975,4263,576,-12.0,200,0,0,1228.6158,1,1,colocated,26_11_2014 level23_spatial_Mini 15_54 log.txt,37,37,1216,69.0,2.0,2014-11-26,False,right
61,498.4275,0,437,2761,2975,4263,676,-12.0,200,0,0,498.9936,1,1,colocated,05_12_2014 level23_spatial_Mini 09_42 log.txt,37,37,1216,69.0,2.0,2014-12-05,False,right
49,510.1146,0,437,2761,2975,4263,526,-12.0,200,0,0,510.8355,1,1,colocated,27_11_2014 level23_spatial_Mini 15_16 log.txt,37,37,1216,69.0,2.0,2014-11-27,False,right
47,1228.0165,0,437,2761,2975,4263,576,-12.0,200,0,0,1228.6158,1,1,colocated,26_11_2014 level23_spatial_Mini 15_54 log.txt,37,37,1216,69.0,2.0,2014-11-26,False,right
49,510.1146,0,437,2761,2975,4263,526,-12.0,200,0,0,510.8355,1,1,colocated,27_11_2014 level23_spatial_Mini 15_16 log.txt,37,37,1216,69.0,2.0,2014-11-27,False,right
46,339.1906,0,437,2761,2975,4263,626,-12.0,200,0,0,339.6444,1,1,colocated,27_11_2014 level23_spatial_Mini 09_32 log.txt,37,37,1216,69.0,2.0,2014-11-27,False,right
27,311.7018,0,437,2761,2975,4263,651,-12.0,200,0,0,312.6014,1,1,colocated,26_11_2014 level23_spatial_Mini 09_38 log.txt,37,37,1216,69.0,2.0,2014-11-26,False,right
76,541.4641,0,437,2761,2975,4263,501,-12.0,200,0,0,541.8928,1,1,colocated,27_11_2014 level23_spatial_Mini 09_32 log.txt,37,37,1216,69.0,2.0,2014-11-27,False,right
47,1228.0165,0,437,2761,2975,4263,576,-12.0,200,0,0,1228.6158,1,1,colocated,26_11_2014 level23_spatial_Mini 15_54 log.txt,37,37,1216,69.0,2.0,2014-11-26,False,right
42,391.8767,0,437,2761,2975,4263,576,-12.0,200,0,0,392.2303,1,1,colocated,15_12_2014 level23_spatial_Mini 14_12 log.txt,37,37,1216,69.0,2.0,2014-12-15,False,right
35,467.9112,0,437,2761,2975,4263,751,-12.0,200,0,0,468.4316,1,1,colocated,28_11_2014 level23_spatial_Mini 09_17 log.txt,37,37,1216,69.0,2.0,2014-11-28,False,right
47,1228.0165,0,437,2761,2975,4263,576,-12.0,200,0,0,1228.6158,1,1,colocated,26_11_2014 level23_spatial_Mini 15_54 log.txt,37,37,1216,69.0,2.0,2014-11-26,False,right
24,214.7236,0,437,2761,2975,4263,701,-12.0,200,0,0,215.5069,1,1,colocated,03_12_2014 level23_spatial_Mini 15_56 log.txt,37,37,1216,69.0,2.0,2014-12-03,False,right
29,489.9638,0,437,2761,2975,4263,626,-12.0,200,0,1,490.4919,0,1,colocated,21_11_2014 level23_spatial_Mini 08_48 log.txt,37,37,1216,69.0,2.0,2014-11-21,False,right
61,498.4275,0,437,2761,2975,4263,676,-12.0,200,0,0,498.9936,1,1,colocated,05_12_2014 level23_spatial_Mini 09_42 log.txt,37,37,1216,69.0,2.0,2014-12-05,False,right
76,646.4108,0,437,2761,2975,4263,651,-12.0,200,0,0,646.8793,1,1,colocated,02_12_2014 level23_spatial_Mini 14_57 log.txt,37,37,1216,69.0,2.0,2014-12-02,False,right
49,510.1146,0,437,2761,2975,4263,526,-12.0,200,0,0,510.8355,1,1,colocated,27_11_2014 level23_spatial_Mini 15_16 log.txt,37,37,1216,69.0,2.0,2014-11-27,False,right
1,351.4397,0,437,2761,2975,4263,626,-12.0,200,0,0,351.8244,1,1,colocated,04_12_2014 level23_spatial_Mini 16_20 log.txt,37,37,1216,69.0,2.0,2014-12-04,False,right
27,311.7018,0,437,2761,2975,4263,651,-12.0,200,0,0,312.6014,1,1,colocated,26_11_2014 level23_spatial_Mini 09_38 log.txt,37,37,1216,69.0,2.0,2014-11-26,False,right
27,311.7018,0,437,2761,2975,4263,651,-12.0,200,0,0,312.6014,1,1,colocated,26_11_2014 level23_spatial_Mini 09_38 log.txt,37,37,1216,69.0,2.0,2014-11-26,False,right
1,351.4397,0,437,2761,2975,4263,626,-12.0,200,0,0,351.8244,1,1,colocated,04_12_2014 level23_spatial_Mini 16_20 log.txt,37,37,1216,69.0,2.0,2014-12-04,False,right
76,541.4641,0,437,2761,2975,4263,501,-12.0,200,0,0,541.8928,1,1,colocated,27_11_2014 level23_spatial_Mini 09_32 log.txt,37,37,1216,69.0,2.0,2014-11-27,False,right
35,467.9112,0,437,2761,2975,4263,751,-12.0,200,0,0,468.4316,1,1,colocated,28_11_2014 level23_spatial_Mini 09_17 log.txt,37,37,1216,69.0,2.0,2014-11-28,False,right
94,763.5978,0,437,2761,2975,4263,526,-12.0,200,0,0,764.434,1,1,colocated,26_11_2014 level23_spatial_Mini 09_38 log.txt,37,37,1216,69.0,2.0,2014-11-26,False,right
29,489.9638,0,437,2761,2975,4263,626,-12.0,200,0,1,490.4919,0,1,colocated,21_11_2014 level23_spatial_Mini 08_48 log.txt,37,37,1216,69.0,2.0,2014-11-21,False,right
23,273.0854,1,437,2761,2975,4263,676,-12.0,200,0,0,273.5639,1,1,colocated,15_12_2014 level23_spatial_Mini 08_39 log.txt,37,37,1216,69.0,2.0,2014-12-15,False,right
32,276.1578,0,936,1551,2975,4263,601,-12.0,200,1,0,276.4842,0,1,colocated,05_12_2014 level23_spatial_Mini 09_42 log.txt,37,37,1216,69.0,2.0,2014-12-05,False,right
71,587.435,0,936,1551,2975,4263,626,-12.0,200,1,1,588.3312,1,1,colocated,15_12_2014 level23_spatial_Mini 14_12 log.txt,37,37,1216,69.0,2.0,2014-12-15,False,right
91,774.237,0,936,1551,2975,4263,576,-12.0,200,1,1,774.8308,1,1,colocated,28_11_2014 level23_spatial_Mini 09_17 log.txt,37,37,1216,69.0,2.0,2014-11-28,False,right
104,1070.3189,0,936,1551,2975,4263,701,-12.0,200,1,1,1072.0259,1,1,colocated,04_12_2014 level23_spatial_Mini 16_20 log.txt,37,37,1216,69.0,2.0,2014-12-04,False,right
20,367.2663,1,936,1551,2975,4263,651,-12.0,200,1,1,367.9338,1,1,colocated,28_11_2014 level23_spatial_Mini 09_17 log.txt,37,37,1216,69.0,2.0,2014-11-28,False,right
71,587.435,0,936,1551,2975,4263,626,-12.0,200,1,1,588.3312,1,1,colocated,15_12_2014 level23_spatial_Mini 14_12 log.txt,37,37,1216,69.0,2.0,2014-12-15,False,right
72,667.2176,0,936,1551,2975,4263,526,-12.0,200,1,1,667.798,1,1,colocated,15_12_2014 level23_spatial_Mini 08_39 log.txt,37,37,1216,69.0,2.0,2014-12-15,False,right
55,754.2252,0,936,1551,2975,4263,626,-12.0,200,1,1,755.4463,1,1,colocated,04_12_2014 level23_spatial_Mini 16_20 log.txt,37,37,1216,69.0,2.0,2014-12-04,False,right
104,1070.3189,0,936,1551,2975,4263,701,-12.0,200,1,1,1072.0259,1,1,colocated,04_12_2014 level23_spatial_Mini 16_20 log.txt,37,37,1216,69.0,2.0,2014-12-04,False,right
110,1108.2412,0,936,1551,2975,4263,676,-12.0,200,1,0,1109.3277,0,1,colocated,21_11_2014 level23_spatial_Mini 14_01 log.txt,37,37,1216,69.0,2.0,2014-11-21,False,right
55,754.2252,0,936,1551,2975,4263,626,-12.0,200,1,1,755.4463,1,1,colocated,04_12_2014 level23_spatial_Mini 16_20 log.txt,37,37,1216,69.0,2.0,2014-12-04,False,right
62,495.3629,0,936,1551,2975,4263,651,-12.0,200,1,0,495.8183,0,1,colocated,03_12_2014 level23_spatial_Mini 15_56 log.txt,37,37,1216,69.0,2.0,2014-12-03,False,right
32,276.1578,0,936,1551,2975,4263,601,-12.0,200,1,0,276.4842,0,1,colocated,05_12_2014 level23_spatial_Mini 09_42 log.txt,37,37,1216,69.0,2.0,2014-12-05,False,right
32,276.1578,0,936,1551,2975,4263,601,-12.0,200,1,0,276.4842,0,1,colocated,05_12_2014 level23_spatial_Mini 09_42 log.txt,37,37,1216,69.0,2.0,2014-12-05,False,right
41,422.5584,0,936,1551,2975,4263,526,-12.0,200,1,0,423.5331,0,1,colocated,26_11_2014 level23_spatial_Mini 09_38 log.txt,37,37,1216,69.0,2.0,2014-11-26,False,right
55,754.2252,0,936,1551,2975,4263,626,-12.0,200,1,1,755.4463,1,1,colocated,04_12_2014 level23_spatial_Mini 16_20 log.txt,37,37,1216,69.0,2.0,2014-12-04,False,right
38,567.5225,0,936,1551,2975,4263,551,-12.0,200,1,1,568.021,1,1,colocated,21_11_2014 level23_spatial_Mini 08_48 log.txt,37,37,1216,69.0,2.0,2014-11-21,False,right
82,576.3913,0,936,1551,2975,4263,551,-12.0,200,1,0,578.4855,0,1,colocated,27_11_2014 level23_spatial_Mini 09_32 log.txt,37,37,1216,69.0,2.0,2014-11-27,False,right
91,774.237,0,936,1551,2975,4263,576,-12.0,200,1,1,774.8308,1,1,colocated,28_11_2014 level23_spatial_Mini 09_17 log.txt,37,37,1216,69.0,2.0,2014-11-28,False,right
60,674.8682,1,936,1551,2975,4263,601,-12.0,200,1,0,676.0968,0,1,colocated,21_11_2014 level23_spatial_Mini 14_01 log.txt,37,37,1216,69.0,2.0,2014-11-21,False,right
20,367.2663,1,936,1551,2975,4263,651,-12.0,200,1,1,367.9338,1,1,colocated,28_11_2014 level23_spatial_Mini 09_17 log.txt,37,37,1216,69.0,2.0,2014-11-28,False,right
32,276.1578,0,936,1551,2975,4263,601,-12.0,200,1,0,276.4842,0,1,colocated,05_12_2014 level23_spatial_Mini 09_42 log.txt,37,37,1216,69.0,2.0,2014-12-05,False,right
91,774.237,0,936,1551,2975,4263,576,-12.0,200,1,1,774.8308,1,1,colocated,28_11_2014 level23_spatial_Mini 09_17 log.txt,37,37,1216,69.0,2.0,2014-11-28,False,right
82,576.3913,0,936,1551,2975,4263,551,-12.0,200,1,0,578.4855,0,1,colocated,27_11_2014 level23_spatial_Mini 09_32 log.txt,37,37,1216,69.0,2.0,2014-11-27,False,right
72,667.2176,0,936,1551,2975,4263,526,-12.0,200,1,1,667.798,1,1,colocated,15_12_2014 level23_spatial_Mini 08_39 log.txt,37,37,1216,69.0,2.0,2014-12-15,False,right
97,1041.9175,0,936,1551,2975,4263,676,-12.0,200,1,0,1042.3785,0,1,colocated,21_11_2014 level23_spatial_Mini 08_48 log.txt,37,37,1216,69.0,2.0,2014-11-21,False,right
110,1108.2412,0,936,1551,2975,4263,676,-12.0,200,1,0,1109.3277,0,1,colocated,21_11_2014 level23_spatial_Mini 14_01 log.txt,37,37,1216,69.0,2.0,2014-11-21,False,right
55,563.1493,0,936,1551,2975,4263,676,-12.0,200,1,1,563.472,1,1,colocated,27_11_2014 level23_spatial_Mini 15_16 log.txt,37,37,1216,69.0,2.0,2014-11-27,False,right
91,774.237,0,936,1551,2975,4263,576,-12.0,200,1,1,774.8308,1,1,colocated,28_11_2014 level23_spatial_Mini 09_17 log.txt,37,37,1216,69.0,2.0,2014-11-28,False,right
49,528.5179,1,437,2761,2975,4263,508,-13.0,200,0,0,531.9157,1,0,colocated,13_12_2013 level23_spatial_Mini 09_07 log.txt,37,37,1216,70.0,3.0,2013-12-13,False,left
2,8.3956,1,437,2761,2975,4263,509,-13.0,200,0,1,9.3226,0,0,colocated,14_03_2014 level23_spatial_Mini 15_38 log.txt,37,37,1216,70.0,3.0,2014-03-14,False,left
13,839.9468,0,437,2761,2975,4263,509,-13.0,200,0,1,841.3245,0,0,colocated,25_04_2014 level23_spatial_Mini 10_51 log.txt,37,37,1216,70.0,3.0,2014-04-25,False,left
95,1051.3852,0,437,2761,2975,4263,509,-13.0,200,0,1,1052.8699,0,0,colocated,20_12_2013 level23_spatial_Mini 09_02 log.txt,37,37,1216,70.0,3.0,2013-12-20,False,left
80,445.6979,0,437,2761,2975,4263,511,-13.0,200,0,0,447.5268,1,0,colocated,17_11_2014 level23_spatial_Mini 15_46 log.txt,37,37,1216,70.0,3.0,2014-11-17,False,left
25,324.0785,1,437,2761,2975,4263,511,-13.0,200,0,1,331.9888,0,0,colocated,20_12_2013 level23_spatial_Mini 09_02 log.txt,37,37,1216,70.0,3.0,2013-12-20,False,left
54,359.1134,1,437,2761,2975,4263,503,-13.0,200,0,1,361.6645,0,0,colocated,04_02_2014 level23_spatial_Mini 10_44 log.txt,37,37,1216,70.0,3.0,2014-02-04,False,left
101,786.8888,1,437,2761,2975,4263,502,-13.0,200,0,0,791.6873,1,0,colocated,17_11_2014 level23_spatial_Mini 10_07 log.txt,37,37,1216,70.0,3.0,2014-11-17,False,left
101,786.8888,1,437,2761,2975,4263,502,-13.0,200,0,0,791.6873,1,0,colocated,17_11_2014 level23_spatial_Mini 10_07 log.txt,37,37,1216,70.0,3.0,2014-11-17,False,left
49,528.5179,1,437,2761,2975,4263,508,-13.0,200,0,0,531.9157,1,0,colocated,13_12_2013 level23_spatial_Mini 09_07 log.txt,37,37,1216,70.0,3.0,2013-12-13,False,left
80,445.6979,0,437,2761,2975,4263,511,-13.0,200,0,0,447.5268,1,0,colocated,17_11_2014 level23_spatial_Mini 15_46 log.txt,37,37,1216,70.0,3.0,2014-11-17,False,left
10,74.7291,1,437,2761,2975,4263,503,-13.0,200,0,1,76.1694,0,0,colocated,11_03_2014 level23_spatial_Mini 10_12 log.txt,37,37,1216,70.0,3.0,2014-03-11,False,left
75,873.2151,1,437,2761,2975,4263,507,-13.0,200,0,1,876.6619,0,0,colocated,23_04_2014 level23_spatial_Mini 11_32 log.txt,37,37,1216,70.0,3.0,2014-04-23,False,left
95,1002.1092,1,437,2761,2975,4263,507,-13.0,200,0,1,1004.3794,0,0,colocated,23_04_2014 level23_spatial_Mini 11_32 log.txt,37,37,1216,70.0,3.0,2014-04-23,False,left
75,873.2151,1,437,2761,2975,4263,507,-13.0,200,0,1,876.6619,0,0,colocated,23_04_2014 level23_spatial_Mini 11_32 log.txt,37,37,1216,70.0,3.0,2014-04-23,False,left
13,839.9468,0,437,2761,2975,4263,509,-13.0,200,0,1,841.3245,0,0,colocated,25_04_2014 level23_spatial_Mini 10_51 log.txt,37,37,1216,70.0,3.0,2014-04-25,False,left
64,358.2027,0,437,2761,2975,4263,509,-13.0,200,0,0,359.8069,1,0,colocated,11_03_2014 level23_spatial_Mini 17_07 log.txt,37,37,1216,70.0,3.0,2014-03-11,False,left
43,293.5217,1,437,2761,2975,4263,507,-13.0,200,0,1,296.3427,0,0,colocated,14_03_2014 level23_spatial_Mini 10_20 log.txt,37,37,1216,70.0,3.0,2014-03-14,False,left
63,324.1381,0,437,2761,2975,4263,505,-13.0,200,0,0,325.2061,1,0,colocated,08_07_2014 level23_spatial_Mini 17_43 log.txt,37,37,1216,70.0,3.0,2014-07-08,False,left
75,873.2151,1,437,2761,2975,4263,507,-13.0,200,0,1,876.6619,0,0,colocated,23_04_2014 level23_spatial_Mini 11_32 log.txt,37,37,1216,70.0,3.0,2014-04-23,False,left
18,95.305,0,437,2761,2975,4263,503,-13.0,200,0,1,96.4901,0,0,colocated,30_10_2014 level23_spatial_Mini 08_01 log.txt,37,37,1216,70.0,3.0,2014-10-30,False,left
34,288.1065,1,437,2761,2975,4263,511,-13.0,200,0,1,290.6674,0,0,colocated,31_03_2014 level23_spatial_Mini 15_41 log.txt,37,37,1216,70.0,3.0,2014-03-31,False,left
75,873.2151,1,437,2761,2975,4263,507,-13.0,200,0,1,876.6619,0,0,colocated,23_04_2014 level23_spatial_Mini 11_32 log.txt,37,37,1216,70.0,3.0,2014-04-23,False,left
49,528.5179,1,437,2761,2975,4263,508,-13.0,200,0,0,531.9157,1,0,colocated,13_12_2013 level23_spatial_Mini 09_07 log.txt,37,37,1216,70.0,3.0,2013-12-13,False,left
63,324.1381,0,437,2761,2975,4263,505,-13.0,200,0,0,325.2061,1,0,colocated,08_07_2014 level23_spatial_Mini 17_43 log.txt,37,37,1216,70.0,3.0,2014-07-08,False,left
42,257.9211,0,437,2761,2975,4263,502,-13.0,200,0,0,257.9655,1,0,colocated,31_10_2014 level23_spatial_Mini 14_15 log.txt,37,37,1216,70.0,3.0,2014-10-31,False,left
49,528.5179,1,437,2761,2975,4263,508,-13.0,200,0,0,531.9157,1,0,colocated,13_12_2013 level23_spatial_Mini 09_07 log.txt,37,37,1216,70.0,3.0,2013-12-13,False,left
95,1051.3852,0,437,2761,2975,4263,509,-13.0,200,0,1,1052.8699,0,0,colocated,20_12_2013 level23_spatial_Mini 09_02 log.txt,37,37,1216,70.0,3.0,2013-12-20,False,left
2,8.3956,1,437,2761,2975,4263,509,-13.0,200,0,1,9.3226,0,0,colocated,14_03_2014 level23_spatial_Mini 15_38 log.txt,37,37,1216,70.0,3.0,2014-03-14,False,left
37,435.728,0,936,1551,2975,4263,510,-13.0,200,1,1,436.9422,1,0,colocated,20_12_2013 level23_spatial_Mini 09_02 log.txt,37,37,1216,70.0,3.0,2013-12-20,False,left
45,306.4351,1,936,1551,2975,4263,510,-13.0,200,1,0,308.8927,0,0,colocated,14_03_2014 level23_spatial_Mini 10_20 log.txt,37,37,1216,70.0,3.0,2014-03-14,False,left
50,371.6532,0,936,1551,2975,4263,506,-13.0,200,1,1,373.426,1,0,colocated,24_03_2014 level23_spatial_Mini 14_04 log.txt,37,37,1216,70.0,3.0,2014-03-24,False,left
8,812.5779,1,936,1551,2975,4263,501,-13.0,200,1,1,814.744,1,0,colocated,25_04_2014 level23_spatial_Mini 10_51 log.txt,37,37,1216,70.0,3.0,2014-04-25,False,left
42,285.5959,0,936,1551,2975,4263,505,-13.0,200,1,1,287.1114,1,0,colocated,04_02_2014 level23_spatial_Mini 10_44 log.txt,37,37,1216,70.0,3.0,2014-02-04,False,left
