Trial,StartTime,CenterReward,F1,F2,F3,F4,HoldTime,Atten,Pitch,Side,Response,RespTime,Correct,SpatialMask,originalFile,LeftTemperature,RightTemperature,fNum,vowel_level,SNR,day,treatment,SpatialCondition,VowelLocation
125,1068.4812,0,460,1105,2857,4205,901,10.0,200,1,1,1069.3518,1,0,06_08_2014 level23_spatial_Clio 15_42 log.txt,37,37,1217,47.0,-20.0,2014-08-06,False,colocated,left
44,527.0999,0,460,1105,2857,4205,601,10.0,200,1,1,528.1729,1,0,08_08_2014 level23_spatial_Clio 09_37 log.txt,37,37,1217,47.0,-20.0,2014-08-08,False,colocated,left
44,527.0999,0,460,1105,2857,4205,601,10.0,200,1,1,528.1729,1,0,08_08_2014 level23_spatial_Clio 09_37 log.txt,37,37,1217,47.0,-20.0,2014-08-08,False,colocated,left
121,1096.6912,0,460,1105,2857,4205,951,10.0,200,1,1,1097.3112,1,0,07_08_2014 level23_spatial_Clio 15_05 log.txt,37,37,1217,47.0,-20.0,2014-08-07,False,colocated,left
38,427.6583,0,460,1105,2857,4205,551,10.0,200,1,0,429.6355,0,0,07_08_2014 level23_spatial_Clio 09_14 log.txt,37,37,1217,47.0,-20.0,2014-08-07,False,colocated,left
63,653.6725,0,460,1105,2857,4205,701,10.0,200,1,0,654.4182,0,0,08_08_2014 level23_spatial_Clio 15_31 log.txt,37,37,1217,47.0,-20.0,2014-08-08,False,colocated,left
16,230.7174,0,460,1105,2857,4205,501,10.0,200,1,1,231.4115,1,0,07_08_2014 level23_spatial_Clio 09_14 log.txt,37,37,1217,47.0,-20.0,2014-08-07,False,colocated,left
1,43.2385,1,460,1105,2857,4205,651,10.0,200,1,0,51.0389,0,0,08_08_2014 level23_spatial_Clio 09_37 log.txt,37,37,1217,47.0,-20.0,2014-08-08,False,colocated,left
118,1027.8093,0,460,1105,2857,4205,551,10.0,200,1,1,1028.296,1,0,06_08_2014 level23_spatial_Clio 15_42 log.txt,37,37,1217,47.0,-20.0,2014-08-06,False,colocated,left
18,233.0418,0,460,1105,2857,4205,751,10.0,200,1,0,234.0389,0,0,07_08_2014 level23_spatial_Clio 15_05 log.txt,37,37,1217,47.0,-20.0,2014-08-07,False,colocated,left
138,1281.9115,1,460,1105,2857,4205,801,10.0,200,1,1,1282.5349,1,0,08_08_2014 level23_spatial_Clio 15_31 log.txt,37,37,1217,47.0,-20.0,2014-08-08,False,colocated,left
38,367.4691,0,460,1105,2857,4205,601,10.0,200,1,1,368.4861,1,0,07_08_2014 level23_spatial_Clio 15_05 log.txt,37,37,1217,47.0,-20.0,2014-08-07,False,colocated,left
36,416.5011,0,460,1105,2857,4205,951,10.0,200,1,1,416.9599,1,0,07_08_2014 level23_spatial_Clio 09_14 log.txt,37,37,1217,47.0,-20.0,2014-08-07,False,colocated,left
117,1023.505,0,460,1105,2857,4205,801,10.0,200,1,1,1024.3735,1,0,06_08_2014 level23_spatial_Clio 15_42 log.txt,37,37,1217,47.0,-20.0,2014-08-06,False,colocated,left
40,488.4068,0,460,1105,2857,4205,851,10.0,200,1,1,489.2778,1,0,06_08_2014 level23_spatial_Clio 15_42 log.txt,37,37,1217,47.0,-20.0,2014-08-06,False,colocated,left
115,1012.9229,0,460,1105,2857,4205,701,10.0,200,1,1,1013.4014,1,0,06_08_2014 level23_spatial_Clio 15_42 log.txt,37,37,1217,47.0,-20.0,2014-08-06,False,colocated,left
117,1023.505,0,460,1105,2857,4205,801,10.0,200,1,1,1024.3735,1,0,06_08_2014 level23_spatial_Clio 15_42 log.txt,37,37,1217,47.0,-20.0,2014-08-06,False,colocated,left
69,803.4743,0,460,1105,2857,4205,1001,10.0,200,1,0,804.8022,0,0,07_08_2014 level23_spatial_Clio 09_14 log.txt,37,37,1217,47.0,-20.0,2014-08-07,False,colocated,left
50,574.885,0,460,1105,2857,4205,651,10.0,200,1,0,576.0949,0,0,06_08_2014 level23_spatial_Clio 15_42 log.txt,37,37,1217,47.0,-20.0,2014-08-06,False,colocated,left
65,754.6057,0,460,1105,2857,4205,651,10.0,200,1,0,755.7279,0,0,07_08_2014 level23_spatial_Clio 09_14 log.txt,37,37,1217,47.0,-20.0,2014-08-07,False,colocated,left
130,1196.3782,0,460,1105,2857,4205,701,10.0,200,1,1,1197.1371,1,0,07_08_2014 level23_spatial_Clio 15_05 log.txt,37,37,1217,47.0,-20.0,2014-08-07,False,colocated,left
58,632.2239,0,460,1105,2857,4205,651,10.0,200,1,0,632.7133,0,0,06_08_2014 level23_spatial_Clio 15_42 log.txt,37,37,1217,47.0,-20.0,2014-08-06,False,colocated,left
21,369.7707,0,460,1105,2857,4205,951,10.0,200,1,1,370.3913,1,0,08_08_2014 level23_spatial_Clio 15_31 log.txt,37,37,1217,47.0,-20.0,2014-08-08,False,colocated,left
65,754.6057,0,460,1105,2857,4205,651,10.0,200,1,0,755.7279,0,0,07_08_2014 level23_spatial_Clio 09_14 log.txt,37,37,1217,47.0,-20.0,2014-08-07,False,colocated,left
171,1360.8423,0,460,1105,2857,4205,551,10.0,200,1,0,1364.0393,0,0,06_08_2014 level23_spatial_Clio 15_42 log.txt,37,37,1217,47.0,-20.0,2014-08-06,False,colocated,left
58,526.8685,0,460,1105,2857,4205,801,10.0,200,1,1,527.273,1,0,07_08_2014 level23_spatial_Clio 15_05 log.txt,37,37,1217,47.0,-20.0,2014-08-07,False,colocated,left
125,1068.4812,0,460,1105,2857,4205,901,10.0,200,1,1,1069.3518,1,0,06_08_2014 level23_spatial_Clio 15_42 log.txt,37,37,1217,47.0,-20.0,2014-08-06,False,colocated,left
26,283.822,0,460,1105,2857,4205,851,10.0,200,1,0,284.3312,0,0,07_08_2014 level23_spatial_Clio 15_05 log.txt,37,37,1217,47.0,-20.0,2014-08-07,False,colocated,left
117,1023.505,0,460,1105,2857,4205,801,10.0,200,1,1,1024.3735,1,0,06_08_2014 level23_spatial_Clio 15_42 log.txt,37,37,1217,47.0,-20.0,2014-08-06,False,colocated,left
21,369.7707,0,460,1105,2857,4205,951,10.0,200,1,1,370.3913,1,0,08_08_2014 level23_spatial_Clio 15_31 log.txt,37,37,1217,47.0,-20.0,2014-08-08,False,colocated,left
58,526.8685,0,460,1105,2857,4205,801,10.0,200,1,1,527.273,1,0,07_08_2014 level23_spatial_Clio 15_05 log.txt,37,37,1217,47.0,-20.0,2014-08-07,False,colocated,left
125,1068.4812,0,460,1105,2857,4205,901,10.0,200,1,1,1069.3518,1,0,06_08_2014 level23_spatial_Clio 15_42 log.txt,37,37,1217,47.0,-20.0,2014-08-06,False,colocated,left
73,645.5722,0,460,1105,2857,4205,901,10.0,200,1,1,646.174,1,0,07_08_2014 level23_spatial_Clio 15_05 log.txt,37,37,1217,47.0,-20.0,2014-08-07,False,colocated,left
187,1491.1943,0,460,1105,2857,4205,701,10.0,200,1,0,1492.2151,0,0,06_08_2014 level23_spatial_Clio 15_42 log.txt,37,37,1217,47.0,-20.0,2014-08-06,False,colocated,left
118,1027.8093,0,460,1105,2857,4205,551,10.0,200,1,1,1028.296,1,0,06_08_2014 level23_spatial_Clio 15_42 log.txt,37,37,1217,47.0,-20.0,2014-08-06,False,colocated,left
16,230.7174,0,460,1105,2857,4205,501,10.0,200,1,1,231.4115,1,0,07_08_2014 level23_spatial_Clio 09_14 log.txt,37,37,1217,47.0,-20.0,2014-08-07,False,colocated,left
115,1012.9229,0,460,1105,2857,4205,701,10.0,200,1,1,1013.4014,1,0,06_08_2014 level23_spatial_Clio 15_42 log.txt,37,37,1217,47.0,-20.0,2014-08-06,False,colocated,left
18,233.0418,0,460,1105,2857,4205,751,10.0,200,1,0,234.0389,0,0,07_08_2014 level23_spatial_Clio 15_05 log.txt,37,37,1217,47.0,-20.0,2014-08-07,False,colocated,left
69,803.4743,0,460,1105,2857,4205,1001,10.0,200,1,0,804.8022,0,0,07_08_2014 level23_spatial_Clio 09_14 log.txt,37,37,1217,47.0,-20.0,2014-08-07,False,colocated,left
44,527.0999,0,460,1105,2857,4205,601,10.0,200,1,1,528.1729,1,0,08_08_2014 level23_spatial_Clio 09_37 log.txt,37,37,1217,47.0,-20.0,2014-08-08,False,colocated,left
21,369.7707,0,460,1105,2857,4205,951,10.0,200,1,1,370.3913,1,0,08_08_2014 level23_spatial_Clio 15_31 log.txt,37,37,1217,47.0,-20.0,2014-08-08,False,colocated,left
17,239.3433,0,460,1105,2857,4205,1001,10.0,200,1,1,240.7196,1,0,08_08_2014 level23_spatial_Clio 09_37 log.txt,37,37,1217,47.0,-20.0,2014-08-08,False,colocated,left
50,574.885,0,460,1105,2857,4205,651,10.0,200,1,0,576.0949,0,0,06_08_2014 level23_spatial_Clio 15_42 log.txt,37,37,1217,47.0,-20.0,2014-08-06,False,colocated,left
50,574.885,0,460,1105,2857,4205,651,10.0,200,1,0,576.0949,0,0,06_08_2014 level23_spatial_Clio 15_42 log.txt,37,37,1217,47.0,-20.0,2014-08-06,False,colocated,left
118,1027.8093,0,460,1105,2857,4205,551,10.0,200,1,1,1028.296,1,0,06_08_2014 level23_spatial_Clio 15_42 log.txt,37,37,1217,47.0,-20.0,2014-08-06,False,colocated,left
16,230.7174,0,460,1105,2857,4205,501,10.0,200,1,1,231.4115,1,0,07_08_2014 level23_spatial_Clio 09_14 log.txt,37,37,1217,47.0,-20.0,2014-08-07,False,colocated,left
58,632.2239,0,460,1105,2857,4205,651,10.0,200,1,0,632.7133,0,0,06_08_2014 level23_spatial_Clio 15_42 log.txt,37,37,1217,47.0,-20.0,2014-08-06,False,colocated,left
26,283.822,0,460,1105,2857,4205,851,10.0,200,1,0,284.3312,0,0,07_08_2014 level23_spatial_Clio 15_05 log.txt,37,37,1217,47.0,-20.0,2014-08-07,False,colocated,left
36,416.5011,0,460,1105,2857,4205,951,10.0,200,1,1,416.9599,1,0,07_08_2014 level23_spatial_Clio 09_14 log.txt,37,37,1217,47.0,-20.0,2014-08-07,False,colocated,left
120,1078.7281,0,460,1105,2857,4205,751,10.0,200,1,1,1079.4286,1,0,07_08_2014 level23_spatial_Clio 15_05 log.txt,37,37,1217,47.0,-20.0,2014-08-07,False,colocated,left
187,1491.1943,0,460,1105,2857,4205,701,10.0,200,1,0,1492.2151,0,0,06_08_2014 level23_spatial_Clio 15_42 log.txt,37,37,1217,47.0,-20.0,2014-08-06,False,colocated,left
125,1163.5619,0,460,1105,2857,4205,801,10.0,200,1,0,1164.775,0,0,08_08_2014 level23_spatial_Clio 15_31 log.txt,37,37,1217,47.0,-20.0,2014-08-08,False,colocated,left
115,1012.9229,0,460,1105,2857,4205,701,10.0,200,1,1,1013.4014,1,0,06_08_2014 level23_spatial_Clio 15_42 log.txt,37,37,1217,47.0,-20.0,2014-08-06,False,colocated,left
21,369.7707,0,460,1105,2857,4205,951,10.0,200,1,1,370.3913,1,0,08_08_2014 level23_spatial_Clio 15_31 log.txt,37,37,1217,47.0,-20.0,2014-08-08,False,colocated,left
122,1144.0753,0,460,1105,2857,4205,501,10.0,200,1,1,1144.6287,1,0,08_08_2014 level23_spatial_Clio 15_31 log.txt,37,37,1217,47.0,-20.0,2014-08-08,False,colocated,left
16,230.7174,0,460,1105,2857,4205,501,10.0,200,1,1,231.4115,1,0,07_08_2014 level23_spatial_Clio 09_14 log.txt,37,37,1217,47.0,-20.0,2014-08-07,False,colocated,left
44,527.0999,0,460,1105,2857,4205,601,10.0,200,1,1,528.1729,1,0,08_08_2014 level23_spatial_Clio 09_37 log.txt,37,37,1217,47.0,-20.0,2014-08-08,False,colocated,left
118,1027.8093,0,460,1105,2857,4205,551,10.0,200,1,1,1028.296,1,0,06_08_2014 level23_spatial_Clio 15_42 log.txt,37,37,1217,47.0,-20.0,2014-08-06,False,colocated,left
72,638.3235,0,460,1105,2857,4205,801,10.0,200,1,1,638.8664,1,0,07_08_2014 level23_spatial_Clio 15_05 log.txt,37,37,1217,47.0,-20.0,2014-08-07,False,colocated,left
84,826.3832,0,460,1105,2857,4205,901,10.0,200,1,0,827.6108,0,0,08_08_2014 level23_spatial_Clio 15_31 log.txt,37,37,1217,47.0,-20.0,2014-08-08,False,colocated,left
1,43.2385,1,460,1105,2857,4205,651,10.0,200,1,0,51.0389,0,0,08_08_2014 level23_spatial_Clio 09_37 log.txt,37,37,1217,47.0,-20.0,2014-08-08,False,colocated,left
122,1144.0753,0,460,1105,2857,4205,501,10.0,200,1,1,1144.6287,1,0,08_08_2014 level23_spatial_Clio 15_31 log.txt,37,37,1217,47.0,-20.0,2014-08-08,False,colocated,left
125,1068.4812,0,460,1105,2857,4205,901,10.0,200,1,1,1069.3518,1,0,06_08_2014 level23_spatial_Clio 15_42 log.txt,37,37,1217,47.0,-20.0,2014-08-06,False,colocated,left
111,987.0812,0,460,1105,2857,4205,751,10.0,200,1,0,987.9132,0,0,06_08_2014 level23_spatial_Clio 15_42 log.txt,37,37,1217,47.0,-20.0,2014-08-06,False,colocated,left
73,645.5722,0,460,1105,2857,4205,901,10.0,200,1,1,646.174,1,0,07_08_2014 level23_spatial_Clio 15_05 log.txt,37,37,1217,47.0,-20.0,2014-08-07,False,colocated,left
130,1196.3782,0,460,1105,2857,4205,701,10.0,200,1,1,1197.1371,1,0,07_08_2014 level23_spatial_Clio 15_05 log.txt,37,37,1217,47.0,-20.0,2014-08-07,False,colocated,left
111,987.0812,0,460,1105,2857,4205,751,10.0,200,1,0,987.9132,0,0,06_08_2014 level23_spatial_Clio 15_42 log.txt,37,37,1217,47.0,-20.0,2014-08-06,False,colocated,left
63,653.6725,0,460,1105,2857,4205,701,10.0,200,1,0,654.4182,0,0,08_08_2014 level23_spatial_Clio 15_31 log.txt,37,37,1217,47.0,-20.0,2014-08-08,False,colocated,left
114,1008.6849,0,460,1105,2857,4205,1001,10.0,200,1,1,1009.0357,1,0,06_08_2014 level23_spatial_Clio 15_42 log.txt,37,37,1217,47.0,-20.0,2014-08-06,False,colocated,left
115,1012.9229,0,460,1105,2857,4205,701,10.0,200,1,1,1013.4014,1,0,06_08_2014 level23_spatial_Clio 15_42 log.txt,37,37,1217,47.0,-20.0,2014-08-06,False,colocated,left
125,1163.5619,0,460,1105,2857,4205,801,10.0,200,1,0,1164.775,0,0,08_08_2014 level23_spatial_Clio 15_31 log.txt,37,37,1217,47.0,-20.0,2014-08-08,False,colocated,left
111,987.0812,0,460,1105,2857,4205,751,10.0,200,1,0,987.9132,0,0,06_08_2014 level23_spatial_Clio 15_42 log.txt,37,37,1217,47.0,-20.0,2014-08-06,False,colocated,left
171,1360.8423,0,460,1105,2857,4205,551,10.0,200,1,0,1364.0393,0,0,06_08_2014 level23_spatial_Clio 15_42 log.txt,37,37,1217,47.0,-20.0,2014-08-06,False,colocated,left
103,975.6566,0,460,1105,2857,4205,751,10.0,200,1,1,976.1106,1,0,08_08_2014 level23_spatial_Clio 15_31 log.txt,37,37,1217,47.0,-20.0,2014-08-08,False,colocated,left
72,638.3235,0,460,1105,2857,4205,801,10.0,200,1,1,638.8664,1,0,07_08_2014 level23_spatial_Clio 15_05 log.txt,37,37,1217,47.0,-20.0,2014-08-07,False,colocated,left
69,803.4743,0,460,1105,2857,4205,1001,10.0,200,1,0,804.8022,0,0,07_08_2014 level23_spatial_Clio 09_14 log.txt,37,37,1217,47.0,-20.0,2014-08-07,False,colocated,left
120,1078.7281,0,460,1105,2857,4205,751,10.0,200,1,1,1079.4286,1,0,07_08_2014 level23_spatial_Clio 15_05 log.txt,37,37,1217,47.0,-20.0,2014-08-07,False,colocated,left
118,1027.8093,0,460,1105,2857,4205,551,10.0,200,1,1,1028.296,1,0,06_08_2014 level23_spatial_Clio 15_42 log.txt,37,37,1217,47.0,-20.0,2014-08-06,False,colocated,left
115,1012.9229,0,460,1105,2857,4205,701,10.0,200,1,1,1013.4014,1,0,06_08_2014 level23_spatial_Clio 15_42 log.txt,37,37,1217,47.0,-20.0,2014-08-06,False,colocated,left
114,1008.6849,0,460,1105,2857,4205,1001,10.0,200,1,1,1009.0357,1,0,06_08_2014 level23_spatial_Clio 15_42 log.txt,37,37,1217,47.0,-20.0,2014-08-06,False,colocated,left
171,1360.8423,0,460,1105,2857,4205,551,10.0,200,1,0,1364.0393,0,0,06_08_2014 level23_spatial_Clio 15_42 log.txt,37,37,1217,47.0,-20.0,2014-08-06,False,colocated,left
84,826.3832,0,460,1105,2857,4205,901,10.0,200,1,0,827.6108,0,0,08_08_2014 level23_spatial_Clio 15_31 log.txt,37,37,1217,47.0,-20.0,2014-08-08,False,colocated,left
17,239.3433,0,460,1105,2857,4205,1001,10.0,200,1,1,240.7196,1,0,08_08_2014 level23_spatial_Clio 09_37 log.txt,37,37,1217,47.0,-20.0,2014-08-08,False,colocated,left
58,632.2239,0,460,1105,2857,4205,651,10.0,200,1,0,632.7133,0,0,06_08_2014 level23_spatial_Clio 15_42 log.txt,37,37,1217,47.0,-20.0,2014-08-06,False,colocated,left
115,1012.9229,0,460,1105,2857,4205,701,10.0,200,1,1,1013.4014,1,0,06_08_2014 level23_spatial_Clio 15_42 log.txt,37,37,1217,47.0,-20.0,2014-08-06,False,colocated,left
120,1078.7281,0,460,1105,2857,4205,751,10.0,200,1,1,1079.4286,1,0,07_08_2014 level23_spatial_Clio 15_05 log.txt,37,37,1217,47.0,-20.0,2014-08-07,False,colocated,left
65,754.6057,0,460,1105,2857,4205,651,10.0,200,1,0,755.7279,0,0,07_08_2014 level23_spatial_Clio 09_14 log.txt,37,37,1217,47.0,-20.0,2014-08-07,False,colocated,left
120,1078.7281,0,460,1105,2857,4205,751,10.0,200,1,1,1079.4286,1,0,07_08_2014 level23_spatial_Clio 15_05 log.txt,37,37,1217,47.0,-20.0,2014-08-07,False,colocated,left
48,563.7573,0,730,2058,2857,4205,951,10.0,200,0,0,565.6176,1,0,06_08_2014 level23_spatial_Clio 15_42 log.txt,37,37,1217,47.0,-20.0,2014-08-06,False,colocated,left
32,329.3174,1,730,2058,2857,4205,501,10.0,200,0,1,329.9904,0,0,07_08_2014 level23_spatial_Clio 15_05 log.txt,37,37,1217,47.0,-20.0,2014-08-07,False,colocated,left
79,779.0139,0,730,2058,2857,4205,1001,10.0,200,0,1,779.3592,0,0,08_08_2014 level23_spatial_Clio 15_31 log.txt,37,37,1217,47.0,-20.0,2014-08-08,False,colocated,left
33,424.0253,0,730,2058,2857,4205,751,10.0,200,0,0,425.0449,1,0,06_08_2014 level23_spatial_Clio 15_42 log.txt,37,37,1217,47.0,-20.0,2014-08-06,False,colocated,left
65,669.5367,0,730,2058,2857,4205,1001,10.0,200,0,1,670.0317,0,0,08_08_2014 level23_spatial_Clio 15_31 log.txt,37,37,1217,47.0,-20.0,2014-08-08,False,colocated,left
2,71.2207,0,730,2058,2857,4205,901,10.0,200,0,1,71.6935,0,0,07_08_2014 level23_spatial_Clio 09_14 log.txt,37,37,1217,47.0,-20.0,2014-08-07,False,colocated,left
95,873.3746,0,730,2058,2857,4205,551,10.0,200,0,1,874.1757,0,0,07_08_2014 level23_spatial_Clio 15_05 log.txt,37,37,1217,47.0,-20.0,2014-08-07,False,colocated,left
82,931.6443,0,730,2058,2857,4205,751,10.0,200,0,0,933.6295,1,0,07_08_2014 level23_spatial_Clio 09_14 log.txt,37,37,1217,47.0,-20.0,2014-08-07,False,colocated,left
182,1437.308,0,730,2058,2857,4205,751,10.0,200,0,0,1438.1774,1,0,06_08_2014 level23_spatial_Clio 15_42 log.txt,37,37,1217,47.0,-20.0,2014-08-06,False,colocated,left
87,798.7859,0,730,2058,2857,4205,851,10.0,200,0,0,800.7807,1,0,07_08_2014 level23_spatial_Clio 15_05 log.txt,37,37,1217,47.0,-20.0,2014-08-07,False,colocated,left
45,555.2863,0,730,2058,2857,4205,751,10.0,200,0,1,560.7668,0,0,08_08_2014 level23_spatial_Clio 09_37 log.txt,37,37,1217,47.0,-20.0,2014-08-08,False,colocated,left
204,1619.5936,0,730,2058,2857,4205,901,10.0,200,0,0,1620.6915,1,0,06_08_2014 level23_spatial_Clio 15_42 log.txt,37,37,1217,47.0,-20.0,2014-08-06,False,colocated,left
45,555.2863,0,730,2058,2857,4205,751,10.0,200,0,1,560.7668,0,0,08_08_2014 level23_spatial_Clio 09_37 log.txt,37,37,1217,47.0,-20.0,2014-08-08,False,colocated,left
79,779.0139,0,730,2058,2857,4205,1001,10.0,200,0,1,779.3592,0,0,08_08_2014 level23_spatial_Clio 15_31 log.txt,37,37,1217,47.0,-20.0,2014-08-08,False,colocated,left
32,329.3174,1,730,2058,2857,4205,501,10.0,200,0,1,329.9904,0,0,07_08_2014 level23_spatial_Clio 15_05 log.txt,37,37,1217,47.0,-20.0,2014-08-07,False,colocated,left
82,931.6443,0,730,2058,2857,4205,751,10.0,200,0,0,933.6295,1,0,07_08_2014 level23_spatial_Clio 09_14 log.txt,37,37,1217,47.0,-20.0,2014-08-07,False,colocated,left
82,931.6443,0,730,2058,2857,4205,751,10.0,200,0,0,933.6295,1,0,07_08_2014 level23_spatial_Clio 09_14 log.txt,37,37,1217,47.0,-20.0,2014-08-07,False,colocated,left
139,1165.276,0,730,2058,2857,4205,851,10.0,200,0,0,1166.2091,1,0,06_08_2014 level23_spatial_Clio 15_42 log.txt,37,37,1217,47.0,-20.0,2014-08-06,False,colocated,left
135,1137.6549,0,730,2058,2857,4205,951,10.0,200,0,0,1138.6137,1,0,06_08_2014 level23_spatial_Clio 15_42 log.txt,37,37,1217,47.0,-20.0,2014-08-06,False,colocated,left
136,1295.3065,0,730,2058,2857,4205,751,10.0,200,0,1,1295.9109,0,0,07_08_2014 level23_spatial_Clio 15_05 log.txt,37,37,1217,47.0,-20.0,2014-08-07,False,colocated,left
79,779.0139,0,730,2058,2857,4205,1001,10.0,200,0,1,779.3592,0,0,08_08_2014 level23_spatial_Clio 15_31 log.txt,37,37,1217,47.0,-20.0,2014-08-08,False,colocated,left
91,846.6594,0,730,2058,2857,4205,601,10.0,200,0,0,848.3521,1,0,07_08_2014 level23_spatial_Clio 15_05 log.txt,37,37,1217,47.0,-20.0,2014-08-07,False,colocated,left
34,417.6904,0,730,2058,2857,4205,951,10.0,200,0,0,418.9364,1,0,08_08_2014 level23_spatial_Clio 09_37 log.txt,37,37,1217,47.0,-20.0,2014-08-08,False,colocated,left
95,873.3746,0,730,2058,2857,4205,551,10.0,200,0,1,874.1757,0,0,07_08_2014 level23_spatial_Clio 15_05 log.txt,37,37,1217,47.0,-20.0,2014-08-07,False,colocated,left
136,1295.3065,0,730,2058,2857,4205,751,10.0,200,0,1,1295.9109,0,0,07_08_2014 level23_spatial_Clio 15_05 log.txt,37,37,1217,47.0,-20.0,2014-08-07,False,colocated,left
38,479.0997,0,730,2058,2857,4205,501,10.0,200,0,1,479.6566,0,0,08_08_2014 level23_spatial_Clio 15_31 log.txt,37,37,1217,47.0,-20.0,2014-08-08,False,colocated,left
139,1165.276,0,730,2058,2857,4205,851,10.0,200,0,0,1166.2091,1,0,06_08_2014 level23_spatial_Clio 15_42 log.txt,37,37,1217,47.0,-20.0,2014-08-06,False,colocated,left
22,290.0308,1,730,2058,2857,4205,1001,10.0,200,0,1,290.6933,0,0,07_08_2014 level23_spatial_Clio 09_14 log.txt,37,37,1217,47.0,-20.0,2014-08-07,False,colocated,left
76,746.5466,0,730,2058,2857,4205,751,10.0,200,0,1,747.0978,0,0,06_08_2014 level23_spatial_Clio 15_42 log.txt,37,37,1217,47.0,-20.0,2014-08-06,False,colocated,left
34,339.2351,0,730,2058,2857,4205,551,10.0,200,0,0,339.9152,1,0,07_08_2014 level23_spatial_Clio 15_05 log.txt,37,37,1217,47.0,-20.0,2014-08-07,False,colocated,left
64,748.032,1,730,2058,2857,4205,901,10.0,200,0,0,749.1435,1,0,07_08_2014 level23_spatial_Clio 09_14 log.txt,37,37,1217,47.0,-20.0,2014-08-07,False,colocated,left
45,555.2863,0,730,2058,2857,4205,751,10.0,200,0,1,560.7668,0,0,08_08_2014 level23_spatial_Clio 09_37 log.txt,37,37,1217,47.0,-20.0,2014-08-08,False,colocated,left
2,71.2207,0,730,2058,2857,4205,901,10.0,200,0,1,71.6935,0,0,07_08_2014 level23_spatial_Clio 09_14 log.txt,37,37,1217,47.0,-20.0,2014-08-07,False,colocated,left
65,769.3301,0,730,2058,2857,4205,801,10.0,200,0,0,770.1044,1,0,08_08_2014 level23_spatial_Clio 09_37 log.txt,37,37,1217,47.0,-20.0,2014-08-08,False,colocated,left
65,680.2321,0,730,2058,2857,4205,1001,10.0,200,0,0,680.7353,1,0,06_08_2014 level23_spatial_Clio 15_42 log.txt,37,37,1217,47.0,-20.0,2014-08-06,False,colocated,left
65,669.5367,0,730,2058,2857,4205,1001,10.0,200,0,1,670.0317,0,0,08_08_2014 level23_spatial_Clio 15_31 log.txt,37,37,1217,47.0,-20.0,2014-08-08,False,colocated,left
135,1137.6549,0,730,2058,2857,4205,951,10.0,200,0,0,1138.6137,1,0,06_08_2014 level23_spatial_Clio 15_42 log.txt,37,37,1217,47.0,-20.0,2014-08-06,False,colocated,left
2,71.2207,0,730,2058,2857,4205,901,10.0,200,0,1,71.6935,0,0,07_08_2014 level23_spatial_Clio 09_14 log.txt,37,37,1217,47.0,-20.0,2014-08-07,False,colocated,left
204,1619.5936,0,730,2058,2857,4205,901,10.0,200,0,0,1620.6915,1,0,06_08_2014 level23_spatial_Clio 15_42 log.txt,37,37,1217,47.0,-20.0,2014-08-06,False,colocated,left
65,680.2321,0,730,2058,2857,4205,1001,10.0,200,0,0,680.7353,1,0,06_08_2014 level23_spatial_Clio 15_42 log.txt,37,37,1217,47.0,-20.0,2014-08-06,False,colocated,left
47,547.0636,0,730,2058,2857,4205,651,10.0,200,0,1,548.0638,0,0,08_08_2014 level23_spatial_Clio 15_31 log.txt,37,37,1217,47.0,-20.0,2014-08-08,False,colocated,left
94,1045.6231,0,730,2058,2857,4205,801,10.0,200,0,1,1046.0878,0,0,07_08_2014 level23_spatial_Clio 09_14 log.txt,37,37,1217,47.0,-20.0,2014-08-07,False,colocated,left
103,927.1261,0,730,2058,2857,4205,651,10.0,200,0,1,927.599,0,0,07_08_2014 level23_spatial_Clio 15_05 log.txt,37,37,1217,47.0,-20.0,2014-08-07,False,colocated,left
65,769.3301,0,730,2058,2857,4205,801,10.0,200,0,0,770.1044,1,0,08_08_2014 level23_spatial_Clio 09_37 log.txt,37,37,1217,47.0,-20.0,2014-08-08,False,colocated,left
94,1045.6231,0,730,2058,2857,4205,801,10.0,200,0,1,1046.0878,0,0,07_08_2014 level23_spatial_Clio 09_14 log.txt,37,37,1217,47.0,-20.0,2014-08-07,False,colocated,left
82,931.6443,0,730,2058,2857,4205,751,10.0,200,0,0,933.6295,1,0,07_08_2014 level23_spatial_Clio 09_14 log.txt,37,37,1217,47.0,-20.0,2014-08-07,False,colocated,left
17,226.1517,0,730,2058,2857,4205,701,10.0,200,0,0,226.9375,1,0,07_08_2014 level23_spatial_Clio 15_05 log.txt,37,37,1217,47.0,-20.0,2014-08-07,False,colocated,left
196,1549.4649,0,730,2058,2857,4205,551,10.0,200,0,1,1550.5952,0,0,06_08_2014 level23_spatial_Clio 15_42 log.txt,37,37,1217,47.0,-20.0,2014-08-06,False,colocated,left
103,927.1261,0,730,2058,2857,4205,651,10.0,200,0,1,927.599,0,0,07_08_2014 level23_spatial_Clio 15_05 log.txt,37,37,1217,47.0,-20.0,2014-08-07,False,colocated,left
87,798.7859,0,730,2058,2857,4205,851,10.0,200,0,0,800.7807,1,0,07_08_2014 level23_spatial_Clio 15_05 log.txt,37,37,1217,47.0,-20.0,2014-08-07,False,colocated,left
139,1165.276,0,730,2058,2857,4205,851,10.0,200,0,0,1166.2091,1,0,06_08_2014 level23_spatial_Clio 15_42 log.txt,37,37,1217,47.0,-20.0,2014-08-06,False,colocated,left
182,1437.308,0,730,2058,2857,4205,751,10.0,200,0,0,1438.1774,1,0,06_08_2014 level23_spatial_Clio 15_42 log.txt,37,37,1217,47.0,-20.0,2014-08-06,False,colocated,left
204,1619.5936,0,730,2058,2857,4205,901,10.0,200,0,0,1620.6915,1,0,06_08_2014 level23_spatial_Clio 15_42 log.txt,37,37,1217,47.0,-20.0,2014-08-06,False,colocated,left
47,547.0636,0,730,2058,2857,4205,651,10.0,200,0,1,548.0638,0,0,08_08_2014 level23_spatial_Clio 15_31 log.txt,37,37,1217,47.0,-20.0,2014-08-08,False,colocated,left
119,1121.8953,0,730,2058,2857,4205,951,10.0,200,0,1,1122.4841,0,0,08_08_2014 level23_spatial_Clio 15_31 log.txt,37,37,1217,47.0,-20.0,2014-08-08,False,colocated,left
79,779.0139,0,730,2058,2857,4205,1001,10.0,200,0,1,779.3592,0,0,08_08_2014 level23_spatial_Clio 15_31 log.txt,37,37,1217,47.0,-20.0,2014-08-08,False,colocated,left
139,1165.276,0,730,2058,2857,4205,851,10.0,200,0,0,1166.2091,1,0,06_08_2014 level23_spatial_Clio 15_42 log.txt,37,37,1217,47.0,-20.0,2014-08-06,False,colocated,left
82,931.6443,0,730,2058,2857,4205,751,10.0,200,0,0,933.6295,1,0,07_08_2014 level23_spatial_Clio 09_14 log.txt,37,37,1217,47.0,-20.0,2014-08-07,False,colocated,left
17,226.1517,0,730,2058,2857,4205,701,10.0,200,0,0,226.9375,1,0,07_08_2014 level23_spatial_Clio 15_05 log.txt,37,37,1217,47.0,-20.0,2014-08-07,False,colocated,left
182,1437.308,0,730,2058,2857,4205,751,10.0,200,0,0,1438.1774,1,0,06_08_2014 level23_spatial_Clio 15_42 log.txt,37,37,1217,47.0,-20.0,2014-08-06,False,colocated,left
182,1437.308,0,730,2058,2857,4205,751,10.0,200,0,0,1438.1774,1,0,06_08_2014 level23_spatial_Clio 15_42 log.txt,37,37,1217,47.0,-20.0,2014-08-06,False,colocated,left
79,779.0139,0,730,2058,2857,4205,1001,10.0,200,0,1,779.3592,0,0,08_08_2014 level23_spatial_Clio 15_31 log.txt,37,37,1217,47.0,-20.0,2014-08-08,False,colocated,left
163,1316.2927,0,730,2058,2857,4205,601,10.0,200,0,1,1316.9292,0,0,06_08_2014 level23_spatial_Clio 15_42 log.txt,37,37,1217,47.0,-20.0,2014-08-06,False,colocated,left
45,555.2863,0,730,2058,2857,4205,751,10.0,200,0,1,560.7668,0,0,08_08_2014 level23_spatial_Clio 09_37 log.txt,37,37,1217,47.0,-20.0,2014-08-08,False,colocated,left
95,873.3746,0,730,2058,2857,4205,551,10.0,200,0,1,874.1757,0,0,07_08_2014 level23_spatial_Clio 15_05 log.txt,37,37,1217,47.0,-20.0,2014-08-07,False,colocated,left
54,610.5598,0,730,2058,2857,4205,951,10.0,200,0,0,611.4276,1,0,06_08_2014 level23_spatial_Clio 15_42 log.txt,37,37,1217,47.0,-20.0,2014-08-06,False,colocated,left
106,995.5652,0,730,2058,2857,4205,801,10.0,200,0,0,996.8185,1,0,08_08_2014 level23_spatial_Clio 15_31 log.txt,37,37,1217,47.0,-20.0,2014-08-08,False,colocated,left
75,738.2398,0,730,2058,2857,4205,801,10.0,200,0,0,739.3767,1,0,06_08_2014 level23_spatial_Clio 15_42 log.txt,37,37,1217,47.0,-20.0,2014-08-06,False,colocated,left
82,931.6443,0,730,2058,2857,4205,751,10.0,200,0,0,933.6295,1,0,07_08_2014 level23_spatial_Clio 09_14 log.txt,37,37,1217,47.0,-20.0,2014-08-07,False,colocated,left
38,479.0997,0,730,2058,2857,4205,501,10.0,200,0,1,479.6566,0,0,08_08_2014 level23_spatial_Clio 15_31 log.txt,37,37,1217,47.0,-20.0,2014-08-08,False,colocated,left
106,995.5652,0,730,2058,2857,4205,801,10.0,200,0,0,996.8185,1,0,08_08_2014 level23_spatial_Clio 15_31 log.txt,37,37,1217,47.0,-20.0,2014-08-08,False,colocated,left
79,779.0139,0,730,2058,2857,4205,1001,10.0,200,0,1,779.3592,0,0,08_08_2014 level23_spatial_Clio 15_31 log.txt,37,37,1217,47.0,-20.0,2014-08-08,False,colocated,left
34,417.6904,0,730,2058,2857,4205,951,10.0,200,0,0,418.9364,1,0,08_08_2014 level23_spatial_Clio 09_37 log.txt,37,37,1217,47.0,-20.0,2014-08-08,False,colocated,left
65,769.3301,0,730,2058,2857,4205,801,10.0,200,0,0,770.1044,1,0,08_08_2014 level23_spatial_Clio 09_37 log.txt,37,37,1217,47.0,-20.0,2014-08-08,False,colocated,left
22,290.0308,1,730,2058,2857,4205,1001,10.0,200,0,1,290.6933,0,0,07_08_2014 level23_spatial_Clio 09_14 log.txt,37,37,1217,47.0,-20.0,2014-08-07,False,colocated,left
48,563.7573,0,730,2058,2857,4205,951,10.0,200,0,0,565.6176,1,0,06_08_2014 level23_spatial_Clio 15_42 log.txt,37,37,1217,47.0,-20.0,2014-08-06,False,colocated,left
65,769.3301,0,730,2058,2857,4205,801,10.0,200,0,0,770.1044,1,0,08_08_2014 level23_spatial_Clio 09_37 log.txt,37,37,1217,47.0,-20.0,2014-08-08,False,colocated,left
204,1619.5936,0,730,2058,2857,4205,901,10.0,200,0,0,1620.6915,1,0,06_08_2014 level23_spatial_Clio 15_42 log.txt,37,37,1217,47.0,-20.0,2014-08-06,False,colocated,left
48,563.7573,0,730,2058,2857,4205,951,10.0,200,0,0,565.6176,1,0,06_08_2014 level23_spatial_Clio 15_42 log.txt,37,37,1217,47.0,-20.0,2014-08-06,False,colocated,left
86,840.5275,0,730,2058,2857,4205,901,10.0,200,0,1,841.3324,0,0,08_08_2014 level23_spatial_Clio 15_31 log.txt,37,37,1217,47.0,-20.0,2014-08-08,False,colocated,left
2,71.2207,0,730,2058,2857,4205,901,10.0,200,0,1,71.6935,0,0,07_08_2014 level23_spatial_Clio 09_14 log.txt,37,37,1217,47.0,-20.0,2014-08-07,False,colocated,left
79,779.0139,0,730,2058,2857,4205,1001,10.0,200,0,1,779.3592,0,0,08_08_2014 level23_spatial_Clio 15_31 log.txt,37,37,1217,47.0,-20.0,2014-08-08,False,colocated,left
135,1137.6549,0,730,2058,2857,4205,951,10.0,200,0,0,1138.6137,1,0,06_08_2014 level23_spatial_Clio 15_42 log.txt,37,37,1217,47.0,-20.0,2014-08-06,False,colocated,left
75,738.2398,0,730,2058,2857,4205,801,10.0,200,0,0,739.3767,1,0,06_08_2014 level23_spatial_Clio 15_42 log.txt,37,37,1217,47.0,-20.0,2014-08-06,False,colocated,left
45,555.2863,0,730,2058,2857,4205,751,10.0,200,0,1,560.7668,0,0,08_08_2014 level23_spatial_Clio 09_37 log.txt,37,37,1217,47.0,-20.0,2014-08-08,False,colocated,left
91,846.6594,0,730,2058,2857,4205,601,10.0,200,0,0,848.3521,1,0,07_08_2014 level23_spatial_Clio 15_05 log.txt,37,37,1217,47.0,-20.0,2014-08-07,False,colocated,left
86,840.5275,0,730,2058,2857,4205,901,10.0,200,0,1,841.3324,0,0,08_08_2014 level23_spatial_Clio 15_31 log.txt,37,37,1217,47.0,-20.0,2014-08-08,False,colocated,left
156,1403.4955,0,730,2058,2857,4205,651,10.0,200,0,0,1404.563,1,0,08_08_2014 level23_spatial_Clio 15_31 log.txt,37,37,1217,47.0,-20.0,2014-08-08,False,colocated,left
26,334.2932,0,460,1105,2857,4205,951,10.0,200,1,0,336.1886,0,1,07_08_2014 level23_spatial_Clio 09_14 log.txt,37,37,1217,47.0,-20.0,2014-08-07,False,colocated,right
185,1473.5968,0,460,1105,2857,4205,801,10.0,200,1,0,1474.8944,0,1,06_08_2014 level23_spatial_Clio 15_42 log.txt,37,37,1217,47.0,-20.0,2014-08-06,False,colocated,right
46,540.096,1,460,1105,2857,4205,551,10.0,200,1,0,544.1513,0,1,06_08_2014 level23_spatial_Clio 15_42 log.txt,37,37,1217,47.0,-20.0,2014-08-06,False,colocated,right
147,1231.3627,0,460,1105,2857,4205,501,10.0,200,1,1,1231.8986,1,1,06_08_2014 level23_spatial_Clio 15_42 log.txt,37,37,1217,47.0,-20.0,2014-08-06,False,colocated,right
105,951.769,0,460,1105,2857,4205,1001,10.0,200,1,0,952.7969,0,1,06_08_2014 level23_spatial_Clio 15_42 log.txt,37,37,1217,47.0,-20.0,2014-08-06,False,colocated,right
84,969.361,1,460,1105,2857,4205,501,10.0,200,1,0,971.3005,0,1,08_08_2014 level23_spatial_Clio 09_37 log.txt,37,37,1217,47.0,-20.0,2014-08-08,False,colocated,right
124,1155.2662,0,460,1105,2857,4205,901,10.0,200,1,1,1155.6279,1,1,08_08_2014 level23_spatial_Clio 15_31 log.txt,37,37,1217,47.0,-20.0,2014-08-08,False,colocated,right
12,182.3524,0,460,1105,2857,4205,701,10.0,200,1,0,183.0033,0,1,07_08_2014 level23_spatial_Clio 09_14 log.txt,37,37,1217,47.0,-20.0,2014-08-07,False,colocated,right
12,182.3524,0,460,1105,2857,4205,701,10.0,200,1,0,183.0033,0,1,07_08_2014 level23_spatial_Clio 09_14 log.txt,37,37,1217,47.0,-20.0,2014-08-07,False,colocated,right
105,951.769,0,460,1105,2857,4205,1001,10.0,200,1,0,952.7969,0,1,06_08_2014 level23_spatial_Clio 15_42 log.txt,37,37,1217,47.0,-20.0,2014-08-06,False,colocated,right
12,182.3524,0,460,1105,2857,4205,701,10.0,200,1,0,183.0033,0,1,07_08_2014 level23_spatial_Clio 09_14 log.txt,37,37,1217,47.0,-20.0,2014-08-07,False,colocated,right
84,969.361,1,460,1105,2857,4205,501,10.0,200,1,0,971.3005,0,1,08_08_2014 level23_spatial_Clio 09_37 log.txt,37,37,1217,47.0,-20.0,2014-08-08,False,colocated,right
128,1086.9572,0,460,1105,2857,4205,1001,10.0,200,1,0,1088.1263,0,1,06_08_2014 level23_spatial_Clio 15_42 log.txt,37,37,1217,47.0,-20.0,2014-08-06,False,colocated,right
105,951.769,0,460,1105,2857,4205,1001,10.0,200,1,0,952.7969,0,1,06_08_2014 level23_spatial_Clio 15_42 log.txt,37,37,1217,47.0,-20.0,2014-08-06,False,colocated,right
66,776.1152,0,460,1105,2857,4205,851,10.0,200,1,0,776.8463,0,1,08_08_2014 level23_spatial_Clio 09_37 log.txt,37,37,1217,47.0,-20.0,2014-08-08,False,colocated,right
185,1473.5968,0,460,1105,2857,4205,801,10.0,200,1,0,1474.8944,0,1,06_08_2014 level23_spatial_Clio 15_42 log.txt,37,37,1217,47.0,-20.0,2014-08-06,False,colocated,right
90,837.6902,0,460,1105,2857,4205,1001,10.0,200,1,1,838.2901,1,1,07_08_2014 level23_spatial_Clio 15_05 log.txt,37,37,1217,47.0,-20.0,2014-08-07,False,colocated,right
84,969.361,1,460,1105,2857,4205,501,10.0,200,1,0,971.3005,0,1,08_08_2014 level23_spatial_Clio 09_37 log.txt,37,37,1217,47.0,-20.0,2014-08-08,False,colocated,right
147,1231.3627,0,460,1105,2857,4205,501,10.0,200,1,1,1231.8986,1,1,06_08_2014 level23_spatial_Clio 15_42 log.txt,37,37,1217,47.0,-20.0,2014-08-06,False,colocated,right
12,182.3524,0,460,1105,2857,4205,701,10.0,200,1,0,183.0033,0,1,07_08_2014 level23_spatial_Clio 09_14 log.txt,37,37,1217,47.0,-20.0,2014-08-07,False,colocated,right
66,776.1152,0,460,1105,2857,4205,851,10.0,200,1,0,776.8463,0,1,08_08_2014 level23_spatial_Clio 09_37 log.txt,37,37,1217,47.0,-20.0,2014-08-08,False,colocated,right
90,837.6902,0,460,1105,2857,4205,1001,10.0,200,1,1,838.2901,1,1,07_08_2014 level23_spatial_Clio 15_05 log.txt,37,37,1217,47.0,-20.0,2014-08-07,False,colocated,right
35,344.6028,0,460,1105,2857,4205,1001,10.0,200,1,0,345.248,0,1,07_08_2014 level23_spatial_Clio 15_05 log.txt,37,37,1217,47.0,-20.0,2014-08-07,False,colocated,right
77,760.4996,0,460,1105,2857,4205,551,10.0,200,1,1,761.0035,1,1,08_08_2014 level23_spatial_Clio 15_31 log.txt,37,37,1217,47.0,-20.0,2014-08-08,False,colocated,right
19,274.0988,0,460,1105,2857,4205,701,10.0,200,1,0,274.5902,0,1,06_08_2014 level23_spatial_Clio 15_42 log.txt,37,37,1217,47.0,-20.0,2014-08-06,False,colocated,right
63,734.078,0,460,1105,2857,4205,601,10.0,200,1,1,735.3904,1,1,07_08_2014 level23_spatial_Clio 09_14 log.txt,37,37,1217,47.0,-20.0,2014-08-07,False,colocated,right
15,202.8254,1,460,1105,2857,4205,501,10.0,200,1,0,207.6236,0,1,07_08_2014 level23_spatial_Clio 15_05 log.txt,37,37,1217,47.0,-20.0,2014-08-07,False,colocated,right
97,924.9409,0,460,1105,2857,4205,701,10.0,200,1,1,925.6292,1,1,08_08_2014 level23_spatial_Clio 15_31 log.txt,37,37,1217,47.0,-20.0,2014-08-08,False,colocated,right
128,1086.9572,0,460,1105,2857,4205,1001,10.0,200,1,0,1088.1263,0,1,06_08_2014 level23_spatial_Clio 15_42 log.txt,37,37,1217,47.0,-20.0,2014-08-06,False,colocated,right
37,445.0363,0,460,1105,2857,4205,501,10.0,200,1,0,447.3016,0,1,08_08_2014 level23_spatial_Clio 09_37 log.txt,37,37,1217,47.0,-20.0,2014-08-08,False,colocated,right
66,776.1152,0,460,1105,2857,4205,851,10.0,200,1,0,776.8463,0,1,08_08_2014 level23_spatial_Clio 09_37 log.txt,37,37,1217,47.0,-20.0,2014-08-08,False,colocated,right
79,912.5712,0,460,1105,2857,4205,851,10.0,200,1,0,913.3102,0,1,08_08_2014 level23_spatial_Clio 09_37 log.txt,37,37,1217,47.0,-20.0,2014-08-08,False,colocated,right
12,182.3524,0,460,1105,2857,4205,701,10.0,200,1,0,183.0033,0,1,07_08_2014 level23_spatial_Clio 09_14 log.txt,37,37,1217,47.0,-20.0,2014-08-07,False,colocated,right
51,570.4251,0,460,1105,2857,4205,551,10.0,200,1,0,571.8175,0,1,08_08_2014 level23_spatial_Clio 15_31 log.txt,37,37,1217,47.0,-20.0,2014-08-08,False,colocated,right
124,1155.2662,0,460,1105,2857,4205,901,10.0,200,1,1,1155.6279,1,1,08_08_2014 level23_spatial_Clio 15_31 log.txt,37,37,1217,47.0,-20.0,2014-08-08,False,colocated,right
97,924.9409,0,460,1105,2857,4205,701,10.0,200,1,1,925.6292,1,1,08_08_2014 level23_spatial_Clio 15_31 log.txt,37,37,1217,47.0,-20.0,2014-08-08,False,colocated,right
54,594.2003,0,460,1105,2857,4205,651,10.0,200,1,1,594.8528,1,1,08_08_2014 level23_spatial_Clio 15_31 log.txt,37,37,1217,47.0,-20.0,2014-08-08,False,colocated,right
23,297.8839,0,460,1105,2857,4205,751,10.0,200,1,1,299.0357,1,1,08_08_2014 level23_spatial_Clio 09_37 log.txt,37,37,1217,47.0,-20.0,2014-08-08,False,colocated,right
185,1473.5968,0,460,1105,2857,4205,801,10.0,200,1,0,1474.8944,0,1,06_08_2014 level23_spatial_Clio 15_42 log.txt,37,37,1217,47.0,-20.0,2014-08-06,False,colocated,right
35,344.6028,0,460,1105,2857,4205,1001,10.0,200,1,0,345.248,0,1,07_08_2014 level23_spatial_Clio 15_05 log.txt,37,37,1217,47.0,-20.0,2014-08-07,False,colocated,right
90,837.6902,0,460,1105,2857,4205,1001,10.0,200,1,1,838.2901,1,1,07_08_2014 level23_spatial_Clio 15_05 log.txt,37,37,1217,47.0,-20.0,2014-08-07,False,colocated,right
66,776.1152,0,460,1105,2857,4205,851,10.0,200,1,0,776.8463,0,1,08_08_2014 level23_spatial_Clio 09_37 log.txt,37,37,1217,47.0,-20.0,2014-08-08,False,colocated,right
128,1086.9572,0,460,1105,2857,4205,1001,10.0,200,1,0,1088.1263,0,1,06_08_2014 level23_spatial_Clio 15_42 log.txt,37,37,1217,47.0,-20.0,2014-08-06,False,colocated,right
25,330.0499,0,460,1105,2857,4205,651,10.0,200,1,1,330.9483,1,1,07_08_2014 level23_spatial_Clio 09_14 log.txt,37,37,1217,47.0,-20.0,2014-08-07,False,colocated,right
26,343.9793,0,460,1105,2857,4205,551,10.0,200,1,0,345.3864,0,1,06_08_2014 level23_spatial_Clio 15_42 log.txt,37,37,1217,47.0,-20.0,2014-08-06,False,colocated,right
124,1155.2662,0,460,1105,2857,4205,901,10.0,200,1,1,1155.6279,1,1,08_08_2014 level23_spatial_Clio 15_31 log.txt,37,37,1217,47.0,-20.0,2014-08-08,False,colocated,right
25,330.0499,0,460,1105,2857,4205,651,10.0,200,1,1,330.9483,1,1,07_08_2014 level23_spatial_Clio 09_14 log.txt,37,37,1217,47.0,-20.0,2014-08-07,False,colocated,right
68,694.3864,0,460,1105,2857,4205,951,10.0,200,1,0,694.8825,0,1,06_08_2014 level23_spatial_Clio 15_42 log.txt,37,37,1217,47.0,-20.0,2014-08-06,False,colocated,right
90,837.6902,0,460,1105,2857,4205,1001,10.0,200,1,1,838.2901,1,1,07_08_2014 level23_spatial_Clio 15_05 log.txt,37,37,1217,47.0,-20.0,2014-08-07,False,colocated,right
51,570.4251,0,460,1105,2857,4205,551,10.0,200,1,0,571.8175,0,1,08_08_2014 level23_spatial_Clio 15_31 log.txt,37,37,1217,47.0,-20.0,2014-08-08,False,colocated,right
97,924.9409,0,460,1105,2857,4205,701,10.0,200,1,1,925.6292,1,1,08_08_2014 level23_spatial_Clio 15_31 log.txt,37,37,1217,47.0,-20.0,2014-08-08,False,colocated,right
128,1086.9572,0,460,1105,2857,4205,1001,10.0,200,1,0,1088.1263,0,1,06_08_2014 level23_spatial_Clio 15_42 log.txt,37,37,1217,47.0,-20.0,2014-08-06,False,colocated,right
97,924.9409,0,460,1105,2857,4205,701,10.0,200,1,1,925.6292,1,1,08_08_2014 level23_spatial_Clio 15_31 log.txt,37,37,1217,47.0,-20.0,2014-08-08,False,colocated,right
23,297.8839,0,460,1105,2857,4205,751,10.0,200,1,1,299.0357,1,1,08_08_2014 level23_spatial_Clio 09_37 log.txt,37,37,1217,47.0,-20.0,2014-08-08,False,colocated,right
77,760.4996,0,460,1105,2857,4205,551,10.0,200,1,1,761.0035,1,1,08_08_2014 level23_spatial_Clio 15_31 log.txt,37,37,1217,47.0,-20.0,2014-08-08,False,colocated,right
97,924.9409,0,460,1105,2857,4205,701,10.0,200,1,1,925.6292,1,1,08_08_2014 level23_spatial_Clio 15_31 log.txt,37,37,1217,47.0,-20.0,2014-08-08,False,colocated,right
51,570.4251,0,460,1105,2857,4205,551,10.0,200,1,0,571.8175,0,1,08_08_2014 level23_spatial_Clio 15_31 log.txt,37,37,1217,47.0,-20.0,2014-08-08,False,colocated,right
185,1473.5968,0,460,1105,2857,4205,801,10.0,200,1,0,1474.8944,0,1,06_08_2014 level23_spatial_Clio 15_42 log.txt,37,37,1217,47.0,-20.0,2014-08-06,False,colocated,right
35,344.6028,0,460,1105,2857,4205,1001,10.0,200,1,0,345.248,0,1,07_08_2014 level23_spatial_Clio 15_05 log.txt,37,37,1217,47.0,-20.0,2014-08-07,False,colocated,right
66,776.1152,0,460,1105,2857,4205,851,10.0,200,1,0,776.8463,0,1,08_08_2014 level23_spatial_Clio 09_37 log.txt,37,37,1217,47.0,-20.0,2014-08-08,False,colocated,right
97,924.9409,0,460,1105,2857,4205,701,10.0,200,1,1,925.6292,1,1,08_08_2014 level23_spatial_Clio 15_31 log.txt,37,37,1217,47.0,-20.0,2014-08-08,False,colocated,right
151,1255.3767,0,460,1105,2857,4205,751,10.0,200,1,1,1255.9444,1,1,06_08_2014 level23_spatial_Clio 15_42 log.txt,37,37,1217,47.0,-20.0,2014-08-06,False,colocated,right
37,445.0363,0,460,1105,2857,4205,501,10.0,200,1,0,447.3016,0,1,08_08_2014 level23_spatial_Clio 09_37 log.txt,37,37,1217,47.0,-20.0,2014-08-08,False,colocated,right
26,343.9793,0,460,1105,2857,4205,551,10.0,200,1,0,345.3864,0,1,06_08_2014 level23_spatial_Clio 15_42 log.txt,37,37,1217,47.0,-20.0,2014-08-06,False,colocated,right
15,202.8254,1,460,1105,2857,4205,501,10.0,200,1,0,207.6236,0,1,07_08_2014 level23_spatial_Clio 15_05 log.txt,37,37,1217,47.0,-20.0,2014-08-07,False,colocated,right
25,330.0499,0,460,1105,2857,4205,651,10.0,200,1,1,330.9483,1,1,07_08_2014 level23_spatial_Clio 09_14 log.txt,37,37,1217,47.0,-20.0,2014-08-07,False,colocated,right
37,445.0363,0,460,1105,2857,4205,501,10.0,200,1,0,447.3016,0,1,08_08_2014 level23_spatial_Clio 09_37 log.txt,37,37,1217,47.0,-20.0,2014-08-08,False,colocated,right
123,1113.1534,1,460,1105,2857,4205,801,10.0,200,1,1,1113.7258,1,1,07_08_2014 level23_spatial_Clio 15_05 log.txt,37,37,1217,47.0,-20.0,2014-08-07,False,colocated,right
151,1255.3767,0,460,1105,2857,4205,751,10.0,200,1,1,1255.9444,1,1,06_08_2014 level23_spatial_Clio 15_42 log.txt,37,37,1217,47.0,-20.0,2014-08-06,False,colocated,right
76,667.7859,0,460,1105,2857,4205,701,10.0,200,1,1,668.2158,1,1,07_08_2014 level23_spatial_Clio 15_05 log.txt,37,37,1217,47.0,-20.0,2014-08-07,False,colocated,right
66,776.1152,0,460,1105,2857,4205,851,10.0,200,1,0,776.8463,0,1,08_08_2014 level23_spatial_Clio 09_37 log.txt,37,37,1217,47.0,-20.0,2014-08-08,False,colocated,right
105,951.769,0,460,1105,2857,4205,1001,10.0,200,1,0,952.7969,0,1,06_08_2014 level23_spatial_Clio 15_42 log.txt,37,37,1217,47.0,-20.0,2014-08-06,False,colocated,right
26,334.2932,0,460,1105,2857,4205,951,10.0,200,1,0,336.1886,0,1,07_08_2014 level23_spatial_Clio 09_14 log.txt,37,37,1217,47.0,-20.0,2014-08-07,False,colocated,right
12,182.3524,0,460,1105,2857,4205,701,10.0,200,1,0,183.0033,0,1,07_08_2014 level23_spatial_Clio 09_14 log.txt,37,37,1217,47.0,-20.0,2014-08-07,False,colocated,right
66,776.1152,0,460,1105,2857,4205,851,10.0,200,1,0,776.8463,0,1,08_08_2014 level23_spatial_Clio 09_37 log.txt,37,37,1217,47.0,-20.0,2014-08-08,False,colocated,right
151,1255.3767,0,460,1105,2857,4205,751,10.0,200,1,1,1255.9444,1,1,06_08_2014 level23_spatial_Clio 15_42 log.txt,37,37,1217,47.0,-20.0,2014-08-06,False,colocated,right
97,924.9409,0,460,1105,2857,4205,701,10.0,200,1,1,925.6292,1,1,08_08_2014 level23_spatial_Clio 15_31 log.txt,37,37,1217,47.0,-20.0,2014-08-08,False,colocated,right
62,551.6294,0,460,1105,2857,4205,701,10.0,200,1,1,552.4052,1,1,07_08_2014 level23_spatial_Clio 15_05 log.txt,37,37,1217,47.0,-20.0,2014-08-07,False,colocated,right
123,1113.1534,1,460,1105,2857,4205,801,10.0,200,1,1,1113.7258,1,1,07_08_2014 level23_spatial_Clio 15_05 log.txt,37,37,1217,47.0,-20.0,2014-08-07,False,colocated,right
111,998.8823,0,460,1105,2857,4205,801,10.0,200,1,1,999.528,1,1,07_08_2014 level23_spatial_Clio 15_05 log.txt,37,37,1217,47.0,-20.0,2014-08-07,False,colocated,right
62,551.6294,0,460,1105,2857,4205,701,10.0,200,1,1,552.4052,1,1,07_08_2014 level23_spatial_Clio 15_05 log.txt,37,37,1217,47.0,-20.0,2014-08-07,False,colocated,right
90,837.6902,0,460,1105,2857,4205,1001,10.0,200,1,1,838.2901,1,1,07_08_2014 level23_spatial_Clio 15_05 log.txt,37,37,1217,47.0,-20.0,2014-08-07,False,colocated,right
185,1473.5968,0,460,1105,2857,4205,801,10.0,200,1,0,1474.8944,0,1,06_08_2014 level23_spatial_Clio 15_42 log.txt,37,37,1217,47.0,-20.0,2014-08-06,False,colocated,right
19,274.0988,0,460,1105,2857,4205,701,10.0,200,1,0,274.5902,0,1,06_08_2014 level23_spatial_Clio 15_42 log.txt,37,37,1217,47.0,-20.0,2014-08-06,False,colocated,right
54,594.2003,0,460,1105,2857,4205,651,10.0,200,1,1,594.8528,1,1,08_08_2014 level23_spatial_Clio 15_31 log.txt,37,37,1217,47.0,-20.0,2014-08-08,False,colocated,right
90,837.6902,0,460,1105,2857,4205,1001,10.0,200,1,1,838.2901,1,1,07_08_2014 level23_spatial_Clio 15_05 log.txt,37,37,1217,47.0,-20.0,2014-08-07,False,colocated,right
54,594.2003,0,460,1105,2857,4205,651,10.0,200,1,1,594.8528,1,1,08_08_2014 level23_spatial_Clio 15_31 log.txt,37,37,1217,47.0,-20.0,2014-08-08,False,colocated,right
54,594.2003,0,460,1105,2857,4205,651,10.0,200,1,1,594.8528,1,1,08_08_2014 level23_spatial_Clio 15_31 log.txt,37,37,1217,47.0,-20.0,2014-08-08,False,colocated,right
98,934.8262,0,730,2058,2857,4205,751,10.0,200,0,0,935.8147,1,1,08_08_2014 level23_spatial_Clio 15_31 log.txt,37,37,1217,47.0,-20.0,2014-08-08,False,colocated,right
37,473.4716,0,730,2058,2857,4205,701,10.0,200,0,0,474.4207,1,1,08_08_2014 level23_spatial_Clio 15_31 log.txt,37,37,1217,47.0,-20.0,2014-08-08,False,colocated,right
156,1279.1525,0,730,2058,2857,4205,501,10.0,200,0,1,1279.9122,0,1,06_08_2014 level23_spatial_Clio 15_42 log.txt,37,37,1217,47.0,-20.0,2014-08-06,False,colocated,right
94,867.2596,0,730,2058,2857,4205,901,10.0,200,0,0,868.6931,1,1,07_08_2014 level23_spatial_Clio 15_05 log.txt,37,37,1217,47.0,-20.0,2014-08-07,False,colocated,right
30,315.9362,0,730,2058,2857,4205,951,10.0,200,0,1,316.4346,0,1,07_08_2014 level23_spatial_Clio 15_05 log.txt,37,37,1217,47.0,-20.0,2014-08-07,False,colocated,right
7,150.3537,0,730,2058,2857,4205,701,10.0,200,0,0,151.7736,1,1,06_08_2014 level23_spatial_Clio 15_42 log.txt,37,37,1217,47.0,-20.0,2014-08-06,False,colocated,right
17,241.8201,0,730,2058,2857,4205,851,10.0,200,0,1,242.51,0,1,07_08_2014 level23_spatial_Clio 09_14 log.txt,37,37,1217,47.0,-20.0,2014-08-07,False,colocated,right
29,359.8245,0,730,2058,2857,4205,601,10.0,200,0,0,363.4627,1,1,07_08_2014 level23_spatial_Clio 09_14 log.txt,37,37,1217,47.0,-20.0,2014-08-07,False,colocated,right
65,574.5641,1,730,2058,2857,4205,951,10.0,200,0,0,579.0128,1,1,07_08_2014 level23_spatial_Clio 15_05 log.txt,37,37,1217,47.0,-20.0,2014-08-07,False,colocated,right
112,1011.5056,0,730,2058,2857,4205,851,10.0,200,0,1,1020.1194,0,1,07_08_2014 level23_spatial_Clio 15_05 log.txt,37,37,1217,47.0,-20.0,2014-08-07,False,colocated,right
127,1136.2379,0,730,2058,2857,4205,501,10.0,200,0,1,1137.1412,0,1,07_08_2014 level23_spatial_Clio 15_05 log.txt,37,37,1217,47.0,-20.0,2014-08-07,False,colocated,right
30,315.9362,0,730,2058,2857,4205,951,10.0,200,0,1,316.4346,0,1,07_08_2014 level23_spatial_Clio 15_05 log.txt,37,37,1217,47.0,-20.0,2014-08-07,False,colocated,right
58,621.4214,0,730,2058,2857,4205,601,10.0,200,0,1,621.8704,0,1,08_08_2014 level23_spatial_Clio 15_31 log.txt,37,37,1217,47.0,-20.0,2014-08-08,False,colocated,right
93,857.9239,0,730,2058,2857,4205,601,10.0,200,0,0,860.1849,1,1,06_08_2014 level23_spatial_Clio 15_42 log.txt,37,37,1217,47.0,-20.0,2014-08-06,False,colocated,right
74,861.9889,0,730,2058,2857,4205,701,10.0,200,0,0,862.5047,1,1,08_08_2014 level23_spatial_Clio 09_37 log.txt,37,37,1217,47.0,-20.0,2014-08-08,False,colocated,right
199,1568.8634,1,730,2058,2857,4205,801,10.0,200,0,1,1569.5997,0,1,06_08_2014 level23_spatial_Clio 15_42 log.txt,37,37,1217,47.0,-20.0,2014-08-06,False,colocated,right
117,1053.3584,0,730,2058,2857,4205,851,10.0,200,0,0,1054.2698,1,1,07_08_2014 level23_spatial_Clio 15_05 log.txt,37,37,1217,47.0,-20.0,2014-08-07,False,colocated,right
139,1286.2292,0,730,2058,2857,4205,701,10.0,200,0,1,1288.2416,0,1,08_08_2014 level23_spatial_Clio 15_31 log.txt,37,37,1217,47.0,-20.0,2014-08-08,False,colocated,right
199,1568.8634,1,730,2058,2857,4205,801,10.0,200,0,1,1569.5997,0,1,06_08_2014 level23_spatial_Clio 15_42 log.txt,37,37,1217,47.0,-20.0,2014-08-06,False,colocated,right
37,473.4716,0,730,2058,2857,4205,701,10.0,200,0,0,474.4207,1,1,08_08_2014 level23_spatial_Clio 15_31 log.txt,37,37,1217,47.0,-20.0,2014-08-08,False,colocated,right
74,861.9889,0,730,2058,2857,4205,701,10.0,200,0,0,862.5047,1,1,08_08_2014 level23_spatial_Clio 09_37 log.txt,37,37,1217,47.0,-20.0,2014-08-08,False,colocated,right
139,1286.2292,0,730,2058,2857,4205,701,10.0,200,0,1,1288.2416,0,1,08_08_2014 level23_spatial_Clio 15_31 log.txt,37,37,1217,47.0,-20.0,2014-08-08,False,colocated,right
58,621.4214,0,730,2058,2857,4205,601,10.0,200,0,1,621.8704,0,1,08_08_2014 level23_spatial_Clio 15_31 log.txt,37,37,1217,47.0,-20.0,2014-08-08,False,colocated,right
199,1568.8634,1,730,2058,2857,4205,801,10.0,200,0,1,1569.5997,0,1,06_08_2014 level23_spatial_Clio 15_42 log.txt,37,37,1217,47.0,-20.0,2014-08-06,False,colocated,right
98,934.8262,0,730,2058,2857,4205,751,10.0,200,0,0,935.8147,1,1,08_08_2014 level23_spatial_Clio 15_31 log.txt,37,37,1217,47.0,-20.0,2014-08-08,False,colocated,right
112,1011.5056,0,730,2058,2857,4205,851,10.0,200,0,1,1020.1194,0,1,07_08_2014 level23_spatial_Clio 15_05 log.txt,37,37,1217,47.0,-20.0,2014-08-07,False,colocated,right
93,857.9239,0,730,2058,2857,4205,601,10.0,200,0,0,860.1849,1,1,06_08_2014 level23_spatial_Clio 15_42 log.txt,37,37,1217,47.0,-20.0,2014-08-06,False,colocated,right
84,950.477,1,730,2058,2857,4205,1001,10.0,200,0,0,950.9975,1,1,07_08_2014 level23_spatial_Clio 09_14 log.txt,37,37,1217,47.0,-20.0,2014-08-07,False,colocated,right
132,1115.3054,0,730,2058,2857,4205,601,10.0,200,0,1,1115.7983,0,1,06_08_2014 level23_spatial_Clio 15_42 log.txt,37,37,1217,47.0,-20.0,2014-08-06,False,colocated,right
58,621.4214,0,730,2058,2857,4205,601,10.0,200,0,1,621.8704,0,1,08_08_2014 level23_spatial_Clio 15_31 log.txt,37,37,1217,47.0,-20.0,2014-08-08,False,colocated,right
96,876.7765,0,730,2058,2857,4205,651,10.0,200,0,1,877.2088,0,1,06_08_2014 level23_spatial_Clio 15_42 log.txt,37,37,1217,47.0,-20.0,2014-08-06,False,colocated,right
45,426.7603,1,730,2058,2857,4205,851,10.0,200,0,1,427.2754,0,1,07_08_2014 level23_spatial_Clio 15_05 log.txt,37,37,1217,47.0,-20.0,2014-08-07,False,colocated,right
74,861.9889,0,730,2058,2857,4205,701,10.0,200,0,0,862.5047,1,1,08_08_2014 level23_spatial_Clio 09_37 log.txt,37,37,1217,47.0,-20.0,2014-08-08,False,colocated,right
29,359.8245,0,730,2058,2857,4205,601,10.0,200,0,0,363.4627,1,1,07_08_2014 level23_spatial_Clio 09_14 log.txt,37,37,1217,47.0,-20.0,2014-08-07,False,colocated,right
13,191.2342,0,730,2058,2857,4205,951,10.0,200,0,0,192.3328,1,1,08_08_2014 level23_spatial_Clio 09_37 log.txt,37,37,1217,47.0,-20.0,2014-08-08,False,colocated,right
58,621.4214,0,730,2058,2857,4205,601,10.0,200,0,1,621.8704,0,1,08_08_2014 level23_spatial_Clio 15_31 log.txt,37,37,1217,47.0,-20.0,2014-08-08,False,colocated,right
65,574.5641,1,730,2058,2857,4205,951,10.0,200,0,0,579.0128,1,1,07_08_2014 level23_spatial_Clio 15_05 log.txt,37,37,1217,47.0,-20.0,2014-08-07,False,colocated,right
93,857.9239,0,730,2058,2857,4205,601,10.0,200,0,0,860.1849,1,1,06_08_2014 level23_spatial_Clio 15_42 log.txt,37,37,1217,47.0,-20.0,2014-08-06,False,colocated,right
120,1038.1181,0,730,2058,2857,4205,501,10.0,200,0,1,1038.8975,0,1,06_08_2014 level23_spatial_Clio 15_42 log.txt,37,37,1217,47.0,-20.0,2014-08-06,False,colocated,right
13,191.2342,0,730,2058,2857,4205,951,10.0,200,0,0,192.3328,1,1,08_08_2014 level23_spatial_Clio 09_37 log.txt,37,37,1217,47.0,-20.0,2014-08-08,False,colocated,right
20,264.527,1,730,2058,2857,4205,751,10.0,200,0,1,265.0677,0,1,07_08_2014 level23_spatial_Clio 09_14 log.txt,37,37,1217,47.0,-20.0,2014-08-07,False,colocated,right
139,1286.2292,0,730,2058,2857,4205,701,10.0,200,0,1,1288.2416,0,1,08_08_2014 level23_spatial_Clio 15_31 log.txt,37,37,1217,47.0,-20.0,2014-08-08,False,colocated,right
114,1094.5235,0,730,2058,2857,4205,751,10.0,200,0,1,1095.0538,0,1,08_08_2014 level23_spatial_Clio 15_31 log.txt,37,37,1217,47.0,-20.0,2014-08-08,False,colocated,right
127,1136.2379,0,730,2058,2857,4205,501,10.0,200,0,1,1137.1412,0,1,07_08_2014 level23_spatial_Clio 15_05 log.txt,37,37,1217,47.0,-20.0,2014-08-07,False,colocated,right
30,315.9362,0,730,2058,2857,4205,951,10.0,200,0,1,316.4346,0,1,07_08_2014 level23_spatial_Clio 15_05 log.txt,37,37,1217,47.0,-20.0,2014-08-07,False,colocated,right
156,1279.1525,0,730,2058,2857,4205,501,10.0,200,0,1,1279.9122,0,1,06_08_2014 level23_spatial_Clio 15_42 log.txt,37,37,1217,47.0,-20.0,2014-08-06,False,colocated,right
94,867.2596,0,730,2058,2857,4205,901,10.0,200,0,0,868.6931,1,1,07_08_2014 level23_spatial_Clio 15_05 log.txt,37,37,1217,47.0,-20.0,2014-08-07,False,colocated,right
6,126.2073,0,730,2058,2857,4205,951,10.0,200,0,0,127.5832,1,1,07_08_2014 level23_spatial_Clio 15_05 log.txt,37,37,1217,47.0,-20.0,2014-08-07,False,colocated,right
139,1286.2292,0,730,2058,2857,4205,701,10.0,200,0,1,1288.2416,0,1,08_08_2014 level23_spatial_Clio 15_31 log.txt,37,37,1217,47.0,-20.0,2014-08-08,False,colocated,right
151,1375.6077,0,730,2058,2857,4205,751,10.0,200,0,1,1376.2259,0,1,08_08_2014 level23_spatial_Clio 15_31 log.txt,37,37,1217,47.0,-20.0,2014-08-08,False,colocated,right
112,1011.5056,0,730,2058,2857,4205,851,10.0,200,0,1,1020.1194,0,1,07_08_2014 level23_spatial_Clio 15_05 log.txt,37,37,1217,47.0,-20.0,2014-08-07,False,colocated,right
94,867.2596,0,730,2058,2857,4205,901,10.0,200,0,0,868.6931,1,1,07_08_2014 level23_spatial_Clio 15_05 log.txt,37,37,1217,47.0,-20.0,2014-08-07,False,colocated,right
112,1011.5056,0,730,2058,2857,4205,851,10.0,200,0,1,1020.1194,0,1,07_08_2014 level23_spatial_Clio 15_05 log.txt,37,37,1217,47.0,-20.0,2014-08-07,False,colocated,right
64,759.6012,0,730,2058,2857,4205,751,10.0,200,0,0,760.4944,1,1,08_08_2014 level23_spatial_Clio 09_37 log.txt,37,37,1217,47.0,-20.0,2014-08-08,False,colocated,right
2,151.7528,1,730,2058,2857,4205,951,10.0,200,0,1,160.2589,0,1,08_08_2014 level23_spatial_Clio 15_31 log.txt,37,37,1217,47.0,-20.0,2014-08-08,False,colocated,right
199,1568.8634,1,730,2058,2857,4205,801,10.0,200,0,1,1569.5997,0,1,06_08_2014 level23_spatial_Clio 15_42 log.txt,37,37,1217,47.0,-20.0,2014-08-06,False,colocated,right
64,759.6012,0,730,2058,2857,4205,751,10.0,200,0,0,760.4944,1,1,08_08_2014 level23_spatial_Clio 09_37 log.txt,37,37,1217,47.0,-20.0,2014-08-08,False,colocated,right
98,934.8262,0,730,2058,2857,4205,751,10.0,200,0,0,935.8147,1,1,08_08_2014 level23_spatial_Clio 15_31 log.txt,37,37,1217,47.0,-20.0,2014-08-08,False,colocated,right
112,1011.5056,0,730,2058,2857,4205,851,10.0,200,0,1,1020.1194,0,1,07_08_2014 level23_spatial_Clio 15_05 log.txt,37,37,1217,47.0,-20.0,2014-08-07,False,colocated,right
139,1286.2292,0,730,2058,2857,4205,701,10.0,200,0,1,1288.2416,0,1,08_08_2014 level23_spatial_Clio 15_31 log.txt,37,37,1217,47.0,-20.0,2014-08-08,False,colocated,right
179,1413.2584,0,730,2058,2857,4205,701,10.0,200,0,1,1413.911,0,1,06_08_2014 level23_spatial_Clio 15_42 log.txt,37,37,1217,47.0,-20.0,2014-08-06,False,colocated,right
45,426.7603,1,730,2058,2857,4205,851,10.0,200,0,1,427.2754,0,1,07_08_2014 level23_spatial_Clio 15_05 log.txt,37,37,1217,47.0,-20.0,2014-08-07,False,colocated,right
17,241.8201,0,730,2058,2857,4205,851,10.0,200,0,1,242.51,0,1,07_08_2014 level23_spatial_Clio 09_14 log.txt,37,37,1217,47.0,-20.0,2014-08-07,False,colocated,right
65,574.5641,1,730,2058,2857,4205,951,10.0,200,0,0,579.0128,1,1,07_08_2014 level23_spatial_Clio 15_05 log.txt,37,37,1217,47.0,-20.0,2014-08-07,False,colocated,right
64,759.6012,0,730,2058,2857,4205,751,10.0,200,0,0,760.4944,1,1,08_08_2014 level23_spatial_Clio 09_37 log.txt,37,37,1217,47.0,-20.0,2014-08-08,False,colocated,right
156,1279.1525,0,730,2058,2857,4205,501,10.0,200,0,1,1279.9122,0,1,06_08_2014 level23_spatial_Clio 15_42 log.txt,37,37,1217,47.0,-20.0,2014-08-06,False,colocated,right
58,621.4214,0,730,2058,2857,4205,601,10.0,200,0,1,621.8704,0,1,08_08_2014 level23_spatial_Clio 15_31 log.txt,37,37,1217,47.0,-20.0,2014-08-08,False,colocated,right
120,1038.1181,0,730,2058,2857,4205,501,10.0,200,0,1,1038.8975,0,1,06_08_2014 level23_spatial_Clio 15_42 log.txt,37,37,1217,47.0,-20.0,2014-08-06,False,colocated,right
98,934.8262,0,730,2058,2857,4205,751,10.0,200,0,0,935.8147,1,1,08_08_2014 level23_spatial_Clio 15_31 log.txt,37,37,1217,47.0,-20.0,2014-08-08,False,colocated,right
6,126.2073,0,730,2058,2857,4205,951,10.0,200,0,0,127.5832,1,1,07_08_2014 level23_spatial_Clio 15_05 log.txt,37,37,1217,47.0,-20.0,2014-08-07,False,colocated,right
80,780.4043,0,730,2058,2857,4205,901,10.0,200,0,0,781.1399,1,1,06_08_2014 level23_spatial_Clio 15_42 log.txt,37,37,1217,47.0,-20.0,2014-08-06,False,colocated,right
29,359.8245,0,730,2058,2857,4205,601,10.0,200,0,0,363.4627,1,1,07_08_2014 level23_spatial_Clio 09_14 log.txt,37,37,1217,47.0,-20.0,2014-08-07,False,colocated,right
64,759.6012,0,730,2058,2857,4205,751,10.0,200,0,0,760.4944,1,1,08_08_2014 level23_spatial_Clio 09_37 log.txt,37,37,1217,47.0,-20.0,2014-08-08,False,colocated,right
74,861.9889,0,730,2058,2857,4205,701,10.0,200,0,0,862.5047,1,1,08_08_2014 level23_spatial_Clio 09_37 log.txt,37,37,1217,47.0,-20.0,2014-08-08,False,colocated,right
58,621.4214,0,730,2058,2857,4205,601,10.0,200,0,1,621.8704,0,1,08_08_2014 level23_spatial_Clio 15_31 log.txt,37,37,1217,47.0,-20.0,2014-08-08,False,colocated,right
30,315.9362,0,730,2058,2857,4205,951,10.0,200,0,1,316.4346,0,1,07_08_2014 level23_spatial_Clio 15_05 log.txt,37,37,1217,47.0,-20.0,2014-08-07,False,colocated,right
6,126.2073,0,730,2058,2857,4205,951,10.0,200,0,0,127.5832,1,1,07_08_2014 level23_spatial_Clio 15_05 log.txt,37,37,1217,47.0,-20.0,2014-08-07,False,colocated,right
174,1384.1215,0,730,2058,2857,4205,951,10.0,200,0,0,1385.4645,1,1,06_08_2014 level23_spatial_Clio 15_42 log.txt,37,37,1217,47.0,-20.0,2014-08-06,False,colocated,right
13,191.2342,0,730,2058,2857,4205,951,10.0,200,0,0,192.3328,1,1,08_08_2014 level23_spatial_Clio 09_37 log.txt,37,37,1217,47.0,-20.0,2014-08-08,False,colocated,right
69,618.0487,0,730,2058,2857,4205,851,10.0,200,0,1,618.4702,0,1,07_08_2014 level23_spatial_Clio 15_05 log.txt,37,37,1217,47.0,-20.0,2014-08-07,False,colocated,right
132,1115.3054,0,730,2058,2857,4205,601,10.0,200,0,1,1115.7983,0,1,06_08_2014 level23_spatial_Clio 15_42 log.txt,37,37,1217,47.0,-20.0,2014-08-06,False,colocated,right
95,913.418,0,730,2058,2857,4205,551,10.0,200,0,1,914.3942,0,1,08_08_2014 level23_spatial_Clio 15_31 log.txt,37,37,1217,47.0,-20.0,2014-08-08,False,colocated,right
7,150.3537,0,730,2058,2857,4205,701,10.0,200,0,0,151.7736,1,1,06_08_2014 level23_spatial_Clio 15_42 log.txt,37,37,1217,47.0,-20.0,2014-08-06,False,colocated,right
40,492.4705,0,730,2058,2857,4205,951,10.0,200,0,1,494.4495,0,1,08_08_2014 level23_spatial_Clio 09_37 log.txt,37,37,1217,47.0,-20.0,2014-08-08,False,colocated,right
95,913.418,0,730,2058,2857,4205,551,10.0,200,0,1,914.3942,0,1,08_08_2014 level23_spatial_Clio 15_31 log.txt,37,37,1217,47.0,-20.0,2014-08-08,False,colocated,right
132,1115.3054,0,730,2058,2857,4205,601,10.0,200,0,1,1115.7983,0,1,06_08_2014 level23_spatial_Clio 15_42 log.txt,37,37,1217,47.0,-20.0,2014-08-06,False,colocated,right
127,1136.2379,0,730,2058,2857,4205,501,10.0,200,0,1,1137.1412,0,1,07_08_2014 level23_spatial_Clio 15_05 log.txt,37,37,1217,47.0,-20.0,2014-08-07,False,colocated,right
13,191.2342,0,730,2058,2857,4205,951,10.0,200,0,0,192.3328,1,1,08_08_2014 level23_spatial_Clio 09_37 log.txt,37,37,1217,47.0,-20.0,2014-08-08,False,colocated,right
44,367.33,0,460,1105,2857,4205,751,-15.0,200,1,1,368.3431,1,0,09_01_2014 level23_spatial_Clio 10_52 Block3-59.txt,37,37,1217,72.0,5.0,2014-01-09,False,colocated,left
111,1106.8967,0,460,1105,2857,4205,901,-15.0,200,1,1,1107.1875,1,0,25_06_2014 level23_spatial_Clio 09_22 Block6-11.txt,37,37,1217,72.0,5.0,2014-06-25,False,colocated,left
9,101.6675,0,460,1105,2857,4205,1001,-15.0,200,1,0,103.0118,0,0,18_07_2014 level23_spatial_Clio 15_56 log.txt,37,37,1217,72.0,5.0,2014-07-18,False,colocated,left
164,1640.0964,1,460,1105,2857,4205,501,-15.0,200,1,1,1640.5743,1,0,18_07_2014 level23_spatial_Clio 15_56 log.txt,37,37,1217,72.0,5.0,2014-07-18,False,colocated,left
9,113.808,0,460,1105,2857,4205,951,-15.0,200,1,0,114.1959,0,0,17_07_2014 level23_spatial_Clio 10_01 log.txt,37,37,1217,72.0,5.0,2014-07-17,False,colocated,left
50,577.6313,0,460,1105,2857,4205,701,-15.0,200,1,0,578.724,0,0,17_07_2014 level23_spatial_Clio 14_56 log.txt,37,37,1217,72.0,5.0,2014-07-17,False,colocated,left
27,231.4362,0,460,1105,2857,4205,651,-15.0,200,1,0,231.917,0,0,19_03_2014 level23_spatial_Clio 14_51 Block4-28.txt,37,37,1217,72.0,5.0,2014-03-19,False,colocated,left
27,231.4362,0,460,1105,2857,4205,651,-15.0,200,1,0,231.917,0,0,19_03_2014 level23_spatial_Clio 14_51 Block4-28.txt,37,37,1217,72.0,5.0,2014-03-19,False,colocated,left
202,1364.2154,0,460,1105,2857,4205,751,-15.0,200,1,1,1365.239,1,0,04_04_2014 level23_spatial_Clio 14_47 Block4-52.txt,37,37,1217,72.0,5.0,2014-04-04,False,colocated,left
89,1002.9172,0,460,1105,2857,4205,701,-15.0,200,1,0,1004.4805,0,0,10_07_2014 level23_spatial_Clio 11_08 Block6-21.txt,37,37,1217,72.0,5.0,2014-07-10,False,colocated,left
111,1106.8967,0,460,1105,2857,4205,901,-15.0,200,1,1,1107.1875,1,0,25_06_2014 level23_spatial_Clio 09_22 Block6-11.txt,37,37,1217,72.0,5.0,2014-06-25,False,colocated,left
117,1194.4867,0,460,1105,2857,4205,951,-15.0,200,1,1,1194.8338,1,0,18_07_2014 level23_spatial_Clio 15_56 log.txt,37,37,1217,72.0,5.0,2014-07-18,False,colocated,left
85,570.8128,0,460,1105,2857,4205,901,-15.0,200,1,1,571.1617,1,0,29_04_2014 level23_spatial_Clio 10_03 Block5-13.txt,37,37,1217,72.0,5.0,2014-04-29,False,colocated,left
115,836.325,0,460,1105,2857,4205,1001,-15.0,200,1,1,836.7086,1,0,08_05_2014 level23_spatial_Clio 10_23 Block5-27.txt,37,37,1217,72.0,5.0,2014-05-08,False,colocated,left
135,921.2705,0,460,1105,2857,4205,951,-15.0,200,1,1,921.8572,1,0,04_04_2014 level23_spatial_Clio 14_47 Block4-52.txt,37,37,1217,72.0,5.0,2014-04-04,False,colocated,left
129,804.8357,0,460,1105,2857,4205,751,-15.0,200,1,1,805.171,1,0,19_03_2014 level23_spatial_Clio 09_43 Block4-27.txt,37,37,1217,72.0,5.0,2014-03-19,False,colocated,left
118,1165.283,0,460,1105,2857,4205,651,-15.0,200,1,1,1165.7182,1,0,25_06_2014 level23_spatial_Clio 09_22 Block6-11.txt,37,37,1217,72.0,5.0,2014-06-25,False,colocated,left
114,829.7791,0,460,1105,2857,4205,901,-15.0,200,1,1,830.2735,1,0,08_05_2014 level23_spatial_Clio 10_23 Block5-27.txt,37,37,1217,72.0,5.0,2014-05-08,False,colocated,left
36,292.3605,0,460,1105,2857,4205,901,-15.0,200,1,1,292.6348,1,0,08_05_2014 level23_spatial_Clio 10_23 Block5-27.txt,37,37,1217,72.0,5.0,2014-05-08,False,colocated,left
198,1338.3063,0,460,1105,2857,4205,601,-15.0,200,1,1,1339.1316,1,0,04_04_2014 level23_spatial_Clio 14_47 Block4-52.txt,37,37,1217,72.0,5.0,2014-04-04,False,colocated,left
41,343.0388,1,460,1105,2857,4205,951,-15.0,200,1,0,348.3672,0,0,09_01_2014 level23_spatial_Clio 10_52 Block3-59.txt,37,37,1217,72.0,5.0,2014-01-09,False,colocated,left
114,1118.1807,0,460,1105,2857,4205,1001,-15.0,200,1,1,1118.7211,1,0,17_07_2014 level23_spatial_Clio 14_56 log.txt,37,37,1217,72.0,5.0,2014-07-17,False,colocated,left
12,91.0301,0,460,1105,2857,4205,701,-15.0,200,1,1,91.6534,1,0,04_04_2014 level23_spatial_Clio 14_47 Block4-52.txt,37,37,1217,72.0,5.0,2014-04-04,False,colocated,left
54,361.5289,0,460,1105,2857,4205,801,-15.0,200,1,0,362.1537,0,0,20_03_2014 level23_spatial_Clio 09_42 Block4-29.txt,37,37,1217,72.0,5.0,2014-03-20,False,colocated,left
34,335.6345,0,460,1105,2857,4205,851,-15.0,200,1,1,336.1251,1,0,07_02_2014 level23_spatial_Clio 09_53 Block4-22.txt,37,37,1217,72.0,5.0,2014-02-07,False,colocated,left
30,198.0858,0,460,1105,2857,4205,951,-15.0,200,1,0,199.6778,0,0,29_04_2014 level23_spatial_Clio 10_03 Block5-13.txt,37,37,1217,72.0,5.0,2014-04-29,False,colocated,left
20,180.2583,0,460,1105,2857,4205,501,-15.0,200,1,0,181.8025,0,0,09_01_2014 level23_spatial_Clio 10_52 Block3-59.txt,37,37,1217,72.0,5.0,2014-01-09,False,colocated,left
59,381.9742,0,460,1105,2857,4205,651,-15.0,200,1,0,382.6722,0,0,19_03_2014 level23_spatial_Clio 09_43 Block4-27.txt,37,37,1217,72.0,5.0,2014-03-19,False,colocated,left
43,360.2679,0,460,1105,2857,4205,1001,-15.0,200,1,1,361.3801,1,0,09_01_2014 level23_spatial_Clio 10_52 Block3-59.txt,37,37,1217,72.0,5.0,2014-01-09,False,colocated,left
133,760.8244,0,460,1105,2857,4205,551,-15.0,200,1,1,761.3242,1,0,04_04_2014 level23_spatial_Clio 09_31 Block4-51.txt,37,37,1217,72.0,5.0,2014-04-04,False,colocated,left
156,1102.8833,0,460,1105,2857,4205,851,-15.0,200,1,1,1103.2916,1,0,08_05_2014 level23_spatial_Clio 10_23 Block5-27.txt,37,37,1217,72.0,5.0,2014-05-08,False,colocated,left
86,624.8975,0,460,1105,2857,4205,1001,-15.0,200,1,0,625.0888,0,0,09_01_2014 level23_spatial_Clio 10_52 Block3-59.txt,37,37,1217,72.0,5.0,2014-01-09,False,colocated,left
48,288.4785,1,460,1105,2857,4205,701,-15.0,200,1,0,288.8559,0,0,11_06_2014 level23_spatial_Clio 14_47 Block5-67.txt,37,37,1217,72.0,5.0,2014-06-11,False,colocated,left
42,358.4001,1,460,1105,2857,4205,1001,-15.0,200,1,0,359.6463,0,0,26_03_2014 level23_spatial_Clio 11_05 Block4-37.txt,37,37,1217,72.0,5.0,2014-03-26,False,colocated,left
2,15.5058,0,460,1105,2857,4205,801,-15.0,200,1,1,15.9907,1,0,04_04_2014 level23_spatial_Clio 14_47 Block4-52.txt,37,37,1217,72.0,5.0,2014-04-04,False,colocated,left
111,1106.8967,0,460,1105,2857,4205,901,-15.0,200,1,1,1107.1875,1,0,25_06_2014 level23_spatial_Clio 09_22 Block6-11.txt,37,37,1217,72.0,5.0,2014-06-25,False,colocated,left
123,1294.5307,0,460,1105,2857,4205,651,-15.0,200,1,1,1294.8704,1,0,10_07_2014 level23_spatial_Clio 11_08 Block6-21.txt,37,37,1217,72.0,5.0,2014-07-10,False,colocated,left
46,413.491,0,460,1105,2857,4205,701,-15.0,200,1,1,414.396,1,0,26_03_2014 level23_spatial_Clio 11_05 Block4-37.txt,37,37,1217,72.0,5.0,2014-03-26,False,colocated,left
154,1094.778,0,460,1105,2857,4205,651,-15.0,200,1,1,1095.3299,1,0,08_05_2014 level23_spatial_Clio 10_23 Block5-27.txt,37,37,1217,72.0,5.0,2014-05-08,False,colocated,left
78,747.6547,0,460,1105,2857,4205,951,-15.0,200,1,1,748.0884,1,0,07_02_2014 level23_spatial_Clio 09_53 Block4-22.txt,37,37,1217,72.0,5.0,2014-02-07,False,colocated,left
74,562.4673,0,460,1105,2857,4205,651,-15.0,200,1,1,562.8267,1,0,08_05_2014 level23_spatial_Clio 10_23 Block5-27.txt,37,37,1217,72.0,5.0,2014-05-08,False,colocated,left
35,248.0254,0,460,1105,2857,4205,751,-15.0,200,1,0,248.7219,0,0,04_04_2014 level23_spatial_Clio 09_31 Block4-51.txt,37,37,1217,72.0,5.0,2014-04-04,False,colocated,left
120,696.6844,0,460,1105,2857,4205,801,-15.0,200,1,1,697.3165,1,0,04_04_2014 level23_spatial_Clio 09_31 Block4-51.txt,37,37,1217,72.0,5.0,2014-04-04,False,colocated,left
140,1320.6949,0,460,1105,2857,4205,701,-15.0,200,1,1,1321.6145,1,0,17_07_2014 level23_spatial_Clio 14_56 log.txt,37,37,1217,72.0,5.0,2014-07-17,False,colocated,left
184,1239.7942,0,460,1105,2857,4205,501,-15.0,200,1,1,1243.3492,1,0,04_04_2014 level23_spatial_Clio 14_47 Block4-52.txt,37,37,1217,72.0,5.0,2014-04-04,False,colocated,left
21,278.3584,0,460,1105,2857,4205,651,-15.0,200,1,0,278.745,0,0,10_07_2014 level23_spatial_Clio 11_08 Block6-21.txt,37,37,1217,72.0,5.0,2014-07-10,False,colocated,left
154,1094.778,0,460,1105,2857,4205,651,-15.0,200,1,1,1095.3299,1,0,08_05_2014 level23_spatial_Clio 10_23 Block5-27.txt,37,37,1217,72.0,5.0,2014-05-08,False,colocated,left
89,1002.9172,0,460,1105,2857,4205,701,-15.0,200,1,0,1004.4805,0,0,10_07_2014 level23_spatial_Clio 11_08 Block6-21.txt,37,37,1217,72.0,5.0,2014-07-10,False,colocated,left
49,321.8466,0,460,1105,2857,4205,951,-15.0,200,1,1,322.3515,1,0,19_03_2014 level23_spatial_Clio 09_43 Block4-27.txt,37,37,1217,72.0,5.0,2014-03-19,False,colocated,left
46,435.4821,0,460,1105,2857,4205,651,-15.0,200,1,1,436.0888,1,0,18_07_2014 level23_spatial_Clio 10_14 log.txt,37,37,1217,72.0,5.0,2014-07-18,False,colocated,left
38,260.7207,1,460,1105,2857,4205,601,-15.0,200,1,1,261.347,1,0,20_03_2014 level23_spatial_Clio 09_42 Block4-29.txt,37,37,1217,72.0,5.0,2014-03-20,False,colocated,left
76,792.7366,0,460,1105,2857,4205,801,-15.0,200,1,1,793.0858,1,0,17_07_2014 level23_spatial_Clio 14_56 log.txt,37,37,1217,72.0,5.0,2014-07-17,False,colocated,left
202,1364.2154,0,460,1105,2857,4205,751,-15.0,200,1,1,1365.239,1,0,04_04_2014 level23_spatial_Clio 14_47 Block4-52.txt,37,37,1217,72.0,5.0,2014-04-04,False,colocated,left
63,480.988,0,460,1105,2857,4205,651,-15.0,200,1,0,482.258,0,0,09_01_2014 level23_spatial_Clio 10_52 Block3-59.txt,37,37,1217,72.0,5.0,2014-01-09,False,colocated,left
42,404.7036,0,460,1105,2857,4205,751,-15.0,200,1,0,405.6033,0,0,18_07_2014 level23_spatial_Clio 10_14 log.txt,37,37,1217,72.0,5.0,2014-07-18,False,colocated,left
75,476.368,0,460,1105,2857,4205,951,-15.0,200,1,0,477.183,0,0,19_03_2014 level23_spatial_Clio 09_43 Block4-27.txt,37,37,1217,72.0,5.0,2014-03-19,False,colocated,left
130,809.514,0,460,1105,2857,4205,1001,-15.0,200,1,0,810.0848,0,0,19_03_2014 level23_spatial_Clio 09_43 Block4-27.txt,37,37,1217,72.0,5.0,2014-03-19,False,colocated,left
78,513.5432,0,460,1105,2857,4205,651,-15.0,200,1,1,515.6191,1,0,14_05_2014 level23_spatial_Clio 10_19 log.txt,37,37,1217,72.0,5.0,2014-05-14,False,colocated,left
75,497.2154,0,460,1105,2857,4205,701,-15.0,200,1,0,498.1429,0,0,14_05_2014 level23_spatial_Clio 10_19 log.txt,37,37,1217,72.0,5.0,2014-05-14,False,colocated,left
124,1205.4082,0,460,1105,2857,4205,901,-15.0,200,1,1,1207.934,1,0,25_06_2014 level23_spatial_Clio 09_22 Block6-11.txt,37,37,1217,72.0,5.0,2014-06-25,False,colocated,left
109,1062.0895,0,460,1105,2857,4205,801,-15.0,200,1,1,1062.4714,1,0,17_07_2014 level23_spatial_Clio 14_56 log.txt,37,37,1217,72.0,5.0,2014-07-17,False,colocated,left
141,975.6203,0,460,1105,2857,4205,501,-15.0,200,1,1,976.3842,1,0,09_01_2014 level23_spatial_Clio 10_52 Block3-59.txt,37,37,1217,72.0,5.0,2014-01-09,False,colocated,left
86,836.0289,0,460,1105,2857,4205,651,-15.0,200,1,1,836.562,1,0,07_02_2014 level23_spatial_Clio 09_53 Block4-22.txt,37,37,1217,72.0,5.0,2014-02-07,False,colocated,left
109,1062.0895,0,460,1105,2857,4205,801,-15.0,200,1,1,1062.4714,1,0,17_07_2014 level23_spatial_Clio 14_56 log.txt,37,37,1217,72.0,5.0,2014-07-17,False,colocated,left
9,101.6675,0,460,1105,2857,4205,1001,-15.0,200,1,0,103.0118,0,0,18_07_2014 level23_spatial_Clio 15_56 log.txt,37,37,1217,72.0,5.0,2014-07-18,False,colocated,left
96,631.3943,0,460,1105,2857,4205,701,-15.0,200,1,1,631.8017,1,0,29_04_2014 level23_spatial_Clio 10_03 Block5-13.txt,37,37,1217,72.0,5.0,2014-04-29,False,colocated,left
34,241.2965,0,460,1105,2857,4205,551,-15.0,200,1,1,241.6011,1,0,29_04_2014 level23_spatial_Clio 10_03 Block5-13.txt,37,37,1217,72.0,5.0,2014-04-29,False,colocated,left
140,1320.6949,0,460,1105,2857,4205,701,-15.0,200,1,1,1321.6145,1,0,17_07_2014 level23_spatial_Clio 14_56 log.txt,37,37,1217,72.0,5.0,2014-07-17,False,colocated,left
81,598.293,0,460,1105,2857,4205,901,-15.0,200,1,1,598.4898,1,0,09_01_2014 level23_spatial_Clio 10_52 Block3-59.txt,37,37,1217,72.0,5.0,2014-01-09,False,colocated,left
21,191.6914,0,460,1105,2857,4205,901,-15.0,200,1,1,193.1114,1,0,19_03_2014 level23_spatial_Clio 14_51 Block4-28.txt,37,37,1217,72.0,5.0,2014-03-19,False,colocated,left
80,645.3653,0,460,1105,2857,4205,901,-15.0,200,1,1,645.6394,1,0,26_03_2014 level23_spatial_Clio 11_05 Block4-37.txt,37,37,1217,72.0,5.0,2014-03-26,False,colocated,left
44,296.1679,0,460,1105,2857,4205,751,-15.0,200,1,0,296.4891,0,0,04_04_2014 level23_spatial_Clio 09_31 Block4-51.txt,37,37,1217,72.0,5.0,2014-04-04,False,colocated,left
20,130.1983,0,460,1105,2857,4205,801,-15.0,200,1,0,130.4071,0,0,11_06_2014 level23_spatial_Clio 14_47 Block5-67.txt,37,37,1217,72.0,5.0,2014-06-11,False,colocated,left
151,1429.8577,0,460,1105,2857,4205,901,-15.0,200,1,1,1430.5701,1,0,17_07_2014 level23_spatial_Clio 14_56 log.txt,37,37,1217,72.0,5.0,2014-07-17,False,colocated,left
62,655.7873,0,460,1105,2857,4205,601,-15.0,200,1,1,656.1711,1,0,25_06_2014 level23_spatial_Clio 09_22 Block6-11.txt,37,37,1217,72.0,5.0,2014-06-25,False,colocated,left
27,231.4362,0,460,1105,2857,4205,651,-15.0,200,1,0,231.917,0,0,19_03_2014 level23_spatial_Clio 14_51 Block4-28.txt,37,37,1217,72.0,5.0,2014-03-19,False,colocated,left
10,122.3063,0,460,1105,2857,4205,851,-15.0,200,1,0,124.1795,0,0,17_07_2014 level23_spatial_Clio 14_56 log.txt,37,37,1217,72.0,5.0,2014-07-17,False,colocated,left
154,1094.778,0,460,1105,2857,4205,651,-15.0,200,1,1,1095.3299,1,0,08_05_2014 level23_spatial_Clio 10_23 Block5-27.txt,37,37,1217,72.0,5.0,2014-05-08,False,colocated,left
12,91.0301,0,460,1105,2857,4205,701,-15.0,200,1,1,91.6534,1,0,04_04_2014 level23_spatial_Clio 14_47 Block4-52.txt,37,37,1217,72.0,5.0,2014-04-04,False,colocated,left
56,341.1964,0,460,1105,2857,4205,801,-15.0,200,1,1,341.3703,1,0,11_06_2014 level23_spatial_Clio 14_47 Block5-67.txt,37,37,1217,72.0,5.0,2014-06-11,False,colocated,left
42,358.4001,1,460,1105,2857,4205,1001,-15.0,200,1,0,359.6463,0,0,26_03_2014 level23_spatial_Clio 11_05 Block4-37.txt,37,37,1217,72.0,5.0,2014-03-26,False,colocated,left
124,1205.4082,0,460,1105,2857,4205,901,-15.0,200,1,1,1207.934,1,0,25_06_2014 level23_spatial_Clio 09_22 Block6-11.txt,37,37,1217,72.0,5.0,2014-06-25,False,colocated,left
33,269.4715,0,460,1105,2857,4205,751,-15.0,200,1,0,269.9594,0,0,19_03_2014 level23_spatial_Clio 14_51 Block4-28.txt,37,37,1217,72.0,5.0,2014-03-19,False,colocated,left
35,248.0254,0,460,1105,2857,4205,751,-15.0,200,1,0,248.7219,0,0,04_04_2014 level23_spatial_Clio 09_31 Block4-51.txt,37,37,1217,72.0,5.0,2014-04-04,False,colocated,left
175,1103.223,0,460,1105,2857,4205,551,-15.0,200,1,1,1104.1342,1,0,19_03_2014 level23_spatial_Clio 09_43 Block4-27.txt,37,37,1217,72.0,5.0,2014-03-19,False,colocated,left
43,360.2679,0,460,1105,2857,4205,1001,-15.0,200,1,1,361.3801,1,0,09_01_2014 level23_spatial_Clio 10_52 Block3-59.txt,37,37,1217,72.0,5.0,2014-01-09,False,colocated,left
34,241.2965,0,460,1105,2857,4205,551,-15.0,200,1,1,241.6011,1,0,29_04_2014 level23_spatial_Clio 10_03 Block5-13.txt,37,37,1217,72.0,5.0,2014-04-29,False,colocated,left
82,540.8663,0,460,1105,2857,4205,1001,-15.0,200,1,1,541.1903,1,0,14_05_2014 level23_spatial_Clio 10_19 log.txt,37,37,1217,72.0,5.0,2014-05-14,False,colocated,left
3,38.9245,0,730,2058,2857,4205,601,-15.0,200,0,0,39.6077,1,0,17_07_2014 level23_spatial_Clio 14_56 log.txt,37,37,1217,72.0,5.0,2014-07-17,False,colocated,left
143,940.2603,0,730,2058,2857,4205,751,-15.0,200,0,1,940.7218,0,0,20_03_2014 level23_spatial_Clio 09_42 Block4-29.txt,37,37,1217,72.0,5.0,2014-03-20,False,colocated,left
31,249.822,0,730,2058,2857,4205,701,-15.0,200,0,0,250.0439,1,0,14_05_2014 level23_spatial_Clio 10_19 log.txt,37,37,1217,72.0,5.0,2014-05-14,False,colocated,left
44,330.0531,0,730,2058,2857,4205,901,-15.0,200,0,1,330.7359,0,0,14_05_2014 level23_spatial_Clio 10_19 log.txt,37,37,1217,72.0,5.0,2014-05-14,False,colocated,left
91,889.6365,0,730,2058,2857,4205,901,-15.0,200,0,0,890.5169,1,0,07_02_2014 level23_spatial_Clio 09_53 Block4-22.txt,37,37,1217,72.0,5.0,2014-02-07,False,colocated,left
75,569.4996,0,730,2058,2857,4205,801,-15.0,200,0,0,570.117,1,0,08_05_2014 level23_spatial_Clio 10_23 Block5-27.txt,37,37,1217,72.0,5.0,2014-05-08,False,colocated,left
74,549.9475,0,730,2058,2857,4205,751,-15.0,200,0,0,550.6528,1,0,09_01_2014 level23_spatial_Clio 10_52 Block3-59.txt,37,37,1217,72.0,5.0,2014-01-09,False,colocated,left
69,470.0033,0,730,2058,2857,4205,851,-15.0,200,0,0,470.2836,1,0,14_05_2014 level23_spatial_Clio 10_19 log.txt,37,37,1217,72.0,5.0,2014-05-14,False,colocated,left
73,544.3009,0,730,2058,2857,4205,701,-15.0,200,0,0,544.8191,1,0,09_01_2014 level23_spatial_Clio 10_52 Block3-59.txt,37,37,1217,72.0,5.0,2014-01-09,False,colocated,left
122,852.3804,0,730,2058,2857,4205,701,-15.0,200,0,0,853.0715,1,0,09_01_2014 level23_spatial_Clio 10_52 Block3-59.txt,37,37,1217,72.0,5.0,2014-01-09,False,colocated,left
105,664.4267,1,730,2058,2857,4205,551,-15.0,200,0,0,664.9417,1,0,14_05_2014 level23_spatial_Clio 10_19 log.txt,37,37,1217,72.0,5.0,2014-05-14,False,colocated,left
129,1256.2879,0,730,2058,2857,4205,1001,-15.0,200,0,0,1256.9728,1,0,25_06_2014 level23_spatial_Clio 09_22 Block6-11.txt,37,37,1217,72.0,5.0,2014-06-25,False,colocated,left
174,1173.1966,1,730,2058,2857,4205,501,-15.0,200,0,0,1174.715,1,0,04_04_2014 level23_spatial_Clio 14_47 Block4-52.txt,37,37,1217,72.0,5.0,2014-04-04,False,colocated,left
97,702.2953,0,730,2058,2857,4205,801,-15.0,200,0,0,702.8777,1,0,04_04_2014 level23_spatial_Clio 14_47 Block4-52.txt,37,37,1217,72.0,5.0,2014-04-04,False,colocated,left
77,551.2847,0,730,2058,2857,4205,501,-15.0,200,0,1,552.1393,0,0,04_04_2014 level23_spatial_Clio 14_47 Block4-52.txt,37,37,1217,72.0,5.0,2014-04-04,False,colocated,left
184,1784.7345,0,730,2058,2857,4205,751,-15.0,200,0,1,1786.8762,0,0,18_07_2014 level23_spatial_Clio 15_56 log.txt,37,37,1217,72.0,5.0,2014-07-18,False,colocated,left
160,1616.9178,0,730,2058,2857,4205,851,-15.0,200,0,0,1617.9937,1,0,18_07_2014 level23_spatial_Clio 15_56 log.txt,37,37,1217,72.0,5.0,2014-07-18,False,colocated,left
68,697.6682,0,730,2058,2857,4205,651,-15.0,200,0,0,698.438,1,0,17_07_2014 level23_spatial_Clio 14_56 log.txt,37,37,1217,72.0,5.0,2014-07-17,False,colocated,left
74,549.9475,0,730,2058,2857,4205,751,-15.0,200,0,0,550.6528,1,0,09_01_2014 level23_spatial_Clio 10_52 Block3-59.txt,37,37,1217,72.0,5.0,2014-01-09,False,colocated,left
103,1133.1552,0,730,2058,2857,4205,501,-15.0,200,0,0,1133.7418,1,0,10_07_2014 level23_spatial_Clio 11_08 Block6-21.txt,37,37,1217,72.0,5.0,2014-07-10,False,colocated,left
52,614.2146,0,730,2058,2857,4205,551,-15.0,200,0,0,614.8019,1,0,10_07_2014 level23_spatial_Clio 11_08 Block6-21.txt,37,37,1217,72.0,5.0,2014-07-10,False,colocated,left
15,171.0521,0,730,2058,2857,4205,501,-15.0,200,0,0,171.9325,1,0,07_02_2014 level23_spatial_Clio 09_53 Block4-22.txt,37,37,1217,72.0,5.0,2014-02-07,False,colocated,left
84,605.5692,1,730,2058,2857,4205,751,-15.0,200,0,0,607.3016,1,0,04_04_2014 level23_spatial_Clio 14_47 Block4-52.txt,37,37,1217,72.0,5.0,2014-04-04,False,colocated,left
26,189.856,0,730,2058,2857,4205,1001,-15.0,200,0,0,190.1856,1,0,20_03_2014 level23_spatial_Clio 09_42 Block4-29.txt,37,37,1217,72.0,5.0,2014-03-20,False,colocated,left
71,677.2607,0,730,2058,2857,4205,551,-15.0,200,0,0,677.8653,1,0,07_02_2014 level23_spatial_Clio 09_53 Block4-22.txt,37,37,1217,72.0,5.0,2014-02-07,False,colocated,left
143,978.6142,0,730,2058,2857,4205,751,-15.0,200,0,0,979.3292,1,0,04_04_2014 level23_spatial_Clio 14_47 Block4-52.txt,37,37,1217,72.0,5.0,2014-04-04,False,colocated,left
34,242.9067,0,730,2058,2857,4205,501,-15.0,200,0,0,244.1946,1,0,04_04_2014 level23_spatial_Clio 09_31 Block4-51.txt,37,37,1217,72.0,5.0,2014-04-04,False,colocated,left
108,1100.6959,0,730,2058,2857,4205,751,-15.0,200,0,0,1102.216,1,0,18_07_2014 level23_spatial_Clio 15_56 log.txt,37,37,1217,72.0,5.0,2014-07-18,False,colocated,left
46,310.4258,0,730,2058,2857,4205,801,-15.0,200,0,0,310.8767,1,0,04_04_2014 level23_spatial_Clio 09_31 Block4-51.txt,37,37,1217,72.0,5.0,2014-04-04,False,colocated,left
97,651.1482,0,730,2058,2857,4205,701,-15.0,200,0,0,655.316,1,0,20_03_2014 level23_spatial_Clio 09_42 Block4-29.txt,37,37,1217,72.0,5.0,2014-03-20,False,colocated,left
22,140.0073,1,730,2058,2857,4205,701,-15.0,200,0,0,140.3103,1,0,11_06_2014 level23_spatial_Clio 14_47 Block5-67.txt,37,37,1217,72.0,5.0,2014-06-11,False,colocated,left
115,758.7011,0,730,2058,2857,4205,901,-15.0,200,0,0,759.0944,1,0,29_04_2014 level23_spatial_Clio 10_03 Block5-13.txt,37,37,1217,72.0,5.0,2014-04-29,False,colocated,left
77,551.2847,0,730,2058,2857,4205,501,-15.0,200,0,1,552.1393,0,0,04_04_2014 level23_spatial_Clio 14_47 Block4-52.txt,37,37,1217,72.0,5.0,2014-04-04,False,colocated,left
75,569.4996,0,730,2058,2857,4205,801,-15.0,200,0,0,570.117,1,0,08_05_2014 level23_spatial_Clio 10_23 Block5-27.txt,37,37,1217,72.0,5.0,2014-05-08,False,colocated,left
162,1086.1142,0,730,2058,2857,4205,501,-15.0,200,0,0,1088.4606,1,0,04_04_2014 level23_spatial_Clio 14_47 Block4-52.txt,37,37,1217,72.0,5.0,2014-04-04,False,colocated,left
143,940.2603,0,730,2058,2857,4205,751,-15.0,200,0,1,940.7218,0,0,20_03_2014 level23_spatial_Clio 09_42 Block4-29.txt,37,37,1217,72.0,5.0,2014-03-20,False,colocated,left
1,5.2558,0,730,2058,2857,4205,651,-15.0,200,0,0,5.9287,1,0,09_01_2014 level23_spatial_Clio 10_52 Block3-59.txt,37,37,1217,72.0,5.0,2014-01-09,False,colocated,left
178,1120.5514,0,730,2058,2857,4205,601,-15.0,200,0,0,1121.6099,1,0,19_03_2014 level23_spatial_Clio 09_43 Block4-27.txt,37,37,1217,72.0,5.0,2014-03-19,False,colocated,left
53,459.7385,0,730,2058,2857,4205,1001,-15.0,200,0,0,461.6831,1,0,26_03_2014 level23_spatial_Clio 11_05 Block4-37.txt,37,37,1217,72.0,5.0,2014-03-26,False,colocated,left
70,671.419,0,730,2058,2857,4205,601,-15.0,200,0,0,672.5029,1,0,07_02_2014 level23_spatial_Clio 09_53 Block4-22.txt,37,37,1217,72.0,5.0,2014-02-07,False,colocated,left
20,169.7434,0,730,2058,2857,4205,701,-15.0,200,0,1,172.1748,0,0,26_03_2014 level23_spatial_Clio 11_05 Block4-37.txt,37,37,1217,72.0,5.0,2014-03-26,False,colocated,left
26,243.4126,0,730,2058,2857,4205,851,-15.0,200,0,0,244.0916,1,0,18_07_2014 level23_spatial_Clio 10_14 log.txt,37,37,1217,72.0,5.0,2014-07-18,False,colocated,left
15,171.0521,0,730,2058,2857,4205,501,-15.0,200,0,0,171.9325,1,0,07_02_2014 level23_spatial_Clio 09_53 Block4-22.txt,37,37,1217,72.0,5.0,2014-02-07,False,colocated,left
184,1784.7345,0,730,2058,2857,4205,751,-15.0,200,0,1,1786.8762,0,0,18_07_2014 level23_spatial_Clio 15_56 log.txt,37,37,1217,72.0,5.0,2014-07-18,False,colocated,left
70,671.419,0,730,2058,2857,4205,601,-15.0,200,0,0,672.5029,1,0,07_02_2014 level23_spatial_Clio 09_53 Block4-22.txt,37,37,1217,72.0,5.0,2014-02-07,False,colocated,left
35,238.25,0,730,2058,2857,4205,751,-15.0,200,0,0,238.5878,1,0,19_03_2014 level23_spatial_Clio 09_43 Block4-27.txt,37,37,1217,72.0,5.0,2014-03-19,False,colocated,left
123,856.9559,0,730,2058,2857,4205,551,-15.0,200,0,0,858.0635,1,0,09_01_2014 level23_spatial_Clio 10_52 Block3-59.txt,37,37,1217,72.0,5.0,2014-01-09,False,colocated,left
111,651.4491,0,730,2058,2857,4205,901,-15.0,200,0,1,651.89,0,0,04_04_2014 level23_spatial_Clio 09_31 Block4-51.txt,37,37,1217,72.0,5.0,2014-04-04,False,colocated,left
130,916.623,0,730,2058,2857,4205,501,-15.0,200,0,0,917.3247,1,0,08_05_2014 level23_spatial_Clio 10_23 Block5-27.txt,37,37,1217,72.0,5.0,2014-05-08,False,colocated,left
8,63.5676,0,730,2058,2857,4205,551,-15.0,200,0,0,64.0409,1,0,08_05_2014 level23_spatial_Clio 10_23 Block5-27.txt,37,37,1217,72.0,5.0,2014-05-08,False,colocated,left
26,243.4126,0,730,2058,2857,4205,851,-15.0,200,0,0,244.0916,1,0,18_07_2014 level23_spatial_Clio 10_14 log.txt,37,37,1217,72.0,5.0,2014-07-18,False,colocated,left
118,1261.6847,0,730,2058,2857,4205,951,-15.0,200,0,0,1262.0923,1,0,10_07_2014 level23_spatial_Clio 11_08 Block6-21.txt,37,37,1217,72.0,5.0,2014-07-10,False,colocated,left
69,425.5051,0,730,2058,2857,4205,1001,-15.0,200,0,0,425.9257,1,0,04_04_2014 level23_spatial_Clio 09_31 Block4-51.txt,37,37,1217,72.0,5.0,2014-04-04,False,colocated,left
1,5.2558,0,730,2058,2857,4205,651,-15.0,200,0,0,5.9287,1,0,09_01_2014 level23_spatial_Clio 10_52 Block3-59.txt,37,37,1217,72.0,5.0,2014-01-09,False,colocated,left
115,1131.2452,1,730,2058,2857,4205,551,-15.0,200,0,0,1132.6408,1,0,07_02_2014 level23_spatial_Clio 09_53 Block4-22.txt,37,37,1217,72.0,5.0,2014-02-07,False,colocated,left
31,386.7843,0,730,2058,2857,4205,851,-15.0,200,0,1,387.3889,0,0,18_07_2014 level23_spatial_Clio 15_56 log.txt,37,37,1217,72.0,5.0,2014-07-18,False,colocated,left
71,738.4633,0,730,2058,2857,4205,551,-15.0,200,0,0,739.0332,1,0,25_06_2014 level23_spatial_Clio 09_22 Block6-11.txt,37,37,1217,72.0,5.0,2014-06-25,False,colocated,left
72,491.4992,0,730,2058,2857,4205,751,-15.0,200,0,0,492.0614,1,0,29_04_2014 level23_spatial_Clio 10_03 Block5-13.txt,37,37,1217,72.0,5.0,2014-04-29,False,colocated,left
103,1133.1552,0,730,2058,2857,4205,501,-15.0,200,0,0,1133.7418,1,0,10_07_2014 level23_spatial_Clio 11_08 Block6-21.txt,37,37,1217,72.0,5.0,2014-07-10,False,colocated,left
162,953.5845,0,730,2058,2857,4205,851,-15.0,200,0,1,954.3487,0,0,04_04_2014 level23_spatial_Clio 09_31 Block4-51.txt,37,37,1217,72.0,5.0,2014-04-04,False,colocated,left
72,447.7611,0,730,2058,2857,4205,651,-15.0,200,0,0,448.394,1,0,04_04_2014 level23_spatial_Clio 09_31 Block4-51.txt,37,37,1217,72.0,5.0,2014-04-04,False,colocated,left
44,330.0531,0,730,2058,2857,4205,901,-15.0,200,0,1,330.7359,0,0,14_05_2014 level23_spatial_Clio 10_19 log.txt,37,37,1217,72.0,5.0,2014-05-14,False,colocated,left
57,447.1609,0,730,2058,2857,4205,801,-15.0,200,0,0,447.8448,1,0,09_01_2014 level23_spatial_Clio 10_52 Block3-59.txt,37,37,1217,72.0,5.0,2014-01-09,False,colocated,left
72,491.4992,0,730,2058,2857,4205,751,-15.0,200,0,0,492.0614,1,0,29_04_2014 level23_spatial_Clio 10_03 Block5-13.txt,37,37,1217,72.0,5.0,2014-04-29,False,colocated,left
34,242.9067,0,730,2058,2857,4205,501,-15.0,200,0,0,244.1946,1,0,04_04_2014 level23_spatial_Clio 09_31 Block4-51.txt,37,37,1217,72.0,5.0,2014-04-04,False,colocated,left
71,729.0408,0,730,2058,2857,4205,901,-15.0,200,0,1,733.9692,0,0,17_07_2014 level23_spatial_Clio 14_56 log.txt,37,37,1217,72.0,5.0,2014-07-17,False,colocated,left
69,535.0319,0,730,2058,2857,4205,651,-15.0,200,0,0,535.6632,1,0,17_07_2014 level23_spatial_Clio 10_01 log.txt,37,37,1217,72.0,5.0,2014-07-17,False,colocated,left
97,944.6048,0,730,2058,2857,4205,551,-15.0,200,0,1,945.3827,0,0,07_02_2014 level23_spatial_Clio 09_53 Block4-22.txt,37,37,1217,72.0,5.0,2014-02-07,False,colocated,left
160,1616.9178,0,730,2058,2857,4205,851,-15.0,200,0,0,1617.9937,1,0,18_07_2014 level23_spatial_Clio 15_56 log.txt,37,37,1217,72.0,5.0,2014-07-18,False,colocated,left
108,1066.295,0,730,2058,2857,4205,601,-15.0,200,0,0,1067.4593,1,0,07_02_2014 level23_spatial_Clio 09_53 Block4-22.txt,37,37,1217,72.0,5.0,2014-02-07,False,colocated,left
62,377.8898,0,730,2058,2857,4205,651,-15.0,200,0,0,378.2483,1,0,11_06_2014 level23_spatial_Clio 14_47 Block5-67.txt,37,37,1217,72.0,5.0,2014-06-11,False,colocated,left
113,846.6648,0,730,2058,2857,4205,551,-15.0,200,0,0,848.6344,1,0,26_03_2014 level23_spatial_Clio 11_05 Block4-37.txt,37,37,1217,72.0,5.0,2014-03-26,False,colocated,left
9,79.8462,0,730,2058,2857,4205,801,-15.0,200,0,0,80.5394,1,0,20_03_2014 level23_spatial_Clio 09_42 Block4-29.txt,37,37,1217,72.0,5.0,2014-03-20,False,colocated,left
94,709.6116,0,730,2058,2857,4205,551,-15.0,200,0,0,710.3028,1,0,17_07_2014 level23_spatial_Clio 10_01 log.txt,37,37,1217,72.0,5.0,2014-07-17,False,colocated,left
122,852.3804,0,730,2058,2857,4205,701,-15.0,200,0,0,853.0715,1,0,09_01_2014 level23_spatial_Clio 10_52 Block3-59.txt,37,37,1217,72.0,5.0,2014-01-09,False,colocated,left
61,705.6743,0,730,2058,2857,4205,551,-15.0,200,0,0,707.4056,1,0,10_07_2014 level23_spatial_Clio 11_08 Block6-21.txt,37,37,1217,72.0,5.0,2014-07-10,False,colocated,left
160,1616.9178,0,730,2058,2857,4205,851,-15.0,200,0,0,1617.9937,1,0,18_07_2014 level23_spatial_Clio 15_56 log.txt,37,37,1217,72.0,5.0,2014-07-18,False,colocated,left
118,784.6239,0,730,2058,2857,4205,601,-15.0,200,0,0,787.3883,1,0,20_03_2014 level23_spatial_Clio 09_42 Block4-29.txt,37,37,1217,72.0,5.0,2014-03-20,False,colocated,left
1,6.1978,1,730,2058,2857,4205,751,-15.0,200,0,1,6.9715,0,0,19_03_2014 level23_spatial_Clio 14_51 Block4-28.txt,37,37,1217,72.0,5.0,2014-03-19,False,colocated,left
40,459.5296,0,730,2058,2857,4205,801,-15.0,200,0,0,460.4197,1,0,17_07_2014 level23_spatial_Clio 14_56 log.txt,37,37,1217,72.0,5.0,2014-07-17,False,colocated,left
144,1338.8958,0,730,2058,2857,4205,951,-15.0,200,0,1,1339.421,0,0,17_07_2014 level23_spatial_Clio 14_56 log.txt,37,37,1217,72.0,5.0,2014-07-17,False,colocated,left
1,18.0675,0,730,2058,2857,4205,951,-15.0,200,0,1,18.8556,0,0,07_02_2014 level23_spatial_Clio 09_53 Block4-22.txt,37,37,1217,72.0,5.0,2014-02-07,False,colocated,left
87,854.8884,1,730,2058,2857,4205,801,-15.0,200,0,0,855.6187,1,0,07_02_2014 level23_spatial_Clio 09_53 Block4-22.txt,37,37,1217,72.0,5.0,2014-02-07,False,colocated,left
44,330.0531,0,730,2058,2857,4205,901,-15.0,200,0,1,330.7359,0,0,14_05_2014 level23_spatial_Clio 10_19 log.txt,37,37,1217,72.0,5.0,2014-05-14,False,colocated,left
99,575.0374,0,730,2058,2857,4205,701,-15.0,200,0,0,575.5013,1,0,11_06_2014 level23_spatial_Clio 14_47 Block5-67.txt,37,37,1217,72.0,5.0,2014-06-11,False,colocated,left
32,261.7982,0,730,2058,2857,4205,951,-15.0,200,0,0,262.2118,1,0,14_05_2014 level23_spatial_Clio 10_19 log.txt,37,37,1217,72.0,5.0,2014-05-14,False,colocated,left
146,1006.0406,0,730,2058,2857,4205,601,-15.0,200,0,0,1006.6504,1,0,09_01_2014 level23_spatial_Clio 10_52 Block3-59.txt,37,37,1217,72.0,5.0,2014-01-09,False,colocated,left
153,972.5568,0,730,2058,2857,4205,801,-15.0,200,0,1,972.8638,0,0,19_03_2014 level23_spatial_Clio 09_43 Block4-27.txt,37,37,1217,72.0,5.0,2014-03-19,False,colocated,left
22,195.0842,0,460,1105,2857,4205,751,-15.0,200,1,1,196.1134,1,1,09_01_2014 level23_spatial_Clio 10_52 Block3-59.txt,37,37,1217,72.0,5.0,2014-01-09,False,colocated,right
116,676.1519,0,460,1105,2857,4205,601,-15.0,200,1,1,676.7199,1,1,04_04_2014 level23_spatial_Clio 09_31 Block4-51.txt,37,37,1217,72.0,5.0,2014-04-04,False,colocated,right
25,236.1706,0,460,1105,2857,4205,501,-15.0,200,1,1,236.6545,1,1,09_01_2014 level23_spatial_Clio 10_52 Block3-59.txt,37,37,1217,72.0,5.0,2014-01-09,False,colocated,right
88,551.951,0,460,1105,2857,4205,701,-15.0,200,1,0,552.5844,0,1,19_03_2014 level23_spatial_Clio 09_43 Block4-27.txt,37,37,1217,72.0,5.0,2014-03-19,False,colocated,right
50,340.1899,0,460,1105,2857,4205,751,-15.0,200,1,1,340.5742,1,1,20_03_2014 level23_spatial_Clio 09_42 Block4-29.txt,37,37,1217,72.0,5.0,2014-03-20,False,colocated,right
26,164.8952,0,460,1105,2857,4205,551,-15.0,200,1,1,165.173,1,1,11_06_2014 level23_spatial_Clio 14_47 Block5-67.txt,37,37,1217,72.0,5.0,2014-06-11,False,colocated,right
90,688.5251,0,460,1105,2857,4205,651,-15.0,200,1,1,689.0122,1,1,17_07_2014 level23_spatial_Clio 10_01 log.txt,37,37,1217,72.0,5.0,2014-07-17,False,colocated,right
13,197.0657,0,460,1105,2857,4205,1001,-15.0,200,1,0,197.9684,0,1,10_07_2014 level23_spatial_Clio 11_08 Block6-21.txt,37,37,1217,72.0,5.0,2014-07-10,False,colocated,right
82,627.983,1,460,1105,2857,4205,651,-15.0,200,1,1,628.4748,1,1,17_07_2014 level23_spatial_Clio 10_01 log.txt,37,37,1217,72.0,5.0,2014-07-17,False,colocated,right
40,500.803,1,460,1105,2857,4205,751,-15.0,200,1,1,501.3099,1,1,10_07_2014 level23_spatial_Clio 11_08 Block6-21.txt,37,37,1217,72.0,5.0,2014-07-10,False,colocated,right
89,592.363,1,460,1105,2857,4205,801,-15.0,200,1,1,592.9277,1,1,20_03_2014 level23_spatial_Clio 09_42 Block4-29.txt,37,37,1217,72.0,5.0,2014-03-20,False,colocated,right
88,572.1895,0,460,1105,2857,4205,601,-15.0,200,1,1,572.8133,1,1,14_05_2014 level23_spatial_Clio 10_19 log.txt,37,37,1217,72.0,5.0,2014-05-14,False,colocated,right
29,194.1742,0,460,1105,2857,4205,801,-15.0,200,1,1,194.4999,1,1,29_04_2014 level23_spatial_Clio 10_03 Block5-13.txt,37,37,1217,72.0,5.0,2014-04-29,False,colocated,right
2,39.4852,1,460,1105,2857,4205,801,-15.0,200,1,1,39.8854,1,1,14_05_2014 level23_spatial_Clio 10_19 log.txt,37,37,1217,72.0,5.0,2014-05-14,False,colocated,right
126,873.4143,0,460,1105,2857,4205,751,-15.0,200,1,1,873.7727,1,1,04_04_2014 level23_spatial_Clio 14_47 Block4-52.txt,37,37,1217,72.0,5.0,2014-04-04,False,colocated,right
59,456.3466,0,460,1105,2857,4205,651,-15.0,200,1,1,459.6088,1,1,09_01_2014 level23_spatial_Clio 10_52 Block3-59.txt,37,37,1217,72.0,5.0,2014-01-09,False,colocated,right
8,52.8744,0,460,1105,2857,4205,951,-15.0,200,1,1,53.4333,1,1,19_03_2014 level23_spatial_Clio 09_43 Block4-27.txt,37,37,1217,72.0,5.0,2014-03-19,False,colocated,right
29,194.1742,0,460,1105,2857,4205,801,-15.0,200,1,1,194.4999,1,1,29_04_2014 level23_spatial_Clio 10_03 Block5-13.txt,37,37,1217,72.0,5.0,2014-04-29,False,colocated,right
90,880.0572,0,460,1105,2857,4205,651,-15.0,200,1,1,880.482,1,1,07_02_2014 level23_spatial_Clio 09_53 Block4-22.txt,37,37,1217,72.0,5.0,2014-02-07,False,colocated,right
159,1014.0347,0,460,1105,2857,4205,651,-15.0,200,1,1,1014.7475,1,1,19_03_2014 level23_spatial_Clio 09_43 Block4-27.txt,37,37,1217,72.0,5.0,2014-03-19,False,colocated,right
64,445.5134,0,460,1105,2857,4205,901,-15.0,200,1,1,445.853,1,1,29_04_2014 level23_spatial_Clio 10_03 Block5-13.txt,37,37,1217,72.0,5.0,2014-04-29,False,colocated,right
183,1779.0987,1,460,1105,2857,4205,1001,-15.0,200,1,1,1779.536,1,1,18_07_2014 level23_spatial_Clio 15_56 log.txt,37,37,1217,72.0,5.0,2014-07-18,False,colocated,right
97,637.5302,0,460,1105,2857,4205,651,-15.0,200,1,1,639.3192,1,1,29_04_2014 level23_spatial_Clio 10_03 Block5-13.txt,37,37,1217,72.0,5.0,2014-04-29,False,colocated,right
160,1077.2754,0,460,1105,2857,4205,651,-15.0,200,1,1,1078.2474,1,1,04_04_2014 level23_spatial_Clio 14_47 Block4-52.txt,37,37,1217,72.0,5.0,2014-04-04,False,colocated,right
136,1343.7452,1,460,1105,2857,4205,501,-15.0,200,1,1,1347.1664,1,1,18_07_2014 level23_spatial_Clio 15_56 log.txt,37,37,1217,72.0,5.0,2014-07-18,False,colocated,right
71,551.8329,0,460,1105,2857,4205,601,-15.0,200,1,1,552.2092,1,1,17_07_2014 level23_spatial_Clio 10_01 log.txt,37,37,1217,72.0,5.0,2014-07-17,False,colocated,right
119,788.8011,0,460,1105,2857,4205,751,-15.0,200,1,1,789.2731,1,1,20_03_2014 level23_spatial_Clio 09_42 Block4-29.txt,37,37,1217,72.0,5.0,2014-03-20,False,colocated,right
7,49.8156,0,460,1105,2857,4205,651,-15.0,200,1,0,53.9322,0,1,04_04_2014 level23_spatial_Clio 14_47 Block4-52.txt,37,37,1217,72.0,5.0,2014-04-04,False,colocated,right
116,1131.7021,0,460,1105,2857,4205,601,-15.0,200,1,1,1132.2705,1,1,17_07_2014 level23_spatial_Clio 14_56 log.txt,37,37,1217,72.0,5.0,2014-07-17,False,colocated,right
25,236.1706,0,460,1105,2857,4205,501,-15.0,200,1,1,236.6545,1,1,09_01_2014 level23_spatial_Clio 10_52 Block3-59.txt,37,37,1217,72.0,5.0,2014-01-09,False,colocated,right
156,1548.4282,0,460,1105,2857,4205,601,-15.0,200,1,1,1548.7569,1,1,10_07_2014 level23_spatial_Clio 11_08 Block6-21.txt,37,37,1217,72.0,5.0,2014-07-10,False,colocated,right
39,301.9271,0,460,1105,2857,4205,851,-15.0,200,1,1,302.3955,1,1,14_05_2014 level23_spatial_Clio 10_19 log.txt,37,37,1217,72.0,5.0,2014-05-14,False,colocated,right
203,1369.7819,1,460,1105,2857,4205,801,-15.0,200,1,0,1372.2133,0,1,04_04_2014 level23_spatial_Clio 14_47 Block4-52.txt,37,37,1217,72.0,5.0,2014-04-04,False,colocated,right
33,404.729,0,460,1105,2857,4205,901,-15.0,200,1,0,407.0083,0,1,18_07_2014 level23_spatial_Clio 15_56 log.txt,37,37,1217,72.0,5.0,2014-07-18,False,colocated,right
90,688.5251,0,460,1105,2857,4205,651,-15.0,200,1,1,689.0122,1,1,17_07_2014 level23_spatial_Clio 10_01 log.txt,37,37,1217,72.0,5.0,2014-07-17,False,colocated,right
68,513.1262,0,460,1105,2857,4205,1001,-15.0,200,1,0,514.2564,0,1,09_01_2014 level23_spatial_Clio 10_52 Block3-59.txt,37,37,1217,72.0,5.0,2014-01-09,False,colocated,right
60,577.0953,0,460,1105,2857,4205,951,-15.0,200,1,0,578.3485,0,1,07_02_2014 level23_spatial_Clio 09_53 Block4-22.txt,37,37,1217,72.0,5.0,2014-02-07,False,colocated,right
159,1014.0347,0,460,1105,2857,4205,651,-15.0,200,1,1,1014.7475,1,1,19_03_2014 level23_spatial_Clio 09_43 Block4-27.txt,37,37,1217,72.0,5.0,2014-03-19,False,colocated,right
38,435.3565,1,460,1105,2857,4205,651,-15.0,200,1,0,436.509,0,1,17_07_2014 level23_spatial_Clio 14_56 log.txt,37,37,1217,72.0,5.0,2014-07-17,False,colocated,right
126,897.9302,0,460,1105,2857,4205,801,-15.0,200,1,1,898.254,1,1,08_05_2014 level23_spatial_Clio 10_23 Block5-27.txt,37,37,1217,72.0,5.0,2014-05-08,False,colocated,right
26,164.8952,0,460,1105,2857,4205,551,-15.0,200,1,1,165.173,1,1,11_06_2014 level23_spatial_Clio 14_47 Block5-67.txt,37,37,1217,72.0,5.0,2014-06-11,False,colocated,right
2,39.4852,1,460,1105,2857,4205,801,-15.0,200,1,1,39.8854,1,1,14_05_2014 level23_spatial_Clio 10_19 log.txt,37,37,1217,72.0,5.0,2014-05-14,False,colocated,right
119,788.8011,0,460,1105,2857,4205,751,-15.0,200,1,1,789.2731,1,1,20_03_2014 level23_spatial_Clio 09_42 Block4-29.txt,37,37,1217,72.0,5.0,2014-03-20,False,colocated,right
145,989.174,0,460,1105,2857,4205,851,-15.0,200,1,1,989.8566,1,1,04_04_2014 level23_spatial_Clio 14_47 Block4-52.txt,37,37,1217,72.0,5.0,2014-04-04,False,colocated,right
7,97.3228,0,460,1105,2857,4205,1001,-15.0,200,1,1,97.774,1,1,26_03_2014 level23_spatial_Clio 11_05 Block4-37.txt,37,37,1217,72.0,5.0,2014-03-26,False,colocated,right
59,456.3466,0,460,1105,2857,4205,651,-15.0,200,1,1,459.6088,1,1,09_01_2014 level23_spatial_Clio 10_52 Block3-59.txt,37,37,1217,72.0,5.0,2014-01-09,False,colocated,right
74,774.2421,0,460,1105,2857,4205,601,-15.0,200,1,1,774.6083,1,1,18_07_2014 level23_spatial_Clio 15_56 log.txt,37,37,1217,72.0,5.0,2014-07-18,False,colocated,right
100,580.3749,0,460,1105,2857,4205,1001,-15.0,200,1,1,587.7296,1,1,11_06_2014 level23_spatial_Clio 14_47 Block5-67.txt,37,37,1217,72.0,5.0,2014-06-11,False,colocated,right
105,778.6711,0,460,1105,2857,4205,1001,-15.0,200,1,1,779.0251,1,1,08_05_2014 level23_spatial_Clio 10_23 Block5-27.txt,37,37,1217,72.0,5.0,2014-05-08,False,colocated,right
107,761.99,0,460,1105,2857,4205,751,-15.0,200,1,1,762.7528,1,1,04_04_2014 level23_spatial_Clio 14_47 Block4-52.txt,37,37,1217,72.0,5.0,2014-04-04,False,colocated,right
48,473.458,0,460,1105,2857,4205,851,-15.0,200,1,1,473.9482,1,1,07_02_2014 level23_spatial_Clio 09_53 Block4-22.txt,37,37,1217,72.0,5.0,2014-02-07,False,colocated,right
65,680.2238,0,460,1105,2857,4205,601,-15.0,200,1,0,681.1006,0,1,17_07_2014 level23_spatial_Clio 14_56 log.txt,37,37,1217,72.0,5.0,2014-07-17,False,colocated,right
77,742.2687,0,460,1105,2857,4205,801,-15.0,200,1,1,742.6611,1,1,07_02_2014 level23_spatial_Clio 09_53 Block4-22.txt,37,37,1217,72.0,5.0,2014-02-07,False,colocated,right
70,429.9771,0,460,1105,2857,4205,701,-15.0,200,1,1,430.8157,1,1,04_04_2014 level23_spatial_Clio 09_31 Block4-51.txt,37,37,1217,72.0,5.0,2014-04-04,False,colocated,right
39,377.181,0,460,1105,2857,4205,801,-15.0,200,1,0,378.6394,0,1,18_07_2014 level23_spatial_Clio 10_14 log.txt,37,37,1217,72.0,5.0,2014-07-18,False,colocated,right
74,774.2421,0,460,1105,2857,4205,601,-15.0,200,1,1,774.6083,1,1,18_07_2014 level23_spatial_Clio 15_56 log.txt,37,37,1217,72.0,5.0,2014-07-18,False,colocated,right
18,206.2698,0,460,1105,2857,4205,651,-15.0,200,1,1,206.8144,1,1,07_02_2014 level23_spatial_Clio 09_53 Block4-22.txt,37,37,1217,72.0,5.0,2014-02-07,False,colocated,right
74,839.368,0,460,1105,2857,4205,601,-15.0,200,1,0,840.0492,0,1,10_07_2014 level23_spatial_Clio 11_08 Block6-21.txt,37,37,1217,72.0,5.0,2014-07-10,False,colocated,right
203,1369.7819,1,460,1105,2857,4205,801,-15.0,200,1,0,1372.2133,0,1,04_04_2014 level23_spatial_Clio 14_47 Block4-52.txt,37,37,1217,72.0,5.0,2014-04-04,False,colocated,right
126,873.4143,0,460,1105,2857,4205,751,-15.0,200,1,1,873.7727,1,1,04_04_2014 level23_spatial_Clio 14_47 Block4-52.txt,37,37,1217,72.0,5.0,2014-04-04,False,colocated,right
126,873.4143,0,460,1105,2857,4205,751,-15.0,200,1,1,873.7727,1,1,04_04_2014 level23_spatial_Clio 14_47 Block4-52.txt,37,37,1217,72.0,5.0,2014-04-04,False,colocated,right
7,54.39,0,460,1105,2857,4205,801,-15.0,200,1,0,55.2095,0,1,09_01_2014 level23_spatial_Clio 10_52 Block3-59.txt,37,37,1217,72.0,5.0,2014-01-09,False,colocated,right
7,49.8156,0,460,1105,2857,4205,651,-15.0,200,1,0,53.9322,0,1,04_04_2014 level23_spatial_Clio 14_47 Block4-52.txt,37,37,1217,72.0,5.0,2014-04-04,False,colocated,right
74,839.368,0,460,1105,2857,4205,601,-15.0,200,1,0,840.0492,0,1,10_07_2014 level23_spatial_Clio 11_08 Block6-21.txt,37,37,1217,72.0,5.0,2014-07-10,False,colocated,right
17,139.8688,0,460,1105,2857,4205,801,-15.0,200,1,1,140.0538,1,1,08_05_2014 level23_spatial_Clio 10_23 Block5-27.txt,37,37,1217,72.0,5.0,2014-05-08,False,colocated,right
27,181.2275,0,460,1105,2857,4205,601,-15.0,200,1,1,181.7318,1,1,29_04_2014 level23_spatial_Clio 10_03 Block5-13.txt,37,37,1217,72.0,5.0,2014-04-29,False,colocated,right
91,658.7032,0,460,1105,2857,4205,551,-15.0,200,1,1,659.2138,1,1,04_04_2014 level23_spatial_Clio 14_47 Block4-52.txt,37,37,1217,72.0,5.0,2014-04-04,False,colocated,right
1,6.359,0,460,1105,2857,4205,1001,-15.0,200,1,1,6.9984,1,1,04_04_2014 level23_spatial_Clio 14_47 Block4-52.txt,37,37,1217,72.0,5.0,2014-04-04,False,colocated,right
27,241.3347,0,460,1105,2857,4205,901,-15.0,200,1,1,241.5721,1,1,26_03_2014 level23_spatial_Clio 11_05 Block4-37.txt,37,37,1217,72.0,5.0,2014-03-26,False,colocated,right
100,580.3749,0,460,1105,2857,4205,1001,-15.0,200,1,1,587.7296,1,1,11_06_2014 level23_spatial_Clio 14_47 Block5-67.txt,37,37,1217,72.0,5.0,2014-06-11,False,colocated,right
68,513.1262,0,460,1105,2857,4205,1001,-15.0,200,1,0,514.2564,0,1,09_01_2014 level23_spatial_Clio 10_52 Block3-59.txt,37,37,1217,72.0,5.0,2014-01-09,False,colocated,right
71,551.8329,0,460,1105,2857,4205,601,-15.0,200,1,1,552.2092,1,1,17_07_2014 level23_spatial_Clio 10_01 log.txt,37,37,1217,72.0,5.0,2014-07-17,False,colocated,right
156,1548.4282,0,460,1105,2857,4205,601,-15.0,200,1,1,1548.7569,1,1,10_07_2014 level23_spatial_Clio 11_08 Block6-21.txt,37,37,1217,72.0,5.0,2014-07-10,False,colocated,right
65,680.2238,0,460,1105,2857,4205,601,-15.0,200,1,0,681.1006,0,1,17_07_2014 level23_spatial_Clio 14_56 log.txt,37,37,1217,72.0,5.0,2014-07-17,False,colocated,right
