Trial,StartTime,CenterReward,F1,F2,F3,F4,HoldTime,Atten,Pitch,Side,Response,RespTime,Correct,SpatialMask,UniversalStartTime,originalFile,LeftTemperature,RightTemperature,fNum,day,meanTemp,treatment,vowel_level,SNR,SpatialCondition,VowelLocation
89,1008.4588,0,437,2761,2975,4263,506,-6.0,200,1,1,1010.4821,1,0,735937.656810866,04_12_2014 level23_spatial_Magnum 15_29 log.txt,36.0,35.0,1311,2014-12-04,35.5,False,63.0,-4.0,colocated,left
61,407.8409,1,437,2761,2975,4263,505,-6.0,200,1,0,410.918,0,0,735946.382498158,13_12_2014 level23_spatial_Magnum 09_04 log.txt,37.0,37.0,1311,2014-12-13,37.0,False,63.0,-4.0,colocated,left
17,189.2188,1,437,2761,2975,4263,504,-6.0,200,1,1,192.5666,1,0,735802.591773366,22_07_2014 level23_spatial_Magnum 14_09 log.txt,37.0,37.0,1311,2014-07-22,37.0,False,63.0,-4.0,colocated,left
173,1046.085,1,437,2761,2975,4263,505,-6.0,200,1,1,1051.3651,1,0,735948.405857465,15_12_2014 level23_spatial_Magnum 09_27 log.txt,37.0,37.0,1311,2014-12-15,37.0,False,63.0,-4.0,colocated,left
61,407.8409,1,437,2761,2975,4263,505,-6.0,200,1,0,410.918,0,0,735946.382498158,13_12_2014 level23_spatial_Magnum 09_04 log.txt,37.0,37.0,1311,2014-12-13,37.0,False,63.0,-4.0,colocated,left
131,835.5685,1,437,2761,2975,4263,507,-6.0,200,1,0,838.178,0,0,735936.440226487,03_12_2014 level23_spatial_Magnum 10_20 log.txt,37.0,37.0,1311,2014-12-03,37.0,False,63.0,-4.0,colocated,left
78,512.5064,1,437,2761,2975,4263,509,-6.0,200,1,0,515.3037,0,0,735930.374681787,27_11_2014 level23_spatial_Magnum 08_51 log_BCooled.txt,37.0,37.0,1311,2014-11-27,37.0,False,63.0,-4.0,colocated,left
20,219.0728,0,437,2761,2975,4263,508,-6.0,200,1,0,219.974,0,0,735790.391424454,10_07_2014 level23_spatial_Magnum 09_20 log.txt,37.0,37.0,1311,2014-07-10,37.0,False,63.0,-4.0,colocated,left
4,31.8004,1,437,2761,2975,4263,501,-6.0,200,1,0,34.249,0,0,735948.39411806,15_12_2014 level23_spatial_Magnum 09_27 log.txt,37.0,37.0,1311,2014-12-15,37.0,False,63.0,-4.0,colocated,left
95,594.2851,0,437,2761,2975,4263,504,-6.0,200,1,1,595.4065,1,0,735948.4006283,15_12_2014 level23_spatial_Magnum 09_27 log.txt,37.0,37.0,1311,2014-12-15,37.0,False,63.0,-4.0,colocated,left
78,512.5064,1,437,2761,2975,4263,509,-6.0,200,1,0,515.3037,0,0,735930.374681787,27_11_2014 level23_spatial_Magnum 08_51 log_BCooled.txt,37.0,37.0,1311,2014-11-27,37.0,False,63.0,-4.0,colocated,left
65,621.4183,0,437,2761,2975,4263,505,-6.0,200,1,1,622.5909,1,0,735805.617609008,25_07_2014 level23_spatial_Magnum 14_39 log.txt,37.0,37.0,1311,2014-07-25,37.0,False,63.0,-4.0,colocated,left
7,49.6009,1,437,2761,2975,4263,503,-6.0,200,1,1,52.3978,1,0,735788.747796307,08_07_2014 level23_spatial_Magnum 17_56 log.txt,37.0,37.0,1311,2014-07-08,37.0,False,63.0,-4.0,colocated,left
103,785.5818,0,437,2761,2975,4263,511,-6.0,200,1,0,786.1811,0,0,735929.423675715,26_11_2014 level23_spatial_Magnum 09_57 log.txt,37.0,37.0,1311,2014-11-26,37.0,False,63.0,-4.0,colocated,left
65,621.4183,0,437,2761,2975,4263,505,-6.0,200,1,1,622.5909,1,0,735805.617609008,25_07_2014 level23_spatial_Magnum 14_39 log.txt,37.0,37.0,1311,2014-07-25,37.0,False,63.0,-4.0,colocated,left
66,514.296,0,437,2761,2975,4263,507,-6.0,200,1,0,515.1975,0,0,735931.380258056,28_11_2014 level23_spatial_Magnum 08_59 log.txt,37.0,37.0,1311,2014-11-28,37.0,False,63.0,-4.0,colocated,left
61,407.8409,1,437,2761,2975,4263,505,-6.0,200,1,0,410.918,0,0,735946.382498158,13_12_2014 level23_spatial_Magnum 09_04 log.txt,37.0,37.0,1311,2014-12-13,37.0,False,63.0,-4.0,colocated,left
87,603.0795,0,437,2761,2975,4263,501,-6.0,200,1,1,604.1912,1,0,735790.395868976,10_07_2014 level23_spatial_Magnum 09_20 log.txt,37.0,37.0,1311,2014-07-10,37.0,False,63.0,-4.0,colocated,left
95,629.3277,1,437,2761,2975,4263,509,-6.0,200,1,0,632.0564,0,0,735946.385061663,13_12_2014 level23_spatial_Magnum 09_04 log.txt,37.0,37.0,1311,2014-12-13,37.0,False,63.0,-4.0,colocated,left
81,449.2292,0,437,2761,2975,4263,507,-6.0,200,1,1,450.5355,1,0,735944.396171634,11_12_2014 level23_spatial_Magnum 09_23 log.txt,37.0,37.0,1311,2014-12-11,37.0,False,63.0,-4.0,colocated,left
59,426.8909,1,437,2761,2975,4263,507,-6.0,200,1,1,430.4709,1,0,735947.379940867,14_12_2014 level23_spatial_Magnum 09_00 log.txt,37.0,37.0,1311,2014-12-14,37.0,False,63.0,-4.0,colocated,left
95,629.3277,1,437,2761,2975,4263,509,-6.0,200,1,0,632.0564,0,0,735946.385061663,13_12_2014 level23_spatial_Magnum 09_04 log.txt,37.0,37.0,1311,2014-12-13,37.0,False,63.0,-4.0,colocated,left
103,785.5818,0,437,2761,2975,4263,511,-6.0,200,1,0,786.1811,0,0,735929.423675715,26_11_2014 level23_spatial_Magnum 09_57 log.txt,37.0,37.0,1311,2014-11-26,37.0,False,63.0,-4.0,colocated,left
2,514.6043,1,936,1551,2975,4263,509,-6.0,200,0,0,525.503,1,0,735928.355956068,25_11_2014 level23_spatial_Magnum 08_24 log.txt,37.0,37.0,1311,2014-11-25,37.0,False,63.0,-4.0,colocated,left
88,1003.5017,1,936,1551,2975,4263,503,-6.0,200,0,0,1005.2569,1,0,735937.656753492,04_12_2014 level23_spatial_Magnum 15_29 log.txt,36.0,35.0,1311,2014-12-04,35.5,False,63.0,-4.0,colocated,left
128,838.5853,0,936,1551,2975,4263,504,-6.0,200,0,1,839.5656,0,0,735930.378455848,27_11_2014 level23_spatial_Magnum 08_51 log.txt,37.0,37.0,1311,2014-11-27,37.0,False,63.0,-4.0,colocated,left
21,129.686,0,936,1551,2975,4263,502,-6.0,200,0,0,130.7252,1,0,735948.395250995,15_12_2014 level23_spatial_Magnum 09_27 log.txt,37.0,37.0,1311,2014-12-15,37.0,False,63.0,-4.0,colocated,left
109,679.2434,0,936,1551,2975,4263,503,-6.0,200,0,0,680.1766,1,0,735948.401611613,15_12_2014 level23_spatial_Magnum 09_27 log.txt,37.0,37.0,1311,2014-12-15,37.0,False,63.0,-4.0,colocated,left
21,129.686,0,936,1551,2975,4263,502,-6.0,200,0,0,130.7252,1,0,735948.395250995,15_12_2014 level23_spatial_Magnum 09_27 log.txt,37.0,37.0,1311,2014-12-15,37.0,False,63.0,-4.0,colocated,left
9,41.8543,0,936,1551,2975,4263,511,-6.0,200,0,0,42.5578,1,0,735936.43103998,03_12_2014 level23_spatial_Magnum 10_20 log.txt,37.0,37.0,1311,2014-12-03,37.0,False,63.0,-4.0,colocated,left
74,739.4252,1,936,1551,2975,4263,504,-6.0,200,0,0,741.9193,1,0,735937.384947051,04_12_2014 level23_spatial_Magnum 09_02 log.txt,37.0,37.0,1311,2014-12-04,37.0,False,63.0,-4.0,colocated,left
129,1605.6312,0,936,1551,2975,4263,509,-6.0,200,0,0,1606.6476,1,0,735942.396361472,09_12_2014 level23_spatial_Magnum 09_04 log.txt,37.0,37.0,1311,2014-12-09,37.0,False,63.0,-4.0,colocated,left
107,714.1008,1,936,1551,2975,4263,504,-6.0,200,0,1,718.3238,0,0,735947.383265056,14_12_2014 level23_spatial_Magnum 09_00 log.txt,37.0,37.0,1311,2014-12-14,37.0,False,63.0,-4.0,colocated,left
39,211.037,1,936,1551,2975,4263,506,-6.0,200,0,1,214.2268,0,0,735943.605220336,10_12_2014 level23_spatial_Magnum 14_28 log.txt,37.0,37.0,1311,2014-12-10,37.0,False,63.0,-4.0,colocated,left
109,679.2434,0,936,1551,2975,4263,503,-6.0,200,0,0,680.1766,1,0,735948.401611613,15_12_2014 level23_spatial_Magnum 09_27 log.txt,37.0,37.0,1311,2014-12-15,37.0,False,63.0,-4.0,colocated,left
23,414.1336,1,936,1551,2975,4263,511,-6.0,200,0,0,416.8262,1,0,735937.381182102,04_12_2014 level23_spatial_Magnum 09_02 log.txt,37.0,37.0,1311,2014-12-04,37.0,False,63.0,-4.0,colocated,left
21,129.686,0,936,1551,2975,4263,502,-6.0,200,0,0,130.7252,1,0,735948.395250995,15_12_2014 level23_spatial_Magnum 09_27 log.txt,37.0,37.0,1311,2014-12-15,37.0,False,63.0,-4.0,colocated,left
110,707.8631,0,936,1551,2975,4263,506,-6.0,200,0,0,709.0982,1,0,735943.610970638,10_12_2014 level23_spatial_Magnum 14_28 log.txt,37.0,37.0,1311,2014-12-10,37.0,False,63.0,-4.0,colocated,left
83,516.1159,1,936,1551,2975,4263,504,-6.0,200,0,0,519.436,1,0,735936.436529119,03_12_2014 level23_spatial_Magnum 10_20 log.txt,37.0,37.0,1311,2014-12-03,37.0,False,63.0,-4.0,colocated,left
110,707.8631,0,936,1551,2975,4263,506,-6.0,200,0,0,709.0982,1,0,735943.610970638,10_12_2014 level23_spatial_Magnum 14_28 log.txt,37.0,37.0,1311,2014-12-10,37.0,False,63.0,-4.0,colocated,left
88,1003.5017,1,936,1551,2975,4263,503,-6.0,200,0,0,1005.2569,1,0,735937.656753492,04_12_2014 level23_spatial_Magnum 15_29 log.txt,36.0,35.0,1311,2014-12-04,35.5,False,63.0,-4.0,colocated,left
23,414.1336,1,936,1551,2975,4263,511,-6.0,200,0,0,416.8262,1,0,735937.381182102,04_12_2014 level23_spatial_Magnum 09_02 log.txt,37.0,37.0,1311,2014-12-04,37.0,False,63.0,-4.0,colocated,left
144,902.2346,1,936,1551,2975,4263,506,-6.0,200,0,1,904.7316,0,0,735938.434748086,05_12_2014 level23_spatial_Magnum 10_11 log.txt,37.0,37.0,1311,2014-12-05,37.0,False,63.0,-4.0,colocated,left
107,714.1008,1,936,1551,2975,4263,504,-6.0,200,0,1,718.3238,0,0,735947.383265056,14_12_2014 level23_spatial_Magnum 09_00 log.txt,37.0,37.0,1311,2014-12-14,37.0,False,63.0,-4.0,colocated,left
48,288.5821,1,936,1551,2975,4263,506,-6.0,200,0,0,290.6131,1,0,735938.427645626,05_12_2014 level23_spatial_Magnum 10_11 log.txt,37.0,37.0,1311,2014-12-05,37.0,False,63.0,-4.0,colocated,left
34,320.624,0,936,1551,2975,4263,506,-6.0,200,0,0,323.5496,1,0,735931.378016482,28_11_2014 level23_spatial_Magnum 08_59 log.txt,37.0,37.0,1311,2014-11-28,37.0,False,63.0,-4.0,colocated,left
86,623.2424,1,437,2761,2975,4263,505,-6.0,200,1,1,627.2308,1,1,735692.455824565,03_04_2014 level23_spatial_Magnum 10_46 log.txt,37.0,37.0,1311,2014-04-03,37.0,False,63.0,-4.0,colocated,right
10,56.0692,1,437,2761,2975,4263,504,-6.0,200,1,0,60.2478,0,1,735938.424954505,05_12_2014 level23_spatial_Magnum 10_11 log.txt,37.0,37.0,1311,2014-12-05,37.0,False,63.0,-4.0,colocated,right
84,629.9436,0,437,2761,2975,4263,504,-6.0,200,1,1,631.1619,1,1,735941.598263236,08_12_2014 level23_spatial_Magnum 14_11 log.txt,37.0,37.0,1311,2014-12-08,37.0,False,63.0,-4.0,colocated,right
126,723.4306,1,437,2761,2975,4263,508,-6.0,200,1,0,725.9223,0,1,735944.399345262,11_12_2014 level23_spatial_Magnum 09_23 log.txt,37.0,37.0,1311,2014-12-11,37.0,False,63.0,-4.0,colocated,right
37,231.6269,0,437,2761,2975,4263,507,-6.0,200,1,1,232.4311,1,1,735788.749903089,08_07_2014 level23_spatial_Magnum 17_56 log.txt,37.0,37.0,1311,2014-07-08,37.0,False,63.0,-4.0,colocated,right
9,101.6868,0,437,2761,2975,4263,511,-6.0,200,1,0,102.6412,0,1,735789.368538042,09_07_2014 level23_spatial_Magnum 08_49 log.txt,37.0,37.0,1311,2014-07-09,37.0,False,63.0,-4.0,colocated,right
37,231.6269,0,437,2761,2975,4263,507,-6.0,200,1,1,232.4311,1,1,735788.749903089,08_07_2014 level23_spatial_Magnum 17_56 log.txt,37.0,37.0,1311,2014-07-08,37.0,False,63.0,-4.0,colocated,right
87,769.1538,1,437,2761,2975,4263,507,-6.0,200,1,1,772.7853,1,1,735805.61931891,25_07_2014 level23_spatial_Magnum 14_39 log.txt,37.0,37.0,1311,2014-07-25,37.0,False,63.0,-4.0,colocated,right
37,231.6269,0,437,2761,2975,4263,507,-6.0,200,1,1,232.4311,1,1,735788.749903089,08_07_2014 level23_spatial_Magnum 17_56 log.txt,37.0,37.0,1311,2014-07-08,37.0,False,63.0,-4.0,colocated,right
92,1022.2649,1,437,2761,2975,4263,505,-6.0,200,1,0,1031.1326,0,1,735937.656970659,04_12_2014 level23_spatial_Magnum 15_29 log.txt,36.0,35.0,1311,2014-12-04,35.5,False,63.0,-4.0,colocated,right
131,853.0957,1,437,2761,2975,4263,507,-6.0,200,1,1,855.5101,1,1,735930.378623793,27_11_2014 level23_spatial_Magnum 08_51 log.txt,37.0,37.0,1311,2014-11-27,37.0,False,63.0,-4.0,colocated,right
70,704.3004,1,437,2761,2975,4263,511,-6.0,200,1,1,708.0296,1,1,735937.384540514,04_12_2014 level23_spatial_Magnum 09_02 log.txt,37.0,37.0,1311,2014-12-04,37.0,False,63.0,-4.0,colocated,right
33,925.3895,1,437,2761,2975,4263,509,-6.0,200,1,1,929.217,1,1,735942.388488304,09_12_2014 level23_spatial_Magnum 09_04 log.txt,37.0,37.0,1311,2014-12-09,37.0,False,63.0,-4.0,colocated,right
45,420.8455,1,437,2761,2975,4263,506,-6.0,200,1,1,426.5885,1,1,735929.41945423,26_11_2014 level23_spatial_Magnum 09_57 log.txt,37.0,37.0,1311,2014-11-26,37.0,False,63.0,-4.0,colocated,right
101,666.6113,1,437,2761,2975,4263,507,-6.0,200,1,1,669.5043,1,1,735946.385493186,13_12_2014 level23_spatial_Magnum 09_04 log.txt,37.0,37.0,1311,2014-12-13,37.0,False,63.0,-4.0,colocated,right
69,393.6447,0,437,2761,2975,4263,509,-6.0,200,1,1,395.14,1,1,735935.414278295,02_12_2014 level23_spatial_Magnum 09_50 log.txt,37.0,37.0,1311,2014-12-02,37.0,False,63.0,-4.0,colocated,right
37,231.6269,0,437,2761,2975,4263,507,-6.0,200,1,1,232.4311,1,1,735788.749903089,08_07_2014 level23_spatial_Magnum 17_56 log.txt,37.0,37.0,1311,2014-07-08,37.0,False,63.0,-4.0,colocated,right
36,838.5412,1,437,2761,2975,4263,507,-6.0,200,1,1,842.7561,1,1,735928.359705338,25_11_2014 level23_spatial_Magnum 08_24 log.txt,37.0,37.0,1311,2014-11-25,37.0,False,63.0,-4.0,colocated,right
48,498.8502,0,437,2761,2975,4263,509,-6.0,200,1,0,500.0826,0,1,735805.616190396,25_07_2014 level23_spatial_Magnum 14_39 log.txt,37.0,37.0,1311,2014-07-25,37.0,False,63.0,-4.0,colocated,right
86,623.2424,1,437,2761,2975,4263,505,-6.0,200,1,1,627.2308,1,1,735692.455824565,03_04_2014 level23_spatial_Magnum 10_46 log.txt,37.0,37.0,1311,2014-04-03,37.0,False,63.0,-4.0,colocated,right
61,381.0209,0,437,2761,2975,4263,502,-6.0,200,1,0,382.0,0,1,735936.43496552,03_12_2014 level23_spatial_Magnum 10_20 log.txt,37.0,37.0,1311,2014-12-03,37.0,False,63.0,-4.0,colocated,right
37,231.6269,0,437,2761,2975,4263,507,-6.0,200,1,1,232.4311,1,1,735788.749903089,08_07_2014 level23_spatial_Magnum 17_56 log.txt,37.0,37.0,1311,2014-07-08,37.0,False,63.0,-4.0,colocated,right
32,287.1742,1,437,2761,2975,4263,504,-6.0,200,1,1,290.904,1,1,735790.392212664,10_07_2014 level23_spatial_Magnum 09_20 log.txt,37.0,37.0,1311,2014-07-10,37.0,False,63.0,-4.0,colocated,right
87,679.6825,0,936,1551,2975,4263,510,-6.0,200,0,0,680.39,1,1,735929.422450029,26_11_2014 level23_spatial_Magnum 09_57 log.txt,37.0,37.0,1311,2014-11-26,37.0,False,63.0,-4.0,colocated,right
87,679.6825,0,936,1551,2975,4263,510,-6.0,200,0,0,680.39,1,1,735929.422450029,26_11_2014 level23_spatial_Magnum 09_57 log.txt,37.0,37.0,1311,2014-11-26,37.0,False,63.0,-4.0,colocated,right
129,925.8136,1,936,1551,2975,4263,505,-6.0,200,0,0,928.6686,1,1,735941.601687657,08_12_2014 level23_spatial_Magnum 14_11 log.txt,37.0,37.0,1311,2014-12-08,37.0,False,63.0,-4.0,colocated,right
48,404.287,0,936,1551,2975,4263,509,-6.0,200,0,1,405.8112,0,1,735931.378984803,28_11_2014 level23_spatial_Magnum 08_59 log.txt,37.0,37.0,1311,2014-11-28,37.0,False,63.0,-4.0,colocated,right
4,748.2749,1,936,1551,2975,4263,507,-6.0,200,0,0,751.4114,1,1,735942.386438367,09_12_2014 level23_spatial_Magnum 09_04 log.txt,37.0,37.0,1311,2014-12-09,37.0,False,63.0,-4.0,colocated,right
85,1288.6134,0,936,1551,2975,4263,501,-6.0,200,0,0,1289.7627,1,1,735942.392692285,09_12_2014 level23_spatial_Magnum 09_04 log.txt,37.0,37.0,1311,2014-12-09,37.0,False,63.0,-4.0,colocated,right
91,635.9017,1,936,1551,2975,4263,510,-6.0,200,0,0,637.89,1,1,735945.385137751,12_12_2014 level23_spatial_Magnum 09_04 log.txt,37.0,37.0,1311,2014-12-12,37.0,False,63.0,-4.0,colocated,right
129,925.8136,1,936,1551,2975,4263,505,-6.0,200,0,0,928.6686,1,1,735941.601687657,08_12_2014 level23_spatial_Magnum 14_11 log.txt,37.0,37.0,1311,2014-12-08,37.0,False,63.0,-4.0,colocated,right
82,569.6976,0,936,1551,2975,4263,504,-6.0,200,0,1,570.8897,0,1,735947.381593722,14_12_2014 level23_spatial_Magnum 09_00 log.txt,37.0,37.0,1311,2014-12-14,37.0,False,63.0,-4.0,colocated,right
81,478.0784,0,936,1551,2975,4263,505,-6.0,200,0,0,479.025,1,1,735938.42983887,05_12_2014 level23_spatial_Magnum 10_11 log.txt,37.0,37.0,1311,2014-12-05,37.0,False,63.0,-4.0,colocated,right
35,296.7791,0,936,1551,2975,4263,502,-6.0,200,0,0,297.6609,1,1,735947.378434943,14_12_2014 level23_spatial_Magnum 09_00 log.txt,37.0,37.0,1311,2014-12-14,37.0,False,63.0,-4.0,colocated,right
4,748.2749,1,936,1551,2975,4263,507,-6.0,200,0,0,751.4114,1,1,735942.386438367,09_12_2014 level23_spatial_Magnum 09_04 log.txt,37.0,37.0,1311,2014-12-09,37.0,False,63.0,-4.0,colocated,right
35,296.7791,0,936,1551,2975,4263,502,-6.0,200,0,0,297.6609,1,1,735947.378434943,14_12_2014 level23_spatial_Magnum 09_00 log.txt,37.0,37.0,1311,2014-12-14,37.0,False,63.0,-4.0,colocated,right
3,83.4417,0,936,1551,2975,4263,508,-6.0,200,0,0,84.5145,1,1,735946.378743538,13_12_2014 level23_spatial_Magnum 09_04 log.txt,37.0,37.0,1311,2014-12-13,37.0,False,63.0,-4.0,colocated,right
37,224.379,0,936,1551,2975,4263,503,-6.0,200,0,0,225.2387,1,1,735948.396346979,15_12_2014 level23_spatial_Magnum 09_27 log.txt,37.0,37.0,1311,2014-12-15,37.0,False,63.0,-4.0,colocated,right
82,569.6976,0,936,1551,2975,4263,504,-6.0,200,0,1,570.8897,0,1,735947.381593722,14_12_2014 level23_spatial_Magnum 09_00 log.txt,37.0,37.0,1311,2014-12-14,37.0,False,63.0,-4.0,colocated,right
129,925.8136,1,936,1551,2975,4263,505,-6.0,200,0,0,928.6686,1,1,735941.601687657,08_12_2014 level23_spatial_Magnum 14_11 log.txt,37.0,37.0,1311,2014-12-08,37.0,False,63.0,-4.0,colocated,right
106,685.1459,1,936,1551,2975,4263,506,-6.0,200,0,1,689.3202,0,1,735930.376679929,27_11_2014 level23_spatial_Magnum 08_51 log_BCooled.txt,37.0,37.0,1311,2014-11-27,37.0,False,63.0,-4.0,colocated,right
35,190.3446,0,936,1551,2975,4263,506,-6.0,200,0,1,191.9665,0,1,735943.60498084,10_12_2014 level23_spatial_Magnum 14_28 log.txt,37.0,37.0,1311,2014-12-10,37.0,False,63.0,-4.0,colocated,right
85,1288.6134,0,936,1551,2975,4263,501,-6.0,200,0,0,1289.7627,1,1,735942.392692285,09_12_2014 level23_spatial_Magnum 09_04 log.txt,37.0,37.0,1311,2014-12-09,37.0,False,63.0,-4.0,colocated,right
82,569.6976,0,936,1551,2975,4263,504,-6.0,200,0,1,570.8897,0,1,735947.381593722,14_12_2014 level23_spatial_Magnum 09_00 log.txt,37.0,37.0,1311,2014-12-14,37.0,False,63.0,-4.0,colocated,right
85,1288.6134,0,936,1551,2975,4263,501,-6.0,200,0,0,1289.7627,1,1,735942.392692285,09_12_2014 level23_spatial_Magnum 09_04 log.txt,37.0,37.0,1311,2014-12-09,37.0,False,63.0,-4.0,colocated,right
87,539.0712,1,936,1551,2975,4263,502,-6.0,200,0,0,541.0422,1,1,735948.39998925,15_12_2014 level23_spatial_Magnum 09_27 log.txt,37.0,37.0,1311,2014-12-15,37.0,False,63.0,-4.0,colocated,right
122,882.3543,0,437,2761,2975,4263,507,-9.0,200,1,1,883.4676,1,0,735929.424795767,26_11_2014 level23_spatial_Magnum 09_57 log.txt,37.0,37.0,1311,2014-11-26,37.0,False,66.0,-1.0,colocated,left
65,1764.4682,1,437,2761,2975,4263,505,-9.0,200,1,1,1765.5158,1,0,735941.379449863,08_12_2014 level23_spatial_Magnum 08_37 log.txt,37.0,37.0,1311,2014-12-08,37.0,False,66.0,-1.0,colocated,left
65,1764.4682,1,437,2761,2975,4263,505,-9.0,200,1,1,1765.5158,1,0,735941.379449863,08_12_2014 level23_spatial_Magnum 08_37 log.txt,37.0,37.0,1311,2014-12-08,37.0,False,66.0,-1.0,colocated,left
97,577.7472,1,437,2761,2975,4263,503,-9.0,200,1,1,580.4143,1,0,735943.609464667,10_12_2014 level23_spatial_Magnum 14_28 log.txt,37.0,37.0,1311,2014-12-10,37.0,False,66.0,-1.0,colocated,left
87,602.5846,1,437,2761,2975,4263,501,-9.0,200,1,0,603.197,0,0,735947.381974359,14_12_2014 level23_spatial_Magnum 09_00 log.txt,37.0,37.0,1311,2014-12-14,37.0,False,66.0,-1.0,colocated,left
123,858.4706,1,437,2761,2975,4263,502,-9.0,200,1,1,862.5451,1,0,735692.458547113,03_04_2014 level23_spatial_Magnum 10_46 log.txt,37.0,37.0,1311,2014-04-03,37.0,False,66.0,-1.0,colocated,left
66,383.173,0,437,2761,2975,4263,501,-9.0,200,1,0,383.9247,0,0,735935.414157095,02_12_2014 level23_spatial_Magnum 09_50 log.txt,37.0,37.0,1311,2014-12-02,37.0,False,66.0,-1.0,colocated,left
117,835.8636,1,437,2761,2975,4263,506,-9.0,200,1,1,839.1487,1,0,735941.60064657,08_12_2014 level23_spatial_Magnum 14_11 log.txt,37.0,37.0,1311,2014-12-08,37.0,False,66.0,-1.0,colocated,left
8,154.0827,1,437,2761,2975,4263,509,-9.0,200,1,1,157.0267,1,0,735945.379561142,12_12_2014 level23_spatial_Magnum 09_04 log.txt,37.0,37.0,1311,2014-12-12,37.0,False,66.0,-1.0,colocated,left
74,519.0783,0,437,2761,2975,4263,506,-9.0,200,1,1,520.0763,1,0,735947.381007851,14_12_2014 level23_spatial_Magnum 09_00 log.txt,37.0,37.0,1311,2014-12-14,37.0,False,66.0,-1.0,colocated,left
134,827.8073,1,437,2761,2975,4263,508,-9.0,200,1,1,830.6507,1,0,735938.433886659,05_12_2014 level23_spatial_Magnum 10_11 log.txt,37.0,37.0,1311,2014-12-05,37.0,False,66.0,-1.0,colocated,left
134,827.8073,1,437,2761,2975,4263,508,-9.0,200,1,1,830.6507,1,0,735938.433886659,05_12_2014 level23_spatial_Magnum 10_11 log.txt,37.0,37.0,1311,2014-12-05,37.0,False,66.0,-1.0,colocated,left
65,1764.4682,1,437,2761,2975,4263,505,-9.0,200,1,1,1765.5158,1,0,735941.379449863,08_12_2014 level23_spatial_Magnum 08_37 log.txt,37.0,37.0,1311,2014-12-08,37.0,False,66.0,-1.0,colocated,left
22,227.9415,1,437,2761,2975,4263,501,-9.0,200,1,1,231.3204,1,0,735802.592221545,22_07_2014 level23_spatial_Magnum 14_09 log.txt,37.0,37.0,1311,2014-07-22,37.0,False,66.0,-1.0,colocated,left
8,154.0827,1,437,2761,2975,4263,509,-9.0,200,1,1,157.0267,1,0,735945.379561142,12_12_2014 level23_spatial_Magnum 09_04 log.txt,37.0,37.0,1311,2014-12-12,37.0,False,66.0,-1.0,colocated,left
97,577.7472,1,437,2761,2975,4263,503,-9.0,200,1,1,580.4143,1,0,735943.609464667,10_12_2014 level23_spatial_Magnum 14_28 log.txt,37.0,37.0,1311,2014-12-10,37.0,False,66.0,-1.0,colocated,left
66,383.173,0,437,2761,2975,4263,501,-9.0,200,1,0,383.9247,0,0,735935.414157095,02_12_2014 level23_spatial_Magnum 09_50 log.txt,37.0,37.0,1311,2014-12-02,37.0,False,66.0,-1.0,colocated,left
8,325.9109,0,437,2761,2975,4263,504,-9.0,200,1,0,326.7113,0,0,735937.380161006,04_12_2014 level23_spatial_Magnum 09_02 log.txt,37.0,37.0,1311,2014-12-04,37.0,False,66.0,-1.0,colocated,left
149,858.4483,1,437,2761,2975,4263,503,-9.0,200,1,1,861.6008,1,0,735944.400907966,11_12_2014 level23_spatial_Magnum 09_23 log.txt,37.0,37.0,1311,2014-12-11,37.0,False,66.0,-1.0,colocated,left
123,858.4706,1,437,2761,2975,4263,502,-9.0,200,1,1,862.5451,1,0,735692.458547113,03_04_2014 level23_spatial_Magnum 10_46 log.txt,37.0,37.0,1311,2014-04-03,37.0,False,66.0,-1.0,colocated,left
102,681.073,1,437,2761,2975,4263,505,-9.0,200,1,1,683.8371,1,0,735790.396771678,10_07_2014 level23_spatial_Magnum 09_20 log.txt,37.0,37.0,1311,2014-07-10,37.0,False,66.0,-1.0,colocated,left
87,602.5846,1,437,2761,2975,4263,501,-9.0,200,1,0,603.197,0,0,735947.381974359,14_12_2014 level23_spatial_Magnum 09_00 log.txt,37.0,37.0,1311,2014-12-14,37.0,False,66.0,-1.0,colocated,left
157,1045.2552,1,437,2761,2975,4263,504,-9.0,200,1,0,1047.939,0,0,735945.389875639,12_12_2014 level23_spatial_Magnum 09_04 log.txt,37.0,37.0,1311,2014-12-12,37.0,False,66.0,-1.0,colocated,left
10,57.5812,0,936,1551,2975,4263,511,-9.0,200,0,0,58.4916,1,0,735943.603444227,10_12_2014 level23_spatial_Magnum 14_28 log.txt,37.0,37.0,1311,2014-12-10,37.0,False,66.0,-1.0,colocated,left
103,1103.6029,0,936,1551,2975,4263,509,-9.0,200,0,0,1104.821,1,0,735937.657912071,04_12_2014 level23_spatial_Magnum 15_29 log.txt,36.0,34.3971092626306,1311,2014-12-04,35.198554631315304,False,66.0,-1.0,colocated,left
103,1103.6029,0,936,1551,2975,4263,509,-9.0,200,0,0,1104.821,1,0,735937.657912071,04_12_2014 level23_spatial_Magnum 15_29 log.txt,36.0,34.3971092626306,1311,2014-12-04,35.198554631315304,False,66.0,-1.0,colocated,left
110,708.7483,1,936,1551,2975,4263,506,-9.0,200,0,0,710.8281,1,0,735930.376953105,27_11_2014 level23_spatial_Magnum 08_51 log.txt,37.0,37.0,1311,2014-11-27,37.0,False,66.0,-1.0,colocated,left
110,708.7483,1,936,1551,2975,4263,506,-9.0,200,0,0,710.8281,1,0,735930.376953105,27_11_2014 level23_spatial_Magnum 08_51 log.txt,37.0,37.0,1311,2014-11-27,37.0,False,66.0,-1.0,colocated,left
86,534.7507,0,936,1551,2975,4263,507,-9.0,200,0,0,535.6559,1,0,735948.399939244,15_12_2014 level23_spatial_Magnum 09_27 log.txt,37.0,37.0,1311,2014-12-15,37.0,False,66.0,-1.0,colocated,left
129,740.7791,1,936,1551,2975,4263,509,-9.0,200,0,0,742.7784,1,0,735944.399546054,11_12_2014 level23_spatial_Magnum 09_23 log.txt,37.0,37.0,1311,2014-12-11,37.0,False,66.0,-1.0,colocated,left
39,387.1171,0,936,1551,2975,4263,503,-9.0,200,0,1,388.116,0,0,735929.419063855,26_11_2014 level23_spatial_Magnum 09_57 log.txt,37.0,37.0,1311,2014-11-26,37.0,False,66.0,-1.0,colocated,left
23,191.3355,1,936,1551,2975,4263,506,-9.0,200,0,0,196.0679,1,0,735941.593186754,08_12_2014 level23_spatial_Magnum 14_11 log.txt,37.0,37.0,1311,2014-12-08,37.0,False,66.0,-1.0,colocated,left
12,192.7142,1,936,1551,2975,4263,507,-9.0,200,0,0,196.8306,1,0,735931.376536044,28_11_2014 level23_spatial_Magnum 08_59 log.txt,37.0,37.0,1311,2014-11-28,37.0,False,66.0,-1.0,colocated,left
23,191.3355,1,936,1551,2975,4263,506,-9.0,200,0,0,196.0679,1,0,735941.593186754,08_12_2014 level23_spatial_Magnum 14_11 log.txt,37.0,37.0,1311,2014-12-08,37.0,False,66.0,-1.0,colocated,left
47,935.919,0,936,1551,2975,4263,509,-9.0,200,0,0,936.4179,1,0,735928.360832396,25_11_2014 level23_spatial_Magnum 08_24 log.txt,37.0,37.0,1311,2014-11-25,37.0,False,66.0,-1.0,colocated,left
142,915.641,1,936,1551,2975,4263,507,-9.0,200,0,0,917.7107,1,0,735946.388375474,13_12_2014 level23_spatial_Magnum 09_04 log.txt,37.0,37.0,1311,2014-12-13,37.0,False,66.0,-1.0,colocated,left
42,261.174,1,936,1551,2975,4263,501,-9.0,200,0,0,263.6057,1,0,735938.427328403,05_12_2014 level23_spatial_Magnum 10_11 log.txt,37.0,37.0,1311,2014-12-05,37.0,False,66.0,-1.0,colocated,left
7,40.5428,1,936,1551,2975,4263,509,-9.0,200,0,0,42.2971,1,0,735935.410191468,02_12_2014 level23_spatial_Magnum 09_50 log.txt,37.0,37.0,1311,2014-12-02,37.0,False,66.0,-1.0,colocated,left
69,423.8927,1,936,1551,2975,4263,505,-9.0,200,0,1,426.9201,0,0,735948.398656166,15_12_2014 level23_spatial_Magnum 09_27 log.txt,37.0,37.0,1311,2014-12-15,37.0,False,66.0,-1.0,colocated,left
69,423.8927,1,936,1551,2975,4263,505,-9.0,200,0,1,426.9201,0,0,735948.398656166,15_12_2014 level23_spatial_Magnum 09_27 log.txt,37.0,37.0,1311,2014-12-15,37.0,False,66.0,-1.0,colocated,left
132,818.3072,1,936,1551,2975,4263,506,-9.0,200,0,0,820.3175,1,0,735938.433776704,05_12_2014 level23_spatial_Magnum 10_11 log.txt,37.0,37.0,1311,2014-12-05,37.0,False,66.0,-1.0,colocated,left
39,387.1171,0,936,1551,2975,4263,503,-9.0,200,0,1,388.116,0,0,735929.419063855,26_11_2014 level23_spatial_Magnum 09_57 log.txt,37.0,37.0,1311,2014-11-26,37.0,False,66.0,-1.0,colocated,left
47,935.919,0,936,1551,2975,4263,509,-9.0,200,0,0,936.4179,1,0,735928.360832396,25_11_2014 level23_spatial_Magnum 08_24 log.txt,37.0,37.0,1311,2014-11-25,37.0,False,66.0,-1.0,colocated,left
39,387.1171,0,936,1551,2975,4263,503,-9.0,200,0,1,388.116,0,0,735929.419063855,26_11_2014 level23_spatial_Magnum 09_57 log.txt,37.0,37.0,1311,2014-11-26,37.0,False,66.0,-1.0,colocated,left
69,382.7125,0,936,1551,2975,4263,507,-9.0,200,0,0,383.5039,1,0,735944.395401765,11_12_2014 level23_spatial_Magnum 09_23 log.txt,37.0,37.0,1311,2014-12-11,37.0,False,66.0,-1.0,colocated,left
44,1673.4795,1,936,1551,2975,4263,508,-9.0,200,0,0,1674.2973,1,0,735941.378396753,08_12_2014 level23_spatial_Magnum 08_37 log.txt,37.0,37.0,1311,2014-12-08,37.0,False,66.0,-1.0,colocated,left
117,763.2432,1,437,2761,2975,4263,504,-9.0,200,1,1,766.706,1,1,735946.386611611,13_12_2014 level23_spatial_Magnum 09_04 log.txt,37.0,37.0,1311,2014-12-13,37.0,False,66.0,-1.0,colocated,right
75,528.9697,0,437,2761,2975,4263,511,-9.0,200,1,1,529.7789,1,1,735790.395011223,10_07_2014 level23_spatial_Magnum 09_20 log.txt,37.0,37.0,1311,2014-07-10,37.0,False,66.0,-1.0,colocated,right
92,569.8918,1,437,2761,2975,4263,508,-9.0,200,1,1,572.8032,1,1,735948.40034597,15_12_2014 level23_spatial_Magnum 09_27 log.txt,37.0,37.0,1311,2014-12-15,37.0,False,66.0,-1.0,colocated,right
28,444.1324,1,437,2761,2975,4263,502,-9.0,200,1,1,448.1424,1,1,735937.38152931,04_12_2014 level23_spatial_Magnum 09_02 log.txt,37.0,37.0,1311,2014-12-04,37.0,False,66.0,-1.0,colocated,right
92,569.8918,1,437,2761,2975,4263,508,-9.0,200,1,1,572.8032,1,1,735948.40034597,15_12_2014 level23_spatial_Magnum 09_27 log.txt,37.0,37.0,1311,2014-12-15,37.0,False,66.0,-1.0,colocated,right
40,284.898,0,437,2761,2975,4263,502,-9.0,200,1,0,285.903,0,1,735789.370658542,09_07_2014 level23_spatial_Magnum 08_49 log.txt,37.0,37.0,1311,2014-07-09,37.0,False,66.0,-1.0,colocated,right
125,779.4242,0,437,2761,2975,4263,509,-9.0,200,1,1,787.4174,1,1,735936.439576669,03_12_2014 level23_spatial_Magnum 10_20 log.txt,37.0,37.0,1311,2014-12-03,37.0,False,66.0,-1.0,colocated,right
58,382.1849,0,437,2761,2975,4263,501,-9.0,200,1,1,383.3075,1,1,735946.382201214,13_12_2014 level23_spatial_Magnum 09_04 log.txt,37.0,37.0,1311,2014-12-13,37.0,False,66.0,-1.0,colocated,right
117,763.2432,1,437,2761,2975,4263,504,-9.0,200,1,1,766.706,1,1,735946.386611611,13_12_2014 level23_spatial_Magnum 09_04 log.txt,37.0,37.0,1311,2014-12-13,37.0,False,66.0,-1.0,colocated,right
117,763.2432,1,437,2761,2975,4263,504,-9.0,200,1,1,766.706,1,1,735946.386611611,13_12_2014 level23_spatial_Magnum 09_04 log.txt,37.0,37.0,1311,2014-12-13,37.0,False,66.0,-1.0,colocated,right
47,357.7365,1,437,2761,2975,4263,502,-9.0,200,1,1,360.8887,1,1,735947.379140469,14_12_2014 level23_spatial_Magnum 09_00 log.txt,37.0,37.0,1311,2014-12-14,37.0,False,66.0,-1.0,colocated,right
92,569.8918,1,437,2761,2975,4263,508,-9.0,200,1,1,572.8032,1,1,735948.40034597,15_12_2014 level23_spatial_Magnum 09_27 log.txt,37.0,37.0,1311,2014-12-15,37.0,False,66.0,-1.0,colocated,right
52,344.6349,1,437,2761,2975,4263,508,-9.0,200,1,1,348.5181,1,1,735930.37273883,27_11_2014 level23_spatial_Magnum 08_51 log_BCooled.txt,37.0,37.0,1311,2014-11-27,37.0,False,66.0,-1.0,colocated,right
48,421.5402,0,437,2761,2975,4263,509,-9.0,200,1,1,422.499,1,1,735802.594462271,22_07_2014 level23_spatial_Magnum 14_09 log.txt,37.0,37.0,1311,2014-07-22,37.0,False,66.0,-1.0,colocated,right
10,180.9454,1,437,2761,2975,4263,505,-9.0,200,1,1,186.7304,1,1,735931.376399831,28_11_2014 level23_spatial_Magnum 08_59 log.txt,37.0,37.0,1311,2014-11-28,37.0,False,66.0,-1.0,colocated,right
125,779.4242,0,437,2761,2975,4263,509,-9.0,200,1,1,787.4174,1,1,735936.439576669,03_12_2014 level23_spatial_Magnum 10_20 log.txt,37.0,37.0,1311,2014-12-03,37.0,False,66.0,-1.0,colocated,right
102,771.5561,0,437,2761,2975,4263,509,-9.0,200,1,1,772.683,1,1,735929.423513381,26_11_2014 level23_spatial_Magnum 09_57 log.txt,37.0,37.0,1311,2014-11-26,37.0,False,66.0,-1.0,colocated,right
30,257.4203,1,437,2761,2975,4263,503,-9.0,200,1,1,262.1736,1,1,735692.451590513,03_04_2014 level23_spatial_Magnum 10_46 log.txt,37.0,37.0,1311,2014-04-03,37.0,False,66.0,-1.0,colocated,right
28,332.0218,0,437,2761,2975,4263,508,-9.0,200,1,1,333.2798,1,1,735929.418426178,26_11_2014 level23_spatial_Magnum 09_57 log.txt,37.0,37.0,1311,2014-11-26,37.0,False,66.0,-1.0,colocated,right
76,450.4124,0,437,2761,2975,4263,503,-9.0,200,1,1,451.6212,1,1,735938.429518662,05_12_2014 level23_spatial_Magnum 10_11 log.txt,37.0,37.0,1311,2014-12-05,37.0,False,66.0,-1.0,colocated,right
79,954.9374,1,437,2761,2975,4263,505,-9.0,200,1,1,958.6212,1,1,735937.656191405,04_12_2014 level23_spatial_Magnum 15_29 log.txt,36.0,35.0,1311,2014-12-04,35.5,False,66.0,-1.0,colocated,right
117,763.2432,1,437,2761,2975,4263,504,-9.0,200,1,1,766.706,1,1,735946.386611611,13_12_2014 level23_spatial_Magnum 09_04 log.txt,37.0,37.0,1311,2014-12-13,37.0,False,66.0,-1.0,colocated,right
101,610.4264,1,437,2761,2975,4263,508,-9.0,200,1,1,614.2396,1,1,735935.416787343,02_12_2014 level23_spatial_Magnum 09_50 log.txt,37.0,37.0,1311,2014-12-02,37.0,False,66.0,-1.0,colocated,right
137,843.9115,0,936,1551,2975,4263,506,-9.0,200,0,0,845.0935,1,1,735948.403517494,15_12_2014 level23_spatial_Magnum 09_27 log.txt,37.0,37.0,1311,2014-12-15,37.0,False,66.0,-1.0,colocated,right
115,708.1302,1,936,1551,2975,4263,502,-9.0,200,0,0,709.9036,1,1,735935.417918174,02_12_2014 level23_spatial_Magnum 09_50 log.txt,37.0,37.0,1311,2014-12-02,37.0,False,66.0,-1.0,colocated,right
102,922.4088,1,936,1551,2975,4263,508,-9.0,200,0,1,928.3414,0,1,735937.387064917,04_12_2014 level23_spatial_Magnum 09_02 log.txt,37.0,37.0,1311,2014-12-04,37.0,False,66.0,-1.0,colocated,right
142,890.5533,0,936,1551,2975,4263,502,-9.0,200,0,1,895.9893,0,1,735938.434612885,05_12_2014 level23_spatial_Magnum 10_11 log.txt,37.0,37.0,1311,2014-12-05,37.0,False,66.0,-1.0,colocated,right
72,476.4839,1,936,1551,2975,4263,504,-9.0,200,0,1,481.0329,0,1,735930.37426486,27_11_2014 level23_spatial_Magnum 08_51 log_BCooled.txt,37.0,37.0,1311,2014-11-27,37.0,False,66.0,-1.0,colocated,right
136,780.283,0,936,1551,2975,4263,503,-9.0,200,0,0,781.3733,1,1,735944.400003275,11_12_2014 level23_spatial_Magnum 09_23 log.txt,37.0,37.0,1311,2014-12-11,37.0,False,66.0,-1.0,colocated,right
52,404.3731,0,936,1551,2975,4263,507,-9.0,200,0,0,405.338,1,1,735945.382458022,12_12_2014 level23_spatial_Magnum 09_04 log.txt,37.0,37.0,1311,2014-12-12,37.0,False,66.0,-1.0,colocated,right
72,476.4839,1,936,1551,2975,4263,504,-9.0,200,0,1,481.0329,0,1,735930.37426486,27_11_2014 level23_spatial_Magnum 08_51 log_BCooled.txt,37.0,37.0,1311,2014-11-27,37.0,False,66.0,-1.0,colocated,right
20,107.1312,1,936,1551,2975,4263,507,-9.0,200,0,0,108.6599,1,1,735935.410962167,02_12_2014 level23_spatial_Magnum 09_50 log.txt,37.0,37.0,1311,2014-12-02,37.0,False,66.0,-1.0,colocated,right
101,1401.363,1,936,1551,2975,4263,501,-9.0,200,0,0,1403.7411,1,1,735942.393997257,09_12_2014 level23_spatial_Magnum 09_04 log.txt,37.0,37.0,1311,2014-12-09,37.0,False,66.0,-1.0,colocated,right
56,1725.8904,0,936,1551,2975,4263,507,-9.0,200,0,0,1726.4696,1,1,735941.379003361,08_12_2014 level23_spatial_Magnum 08_37 log.txt,37.0,37.0,1311,2014-12-08,37.0,False,66.0,-1.0,colocated,right
77,1835.3173,1,936,1551,2975,4263,510,-9.0,200,0,0,1836.2629,1,1,735941.380269876,08_12_2014 level23_spatial_Magnum 08_37 log.txt,37.0,37.0,1311,2014-12-08,37.0,False,66.0,-1.0,colocated,right
84,523.0354,1,936,1551,2975,4263,502,-9.0,200,0,0,526.9088,1,1,735936.436609206,03_12_2014 level23_spatial_Magnum 10_20 log.txt,37.0,37.0,1311,2014-12-03,37.0,False,66.0,-1.0,colocated,right
84,590.9891,1,936,1551,2975,4263,503,-9.0,200,0,0,593.7761,1,1,735945.384617929,12_12_2014 level23_spatial_Magnum 09_04 log.txt,37.0,37.0,1311,2014-12-12,37.0,False,66.0,-1.0,colocated,right
52,404.3731,0,936,1551,2975,4263,507,-9.0,200,0,0,405.338,1,1,735945.382458022,12_12_2014 level23_spatial_Magnum 09_04 log.txt,37.0,37.0,1311,2014-12-12,37.0,False,66.0,-1.0,colocated,right
14,80.2452,0,936,1551,2975,4263,502,-9.0,200,0,0,81.1906,1,1,735943.603706542,10_12_2014 level23_spatial_Magnum 14_28 log.txt,37.0,37.0,1311,2014-12-10,37.0,False,66.0,-1.0,colocated,right
72,476.4839,1,936,1551,2975,4263,504,-9.0,200,0,1,481.0329,0,1,735930.37426486,27_11_2014 level23_spatial_Magnum 08_51 log.txt,37.0,37.0,1311,2014-11-27,37.0,False,66.0,-1.0,colocated,right
101,1401.363,1,936,1551,2975,4263,501,-9.0,200,0,0,1403.7411,1,1,735942.393997257,09_12_2014 level23_spatial_Magnum 09_04 log.txt,37.0,37.0,1311,2014-12-09,37.0,False,66.0,-1.0,colocated,right
99,674.1706,0,936,1551,2975,4263,509,-9.0,200,0,0,675.14,1,1,735947.382802901,14_12_2014 level23_spatial_Magnum 09_00 log.txt,37.0,37.0,1311,2014-12-14,37.0,False,66.0,-1.0,colocated,right
95,697.346,0,936,1551,2975,4263,509,-9.0,200,0,1,698.7616,0,1,735931.38237669,28_11_2014 level23_spatial_Magnum 08_59 log.txt,37.0,37.0,1311,2014-11-28,37.0,False,66.0,-1.0,colocated,right
19,275.2164,0,936,1551,2975,4263,502,-9.0,200,0,1,276.2765,0,1,735929.417768708,26_11_2014 level23_spatial_Magnum 09_57 log.txt,37.0,37.0,1311,2014-11-26,37.0,False,66.0,-1.0,colocated,right
77,1835.3173,1,936,1551,2975,4263,510,-9.0,200,0,0,1836.2629,1,1,735941.380269876,08_12_2014 level23_spatial_Magnum 08_37 log.txt,37.0,37.0,1311,2014-12-08,37.0,False,66.0,-1.0,colocated,right
133,867.4776,0,936,1551,2975,4263,503,-9.0,200,0,0,868.5506,1,1,735930.37879025,27_11_2014 level23_spatial_Magnum 08_51 log.txt,37.0,37.0,1311,2014-11-27,37.0,False,66.0,-1.0,colocated,right
5,28.9018,0,437,2761,2975,4263,508,-12.0,200,1,0,30.1563,0,0,735943.603112289,10_12_2014 level23_spatial_Magnum 14_28 log.txt,37.0,37.0,1311,2014-12-10,37.0,False,69.0,2.0,colocated,left
89,1308.7808,1,437,2761,2975,4263,501,-12.0,200,1,1,1315.5609,1,0,735942.392925704,09_12_2014 level23_spatial_Magnum 09_04 log.txt,37.0,37.0,1311,2014-12-09,37.0,False,69.0,2.0,colocated,left
89,612.4363,1,437,2761,2975,4263,504,-12.0,200,1,1,613.1587,1,0,735790.395977272,10_07_2014 level23_spatial_Magnum 09_20 log.txt,37.0,37.0,1311,2014-07-10,37.0,False,69.0,2.0,colocated,left
139,895.8649,0,437,2761,2975,4263,511,-12.0,200,1,1,897.1049,1,0,735946.388146584,13_12_2014 level23_spatial_Magnum 09_04 log.txt,37.0,37.0,1311,2014-12-13,37.0,False,69.0,2.0,colocated,left
97,668.8407,0,437,2761,2975,4263,504,-12.0,200,1,0,669.6072,0,0,735945.38551899,12_12_2014 level23_spatial_Magnum 09_04 log.txt,37.0,37.0,1311,2014-12-12,37.0,False,69.0,2.0,colocated,left
133,898.7066,1,437,2761,2975,4263,505,-12.0,200,1,1,903.5448,1,0,735945.388179475,12_12_2014 level23_spatial_Magnum 09_04 log.txt,37.0,37.0,1311,2014-12-12,37.0,False,69.0,2.0,colocated,left
143,821.878,0,437,2761,2975,4263,508,-12.0,200,1,1,823.0475,1,0,735944.400484699,11_12_2014 level23_spatial_Magnum 09_23 log.txt,37.0,37.0,1311,2014-12-11,37.0,False,69.0,2.0,colocated,left
53,534.1254,1,437,2761,2975,4263,507,-12.0,200,1,1,538.1315,1,0,735805.616598674,25_07_2014 level23_spatial_Magnum 14_39 log.txt,37.0,37.0,1311,2014-07-25,37.0,False,69.0,2.0,colocated,left
64,408.5851,0,437,2761,2975,4263,508,-12.0,200,1,0,409.4151,0,0,735936.43528455,03_12_2014 level23_spatial_Magnum 10_20 log.txt,37.0,37.0,1311,2014-12-03,37.0,False,69.0,2.0,colocated,left
60,370.0523,0,437,2761,2975,4263,507,-12.0,200,1,1,372.2974,1,0,735936.434838568,03_12_2014 level23_spatial_Magnum 10_20 log.txt,37.0,37.0,1311,2014-12-03,37.0,False,69.0,2.0,colocated,left
63,465.4744,1,437,2761,2975,4263,509,-12.0,200,1,0,468.976,0,0,735941.596359657,08_12_2014 level23_spatial_Magnum 14_11 log.txt,37.0,37.0,1311,2014-12-08,37.0,False,69.0,2.0,colocated,left
139,895.8649,0,437,2761,2975,4263,511,-12.0,200,1,1,897.1049,1,0,735946.388146584,13_12_2014 level23_spatial_Magnum 09_04 log.txt,37.0,37.0,1311,2014-12-13,37.0,False,69.0,2.0,colocated,left
126,1584.282,0,437,2761,2975,4263,504,-12.0,200,1,1,1585.6334,1,0,735942.396114375,09_12_2014 level23_spatial_Magnum 09_04 log.txt,37.0,37.0,1311,2014-12-09,37.0,False,69.0,2.0,colocated,left
60,370.0523,0,437,2761,2975,4263,507,-12.0,200,1,1,372.2974,1,0,735936.434838568,03_12_2014 level23_spatial_Magnum 10_20 log.txt,37.0,37.0,1311,2014-12-03,37.0,False,69.0,2.0,colocated,left
9,163.3951,0,437,2761,2975,4263,503,-12.0,200,1,1,164.4544,1,0,735945.379668925,12_12_2014 level23_spatial_Magnum 09_04 log.txt,37.0,37.0,1311,2014-12-12,37.0,False,69.0,2.0,colocated,left
63,465.4744,1,437,2761,2975,4263,509,-12.0,200,1,0,468.976,0,0,735941.596359657,08_12_2014 level23_spatial_Magnum 14_11 log.txt,37.0,37.0,1311,2014-12-08,37.0,False,69.0,2.0,colocated,left
100,721.7131,0,437,2761,2975,4263,501,-12.0,200,1,1,723.4396,1,0,735931.382658717,28_11_2014 level23_spatial_Magnum 08_59 log.txt,37.0,37.0,1311,2014-11-28,37.0,False,69.0,2.0,colocated,left
128,913.7808,1,437,2761,2975,4263,501,-12.0,200,1,1,916.9903,1,0,735941.601548389,08_12_2014 level23_spatial_Magnum 14_11 log.txt,37.0,37.0,1311,2014-12-08,37.0,False,69.0,2.0,colocated,left
86,510.3682,1,437,2761,2975,4263,503,-12.0,200,1,1,512.6468,1,0,735788.753129262,08_07_2014 level23_spatial_Magnum 17_56 log.txt,37.0,37.0,1311,2014-07-08,37.0,False,69.0,2.0,colocated,left
16,1536.7532,0,437,2761,2975,4263,504,-12.0,200,1,0,1537.7238,0,0,735941.376814273,08_12_2014 level23_spatial_Magnum 08_37 log.txt,37.0,37.0,1311,2014-12-08,37.0,False,69.0,2.0,colocated,left
50,380.2454,1,437,2761,2975,4263,503,-12.0,200,1,0,382.6251,0,0,735947.379400988,14_12_2014 level23_spatial_Magnum 09_00 log.txt,37.0,37.0,1311,2014-12-14,37.0,False,69.0,2.0,colocated,left
30,288.181,1,437,2761,2975,4263,504,-12.0,200,1,1,290.8854,1,0,735802.592918762,22_07_2014 level23_spatial_Magnum 14_09 log.txt,37.0,37.0,1311,2014-07-22,37.0,False,69.0,2.0,colocated,left
64,431.6966,0,437,2761,2975,4263,503,-12.0,200,1,1,432.5664,1,0,735789.3723576,09_07_2014 level23_spatial_Magnum 08_49 log.txt,37.0,37.0,1311,2014-07-09,37.0,False,69.0,2.0,colocated,left
76,545.8737,1,936,1551,2975,4263,510,-12.0,200,0,0,547.9007,1,0,735945.38409576,12_12_2014 level23_spatial_Magnum 09_04 log.txt,37.0,37.0,1311,2014-12-12,37.0,False,69.0,2.0,colocated,left
113,650.1784,0,936,1551,2975,4263,504,-12.0,200,0,0,651.0624,1,0,735944.398497435,11_12_2014 level23_spatial_Magnum 09_23 log.txt,37.0,37.0,1311,2014-12-11,37.0,False,69.0,2.0,colocated,left
95,682.8313,1,936,1551,2975,4263,507,-12.0,200,0,0,687.5736,1,0,735692.456514251,03_04_2014 level23_spatial_Magnum 10_46 log.txt,37.0,37.0,1311,2014-04-03,37.0,False,69.0,2.0,colocated,left
113,650.1784,0,936,1551,2975,4263,504,-12.0,200,0,0,651.0624,1,0,735944.398497435,11_12_2014 level23_spatial_Magnum 09_23 log.txt,37.0,37.0,1311,2014-12-11,37.0,False,69.0,2.0,colocated,left
89,660.6608,1,936,1551,2975,4263,503,-12.0,200,0,0,661.4049,1,0,735941.598618759,08_12_2014 level23_spatial_Magnum 14_11 log.txt,37.0,37.0,1311,2014-12-08,37.0,False,69.0,2.0,colocated,left
13,133.1922,1,936,1551,2975,4263,503,-12.0,200,0,0,136.7955,1,0,735692.450152687,03_04_2014 level23_spatial_Magnum 10_46 log.txt,37.0,37.0,1311,2014-04-03,37.0,False,69.0,2.0,colocated,left
136,960.0251,0,936,1551,2975,4263,510,-12.0,200,0,0,960.5838,1,0,735929.425694735,26_11_2014 level23_spatial_Magnum 09_57 log.txt,37.0,37.0,1311,2014-11-26,37.0,False,69.0,2.0,colocated,left
84,748.3157,1,936,1551,2975,4263,501,-12.0,200,0,0,751.8317,1,0,735805.619077728,25_07_2014 level23_spatial_Magnum 14_39 log.txt,37.0,37.0,1311,2014-07-25,37.0,False,69.0,2.0,colocated,left
52,314.3,0,936,1551,2975,4263,504,-12.0,200,0,0,315.2059,1,0,735948.397387731,15_12_2014 level23_spatial_Magnum 09_27 log.txt,37.0,37.0,1311,2014-12-15,37.0,False,69.0,2.0,colocated,left
86,714.3682,0,936,1551,2975,4263,501,-12.0,200,0,1,715.3912,0,0,735802.597851484,22_07_2014 level23_spatial_Magnum 14_09 log.txt,37.0,37.0,1311,2014-07-22,37.0,False,69.0,2.0,colocated,left
58,1733.214,1,936,1551,2975,4263,511,-12.0,200,0,0,1733.7673,1,0,735941.379088125,08_12_2014 level23_spatial_Magnum 08_37 log.txt,37.0,37.0,1311,2014-12-08,37.0,False,69.0,2.0,colocated,left
60,528.5571,0,936,1551,2975,4263,501,-12.0,200,0,0,530.5714,1,0,735802.595700892,22_07_2014 level23_spatial_Magnum 14_09 log.txt,37.0,37.0,1311,2014-07-22,37.0,False,69.0,2.0,colocated,left
27,283.9064,1,936,1551,2975,4263,501,-12.0,200,0,0,285.8697,1,0,735931.377591509,28_11_2014 level23_spatial_Magnum 08_59 log.txt,37.0,37.0,1311,2014-11-28,37.0,False,69.0,2.0,colocated,left
81,578.6547,0,936,1551,2975,4263,504,-12.0,200,0,0,579.5374,1,0,735945.38447517,12_12_2014 level23_spatial_Magnum 09_04 log.txt,37.0,37.0,1311,2014-12-12,37.0,False,69.0,2.0,colocated,left
74,436.3973,1,936,1551,2975,4263,509,-12.0,200,0,1,438.6269,0,0,735788.752273117,08_07_2014 level23_spatial_Magnum 17_56 log.txt,37.0,37.0,1311,2014-07-08,37.0,False,69.0,2.0,colocated,left
114,714.1181,0,936,1551,2975,4263,506,-12.0,200,0,0,714.9014,1,0,735936.438820811,03_12_2014 level23_spatial_Magnum 10_20 log.txt,37.0,37.0,1311,2014-12-03,37.0,False,69.0,2.0,colocated,left
74,436.3973,1,936,1551,2975,4263,509,-12.0,200,0,1,438.6269,0,0,735788.752273117,08_07_2014 level23_spatial_Magnum 17_56 log.txt,37.0,37.0,1311,2014-07-08,37.0,False,69.0,2.0,colocated,left
154,1032.0676,1,936,1551,2975,4263,505,-12.0,200,0,0,1035.0698,1,0,735945.389723005,12_12_2014 level23_spatial_Magnum 09_04 log.txt,37.0,37.0,1311,2014-12-12,37.0,False,69.0,2.0,colocated,left
119,868.2997,0,936,1551,2975,4263,502,-12.0,200,0,0,868.7933,1,0,735929.424633098,26_11_2014 level23_spatial_Magnum 09_57 log.txt,37.0,37.0,1311,2014-11-26,37.0,False,69.0,2.0,colocated,left
27,283.9064,1,936,1551,2975,4263,501,-12.0,200,0,0,285.8697,1,0,735931.377591509,28_11_2014 level23_spatial_Magnum 08_59 log.txt,37.0,37.0,1311,2014-11-28,37.0,False,69.0,2.0,colocated,left
72,424.7519,1,936,1551,2975,4263,501,-12.0,200,0,0,426.821,1,0,735938.429221665,05_12_2014 level23_spatial_Magnum 10_11 log.txt,37.0,37.0,1311,2014-12-05,37.0,False,69.0,2.0,colocated,left
81,578.6547,0,936,1551,2975,4263,504,-12.0,200,0,0,579.5374,1,0,735945.38447517,12_12_2014 level23_spatial_Magnum 09_04 log.txt,37.0,37.0,1311,2014-12-12,37.0,False,69.0,2.0,colocated,left
21,166.0708,1,936,1551,2975,4263,510,-12.0,200,0,0,166.8871,1,0,735789.369283227,09_07_2014 level23_spatial_Magnum 08_49 log.txt,37.0,37.0,1311,2014-07-09,37.0,False,69.0,2.0,colocated,left
17,85.0842,1,437,2761,2975,4263,502,-12.0,200,1,0,87.8321,0,1,735944.391956993,11_12_2014 level23_spatial_Magnum 09_23 log.txt,37.0,37.0,1311,2014-12-11,37.0,False,69.0,2.0,colocated,right
138,933.13,0,437,2761,2975,4263,506,-12.0,200,1,0,934.0134,0,1,735945.388577893,12_12_2014 level23_spatial_Magnum 09_04 log.txt,37.0,37.0,1311,2014-12-12,37.0,False,69.0,2.0,colocated,right
43,298.3999,1,437,2761,2975,4263,510,-12.0,200,1,1,301.3709,1,1,735930.372203703,27_11_2014 level23_spatial_Magnum 08_51 log_BCooled.txt,37.0,37.0,1311,2014-11-27,37.0,False,69.0,2.0,colocated,right
43,298.3999,1,437,2761,2975,4263,510,-12.0,200,1,1,301.3709,1,1,735930.372203703,27_11_2014 level23_spatial_Magnum 08_51 log.txt,37.0,37.0,1311,2014-11-27,37.0,False,69.0,2.0,colocated,right
115,717.9724,1,437,2761,2975,4263,505,-12.0,200,1,0,721.2762,0,1,735936.438865421,03_12_2014 level23_spatial_Magnum 10_20 log.txt,37.0,37.0,1311,2014-12-03,37.0,False,69.0,2.0,colocated,right
42,368.8095,1,437,2761,2975,4263,502,-12.0,200,1,1,369.8602,1,1,735931.378574184,28_11_2014 level23_spatial_Magnum 08_59 log.txt,37.0,37.0,1311,2014-11-28,37.0,False,69.0,2.0,colocated,right
66,628.8015,0,437,2761,2975,4263,508,-12.0,200,1,0,629.8773,0,1,735805.617694462,25_07_2014 level23_spatial_Magnum 14_39 log.txt,37.0,37.0,1311,2014-07-25,37.0,False,69.0,2.0,colocated,right
40,244.1182,1,437,2761,2975,4263,508,-12.0,200,1,1,247.168,1,1,735938.427130998,05_12_2014 level23_spatial_Magnum 10_11 log.txt,37.0,37.0,1311,2014-12-05,37.0,False,69.0,2.0,colocated,right
75,604.0574,0,437,2761,2975,4263,509,-12.0,200,1,1,605.3134,1,1,735929.421574738,26_11_2014 level23_spatial_Magnum 09_57 log.txt,37.0,37.0,1311,2014-11-26,37.0,False,69.0,2.0,colocated,right
60,393.8555,1,437,2761,2975,4263,506,-12.0,200,1,1,397.7349,1,1,735946.38233629,13_12_2014 level23_spatial_Magnum 09_04 log.txt,37.0,37.0,1311,2014-12-13,37.0,False,69.0,2.0,colocated,right
49,338.9156,1,437,2761,2975,4263,502,-12.0,200,1,1,340.046,1,1,735789.371283745,09_07_2014 level23_spatial_Magnum 08_49 log.txt,37.0,37.0,1311,2014-07-09,37.0,False,69.0,2.0,colocated,right
90,616.4061,1,437,2761,2975,4263,505,-12.0,200,1,1,619.997,1,1,735790.396023219,10_07_2014 level23_spatial_Magnum 09_20 log.txt,37.0,37.0,1311,2014-07-10,37.0,False,69.0,2.0,colocated,right
185,1222.754,0,437,2761,2975,4263,504,-12.0,200,1,1,1224.0271,1,1,735929.428735579,26_11_2014 level23_spatial_Magnum 09_57 log.txt,37.0,37.0,1311,2014-11-26,37.0,False,69.0,2.0,colocated,right
81,595.1142,0,437,2761,2975,4263,506,-12.0,200,1,1,596.4619,1,1,735692.455499007,03_04_2014 level23_spatial_Magnum 10_46 log.txt,37.0,37.0,1311,2014-04-03,37.0,False,69.0,2.0,colocated,right
85,635.9239,0,437,2761,2975,4263,507,-12.0,200,1,1,636.804,1,1,735931.381665786,28_11_2014 level23_spatial_Magnum 08_59 log.txt,37.0,37.0,1311,2014-11-28,37.0,False,69.0,2.0,colocated,right
83,520.909,0,437,2761,2975,4263,509,-12.0,200,1,0,521.9317,0,1,735948.399779039,15_12_2014 level23_spatial_Magnum 09_27 log.txt,37.0,37.0,1311,2014-12-15,37.0,False,69.0,2.0,colocated,right
60,393.8555,1,437,2761,2975,4263,506,-12.0,200,1,1,397.7349,1,1,735946.38233629,13_12_2014 level23_spatial_Magnum 09_04 log.txt,37.0,37.0,1311,2014-12-13,37.0,False,69.0,2.0,colocated,right
80,537.1642,1,437,2761,2975,4263,503,-12.0,200,1,0,539.8844,0,1,735946.383994956,13_12_2014 level23_spatial_Magnum 09_04 log.txt,37.0,37.0,1311,2014-12-13,37.0,False,69.0,2.0,colocated,right
45,312.5494,0,437,2761,2975,4263,505,-12.0,200,1,1,313.3377,1,1,735789.370978581,09_07_2014 level23_spatial_Magnum 08_49 log.txt,37.0,37.0,1311,2014-07-09,37.0,False,69.0,2.0,colocated,right
28,288.7963,1,437,2761,2975,4263,504,-12.0,200,1,1,292.3799,1,1,735931.377648105,28_11_2014 level23_spatial_Magnum 08_59 log.txt,37.0,37.0,1311,2014-11-28,37.0,False,69.0,2.0,colocated,right
37,304.7928,0,437,2761,2975,4263,508,-12.0,200,1,1,306.0139,1,1,735947.378527694,14_12_2014 level23_spatial_Magnum 09_00 log.txt,37.0,37.0,1311,2014-12-14,37.0,False,69.0,2.0,colocated,right
37,199.1097,1,437,2761,2975,4263,502,-12.0,200,1,1,201.6749,1,1,735943.605082288,10_12_2014 level23_spatial_Magnum 14_28 log.txt,37.0,37.0,1311,2014-12-10,37.0,False,69.0,2.0,colocated,right
60,1740.6352,1,437,2761,2975,4263,502,-12.0,200,1,1,1741.6449,1,1,735941.379174019,08_12_2014 level23_spatial_Magnum 08_37 log.txt,37.0,37.0,1311,2014-12-08,37.0,False,69.0,2.0,colocated,right
8,55.9586,0,936,1551,2975,4263,502,-12.0,200,0,1,57.0833,0,1,735788.747869891,08_07_2014 level23_spatial_Magnum 17_56 log.txt,37.0,37.0,1311,2014-07-08,37.0,False,69.0,2.0,colocated,right
18,157.5955,1,936,1551,2975,4263,510,-12.0,200,0,0,160.2297,1,1,735941.592796244,08_12_2014 level23_spatial_Magnum 14_11 log.txt,37.0,37.0,1311,2014-12-08,37.0,False,69.0,2.0,colocated,right
26,876.7588,0,936,1551,2975,4263,501,-12.0,200,0,0,877.7114,1,1,735942.387925449,09_12_2014 level23_spatial_Magnum 09_04 log.txt,37.0,37.0,1311,2014-12-09,37.0,False,69.0,2.0,colocated,right
23,129.1145,0,936,1551,2975,4263,504,-12.0,200,0,0,129.9797,1,1,735943.604272159,10_12_2014 level23_spatial_Magnum 14_28 log.txt,37.0,37.0,1311,2014-12-10,37.0,False,69.0,2.0,colocated,right
82,582.6756,0,936,1551,2975,4263,509,-12.0,200,0,0,583.8137,1,1,735945.384521708,12_12_2014 level23_spatial_Magnum 09_04 log.txt,37.0,37.0,1311,2014-12-12,37.0,False,69.0,2.0,colocated,right
107,607.084,1,936,1551,2975,4263,507,-12.0,200,0,0,610.5472,1,1,735944.397998657,11_12_2014 level23_spatial_Magnum 09_23 log.txt,37.0,37.0,1311,2014-12-11,37.0,False,69.0,2.0,colocated,right
65,398.4316,1,936,1551,2975,4263,501,-12.0,200,0,0,401.233,1,1,735948.398361477,15_12_2014 level23_spatial_Magnum 09_27 log.txt,37.0,37.0,1311,2014-12-15,37.0,False,69.0,2.0,colocated,right
60,403.6623,1,936,1551,2975,4263,509,-12.0,200,0,0,407.6633,1,1,735789.372033129,09_07_2014 level23_spatial_Magnum 08_49 log.txt,37.0,37.0,1311,2014-07-09,37.0,False,69.0,2.0,colocated,right
23,129.1145,0,936,1551,2975,4263,504,-12.0,200,0,0,129.9797,1,1,735943.604272159,10_12_2014 level23_spatial_Magnum 14_28 log.txt,37.0,37.0,1311,2014-12-10,37.0,False,69.0,2.0,colocated,right
130,827.5782,0,936,1551,2975,4263,509,-12.0,200,0,0,828.5929,1,1,735936.440134007,03_12_2014 level23_spatial_Magnum 10_20 log.txt,37.0,37.0,1311,2014-12-03,37.0,False,69.0,2.0,colocated,right
162,1012.3373,0,936,1551,2975,4263,504,-12.0,200,0,0,1012.9402,1,1,735938.436022422,05_12_2014 level23_spatial_Magnum 10_11 log.txt,37.0,37.0,1311,2014-12-05,37.0,False,69.0,2.0,colocated,right
57,326.0484,1,936,1551,2975,4263,509,-12.0,200,0,1,330.2636,0,1,735935.413495931,02_12_2014 level23_spatial_Magnum 09_50 log.txt,37.0,37.0,1311,2014-12-02,37.0,False,69.0,2.0,colocated,right
20,121.5094,1,936,1551,2975,4263,509,-12.0,200,0,1,126.2849,0,1,735938.425711914,05_12_2014 level23_spatial_Magnum 10_11 log.txt,37.0,37.0,1311,2014-12-05,37.0,False,69.0,2.0,colocated,right
18,97.929,0,936,1551,2975,4263,503,-12.0,200,0,0,98.6745,1,1,735936.431688993,03_12_2014 level23_spatial_Magnum 10_20 log.txt,37.0,37.0,1311,2014-12-03,37.0,False,69.0,2.0,colocated,right
11,188.792,1,936,1551,2975,4263,508,-12.0,200,0,0,189.0995,1,1,735931.376490648,28_11_2014 level23_spatial_Magnum 08_59 log.txt,37.0,37.0,1311,2014-11-28,37.0,False,69.0,2.0,colocated,right
103,669.8382,1,936,1551,2975,4263,510,-12.0,200,0,1,674.0824,0,1,735930.376502757,27_11_2014 level23_spatial_Magnum 08_51 log.txt,37.0,37.0,1311,2014-11-27,37.0,False,69.0,2.0,colocated,right
35,262.4531,0,936,1551,2975,4263,501,-12.0,200,0,1,263.9052,0,1,735930.371787652,27_11_2014 level23_spatial_Magnum 08_51 log.txt,37.0,37.0,1311,2014-11-27,37.0,False,69.0,2.0,colocated,right
62,482.0238,1,936,1551,2975,4263,510,-12.0,200,0,1,485.7367,0,1,735931.379884535,28_11_2014 level23_spatial_Magnum 08_59 log.txt,37.0,37.0,1311,2014-11-28,37.0,False,69.0,2.0,colocated,right
47,325.7184,1,936,1551,2975,4263,511,-12.0,200,0,0,328.6795,1,1,735789.371131,09_07_2014 level23_spatial_Magnum 08_49 log.txt,37.0,37.0,1311,2014-07-09,37.0,False,69.0,2.0,colocated,right
103,669.8382,1,936,1551,2975,4263,510,-12.0,200,0,1,674.0824,0,1,735930.376502757,27_11_2014 level23_spatial_Magnum 08_51 log.txt,37.0,37.0,1311,2014-11-27,37.0,False,69.0,2.0,colocated,right
59,506.36,0,936,1551,2975,4263,511,-12.0,200,0,0,507.4136,1,1,735929.420443981,26_11_2014 level23_spatial_Magnum 09_57 log.txt,37.0,37.0,1311,2014-11-26,37.0,False,69.0,2.0,colocated,right
162,1012.3373,0,936,1551,2975,4263,504,-12.0,200,0,0,1012.9402,1,1,735938.436022422,05_12_2014 level23_spatial_Magnum 10_11 log.txt,37.0,37.0,1311,2014-12-05,37.0,False,69.0,2.0,colocated,right
59,388.4023,1,936,1551,2975,4263,502,-12.0,200,0,0,390.8579,1,1,735946.382273175,13_12_2014 level23_spatial_Magnum 09_04 log.txt,37.0,37.0,1311,2014-12-13,37.0,False,69.0,2.0,colocated,right
139,889.4909,0,437,2761,2975,4263,510,-15.0,200,1,0,890.356,0,0,735936.440850589,03_12_2014 level23_spatial_Magnum 10_20 log.txt,37.0,37.0,1311,2014-12-03,37.0,False,72.0,5.0,colocated,left
154,1045.5606,0,437,2761,2975,4263,504,-15.0,200,1,1,1046.3696,1,0,735929.426684729,26_11_2014 level23_spatial_Magnum 09_57 log.txt,37.0,37.0,1311,2014-11-26,37.0,False,72.0,5.0,colocated,left
74,408.8567,1,437,2761,2975,4263,503,-15.0,200,1,0,411.1143,0,0,735944.39570436,11_12_2014 level23_spatial_Magnum 09_23 log.txt,37.0,37.0,1311,2014-12-11,37.0,False,72.0,5.0,colocated,left
8,44.4489,0,437,2761,2975,4263,507,-15.0,200,1,1,45.9565,1,0,735943.603292233,10_12_2014 level23_spatial_Magnum 14_28 log.txt,37.0,37.0,1311,2014-12-10,37.0,False,72.0,5.0,colocated,left
119,1076.259,1,437,2761,2975,4263,509,-15.0,200,1,0,1078.1078,0,0,735937.38884559,04_12_2014 level23_spatial_Magnum 09_02 log.txt,37.0,37.0,1311,2014-12-04,37.0,False,72.0,5.0,colocated,left
74,408.8567,1,437,2761,2975,4263,503,-15.0,200,1,0,411.1143,0,0,735944.39570436,11_12_2014 level23_spatial_Magnum 09_23 log.txt,37.0,37.0,1311,2014-12-11,37.0,False,72.0,5.0,colocated,left
89,528.3198,1,437,2761,2975,4263,507,-15.0,200,1,1,532.2793,1,0,735938.430420368,05_12_2014 level23_spatial_Magnum 10_11 log.txt,37.0,37.0,1311,2014-12-05,37.0,False,72.0,5.0,colocated,left
117,668.4828,1,437,2761,2975,4263,504,-15.0,200,1,1,671.9674,1,0,735944.398709292,11_12_2014 level23_spatial_Magnum 09_23 log.txt,37.0,37.0,1311,2014-12-11,37.0,False,72.0,5.0,colocated,left
106,661.4571,0,437,2761,2975,4263,508,-15.0,200,1,0,662.4937,0,0,735948.401405754,15_12_2014 level23_spatial_Magnum 09_27 log.txt,37.0,37.0,1311,2014-12-15,37.0,False,72.0,5.0,colocated,left
74,408.8567,1,437,2761,2975,4263,503,-15.0,200,1,0,411.1143,0,0,735944.39570436,11_12_2014 level23_spatial_Magnum 09_23 log.txt,37.0,37.0,1311,2014-12-11,37.0,False,72.0,5.0,colocated,left
35,213.1071,1,437,2761,2975,4263,508,-15.0,200,1,1,215.3325,1,0,735948.396216517,15_12_2014 level23_spatial_Magnum 09_27 log.txt,37.0,37.0,1311,2014-12-15,37.0,False,72.0,5.0,colocated,left
74,408.8567,1,437,2761,2975,4263,503,-15.0,200,1,0,411.1143,0,0,735944.39570436,11_12_2014 level23_spatial_Magnum 09_23 log.txt,37.0,37.0,1311,2014-12-11,37.0,False,72.0,5.0,colocated,left
24,201.5735,1,437,2761,2975,4263,504,-15.0,200,1,0,205.2663,0,0,735941.593305249,08_12_2014 level23_spatial_Magnum 14_11 log.txt,37.0,37.0,1311,2014-12-08,37.0,False,72.0,5.0,colocated,left
42,1664.6817,1,437,2761,2975,4263,511,-15.0,200,1,0,1665.4451,0,0,735941.378294927,08_12_2014 level23_spatial_Magnum 08_37 log.txt,37.0,37.0,1311,2014-12-08,37.0,False,72.0,5.0,colocated,left
99,1074.6032,0,437,2761,2975,4263,510,-15.0,200,1,0,1075.5201,0,0,735937.657576426,04_12_2014 level23_spatial_Magnum 15_29 log.txt,36.0,35.0,1311,2014-12-04,35.5,False,72.0,5.0,colocated,left
42,1664.6817,1,437,2761,2975,4263,511,-15.0,200,1,0,1665.4451,0,0,735941.378294927,08_12_2014 level23_spatial_Magnum 08_37 log.txt,37.0,37.0,1311,2014-12-08,37.0,False,72.0,5.0,colocated,left
51,297.4121,1,437,2761,2975,4263,506,-15.0,200,1,1,301.0494,1,0,735936.433997825,03_12_2014 level23_spatial_Magnum 10_20 log.txt,37.0,37.0,1311,2014-12-03,37.0,False,72.0,5.0,colocated,left
92,640.9249,1,437,2761,2975,4263,502,-15.0,200,1,1,644.2251,1,0,735945.38519589,12_12_2014 level23_spatial_Magnum 09_04 log.txt,37.0,37.0,1311,2014-12-12,37.0,False,72.0,5.0,colocated,left
42,1664.6817,1,437,2761,2975,4263,511,-15.0,200,1,0,1665.4451,0,0,735941.378294927,08_12_2014 level23_spatial_Magnum 08_37 log.txt,37.0,37.0,1311,2014-12-08,37.0,False,72.0,5.0,colocated,left
42,339.7031,0,437,2761,2975,4263,506,-15.0,200,1,0,341.9661,0,0,735692.45254286,03_04_2014 level23_spatial_Magnum 10_46 log.txt,37.0,37.0,1311,2014-04-03,37.0,False,72.0,5.0,colocated,left
51,297.4121,1,437,2761,2975,4263,506,-15.0,200,1,1,301.0494,1,0,735936.433997825,03_12_2014 level23_spatial_Magnum 10_20 log.txt,37.0,37.0,1311,2014-12-03,37.0,False,72.0,5.0,colocated,left
64,468.8743,0,437,2761,2975,4263,502,-15.0,200,1,1,470.105,1,0,735945.383204564,12_12_2014 level23_spatial_Magnum 09_04 log.txt,37.0,37.0,1311,2014-12-12,37.0,False,72.0,5.0,colocated,left
92,640.9249,1,437,2761,2975,4263,502,-15.0,200,1,1,644.2251,1,0,735945.38519589,12_12_2014 level23_spatial_Magnum 09_04 log.txt,37.0,37.0,1311,2014-12-12,37.0,False,72.0,5.0,colocated,left
3,16.369,0,936,1551,2975,4263,509,-15.0,200,0,1,20.4208,0,0,735943.602967234,10_12_2014 level23_spatial_Magnum 14_28 log.txt,37.0,37.0,1311,2014-12-10,37.0,False,72.0,5.0,colocated,left
79,579.432,0,936,1551,2975,4263,510,-15.0,200,0,0,581.6462,1,0,735692.4553175,03_04_2014 level23_spatial_Magnum 10_46 log.txt,37.0,37.0,1311,2014-04-03,37.0,False,72.0,5.0,colocated,left
46,347.2668,1,936,1551,2975,4263,502,-15.0,200,0,0,350.3176,1,0,735941.594991514,08_12_2014 level23_spatial_Magnum 14_11 log.txt,37.0,37.0,1311,2014-12-08,37.0,False,72.0,5.0,colocated,left
38,271.6358,0,936,1551,2975,4263,501,-15.0,200,0,0,273.1438,1,0,735789.370505044,09_07_2014 level23_spatial_Magnum 08_49 log.txt,37.0,37.0,1311,2014-07-09,37.0,False,72.0,5.0,colocated,left
129,835.3436,1,936,1551,2975,4263,505,-15.0,200,0,0,838.4605,1,0,735946.387446106,13_12_2014 level23_spatial_Magnum 09_04 log.txt,37.0,37.0,1311,2014-12-13,37.0,False,72.0,5.0,colocated,left
137,1658.7876,1,936,1551,2975,4263,510,-15.0,200,0,0,1659.294,1,0,735942.396976708,09_12_2014 level23_spatial_Magnum 09_04 log.txt,37.0,37.0,1311,2014-12-09,37.0,False,72.0,5.0,colocated,left
55,996.7506,1,936,1551,2975,4263,509,-15.0,200,0,0,998.741,1,0,735928.361536465,25_11_2014 level23_spatial_Magnum 08_24 log.txt,37.0,37.0,1311,2014-11-25,37.0,False,72.0,5.0,colocated,left
146,901.3998,0,936,1551,2975,4263,510,-15.0,200,0,0,902.3424,1,0,735948.404182868,15_12_2014 level23_spatial_Magnum 09_27 log.txt,37.0,37.0,1311,2014-12-15,37.0,False,72.0,5.0,colocated,left
87,481.594,0,936,1551,2975,4263,506,-15.0,200,0,0,482.6988,1,0,735944.396546227,11_12_2014 level23_spatial_Magnum 09_23 log.txt,37.0,37.0,1311,2014-12-11,37.0,False,72.0,5.0,colocated,left
73,1796.5842,1,936,1551,2975,4263,502,-15.0,200,0,1,1797.9064,0,0,735941.379821576,08_12_2014 level23_spatial_Magnum 08_37 log.txt,37.0,37.0,1311,2014-12-08,37.0,False,72.0,5.0,colocated,left
41,326.1982,1,936,1551,2975,4263,510,-15.0,200,0,0,326.8411,1,0,735947.378775442,14_12_2014 level23_spatial_Magnum 09_00 log.txt,37.0,37.0,1311,2014-12-14,37.0,False,72.0,5.0,colocated,left
47,321.0802,0,936,1551,2975,4263,501,-15.0,200,0,0,322.0716,1,0,735930.372466206,27_11_2014 level23_spatial_Magnum 08_51 log_BCooled.txt,37.0,37.0,1311,2014-11-27,37.0,False,72.0,5.0,colocated,left
68,491.0028,1,936,1551,2975,4263,505,-15.0,200,0,1,493.698,0,0,735790.394571792,10_07_2014 level23_spatial_Magnum 09_20 log.txt,37.0,37.0,1311,2014-07-10,37.0,False,72.0,5.0,colocated,left
65,545.7746,0,936,1551,2975,4263,501,-15.0,200,0,0,546.4944,1,0,735929.420900169,26_11_2014 level23_spatial_Magnum 09_57 log.txt,37.0,37.0,1311,2014-11-26,37.0,False,72.0,5.0,colocated,left
51,310.2539,0,936,1551,2975,4263,509,-15.0,200,0,0,311.024,1,0,735948.397340902,15_12_2014 level23_spatial_Magnum 09_27 log.txt,37.0,37.0,1311,2014-12-15,37.0,False,72.0,5.0,colocated,left
47,321.0802,0,936,1551,2975,4263,501,-15.0,200,0,0,322.0716,1,0,735930.372466206,27_11_2014 level23_spatial_Magnum 08_51 log_BCooled.txt,37.0,37.0,1311,2014-11-27,37.0,False,72.0,5.0,colocated,left
68,491.0028,1,936,1551,2975,4263,505,-15.0,200,0,1,493.698,0,0,735790.394571792,10_07_2014 level23_spatial_Magnum 09_20 log.txt,37.0,37.0,1311,2014-07-10,37.0,False,72.0,5.0,colocated,left
47,321.0802,0,936,1551,2975,4263,501,-15.0,200,0,0,322.0716,1,0,735930.372466206,27_11_2014 level23_spatial_Magnum 08_51 log_BCooled.txt,37.0,37.0,1311,2014-11-27,37.0,False,72.0,5.0,colocated,left
89,660.0349,0,936,1551,2975,4263,506,-15.0,200,0,0,660.8553,1,0,735931.381944848,28_11_2014 level23_spatial_Magnum 08_59 log.txt,37.0,37.0,1311,2014-11-28,37.0,False,72.0,5.0,colocated,left
62,657.4848,0,936,1551,2975,4263,505,-15.0,200,0,0,658.4839,1,0,735937.383998667,04_12_2014 level23_spatial_Magnum 09_02 log.txt,37.0,37.0,1311,2014-12-04,37.0,False,72.0,5.0,colocated,left
3,16.369,0,936,1551,2975,4263,509,-15.0,200,0,1,20.4208,0,0,735943.602967234,10_12_2014 level23_spatial_Magnum 14_28 log.txt,37.0,37.0,1311,2014-12-10,37.0,False,72.0,5.0,colocated,left
170,1125.5833,1,936,1551,2975,4263,503,-15.0,200,0,0,1127.6974,1,0,735929.427610918,26_11_2014 level23_spatial_Magnum 09_57 log.txt,37.0,37.0,1311,2014-11-26,37.0,False,72.0,5.0,colocated,left
55,996.7506,1,936,1551,2975,4263,509,-15.0,200,0,0,998.741,1,0,735928.361536465,25_11_2014 level23_spatial_Magnum 08_24 log.txt,37.0,37.0,1311,2014-11-25,37.0,False,72.0,5.0,colocated,left
76,640.2732,1,437,2761,2975,4263,502,-15.0,200,1,0,644.758,0,1,735802.596993903,22_07_2014 level23_spatial_Magnum 14_09 log.txt,37.0,37.0,1311,2014-07-22,37.0,False,72.0,5.0,colocated,right
125,716.258,0,437,2761,2975,4263,509,-15.0,200,1,1,717.618,1,1,735944.399262245,11_12_2014 level23_spatial_Magnum 09_23 log.txt,37.0,37.0,1311,2014-12-11,37.0,False,72.0,5.0,colocated,right
115,1008.6155,0,437,2761,2975,4263,501,-15.0,200,1,1,1013.5605,1,1,735937.388062679,04_12_2014 level23_spatial_Magnum 09_02 log.txt,37.0,37.0,1311,2014-12-04,37.0,False,72.0,5.0,colocated,right
90,536.7125,1,437,2761,2975,4263,504,-15.0,200,1,0,539.6684,0,1,735938.430517506,05_12_2014 level23_spatial_Magnum 10_11 log.txt,37.0,37.0,1311,2014-12-05,37.0,False,72.0,5.0,colocated,right
49,390.6933,0,437,2761,2975,4263,511,-15.0,200,1,1,391.729,1,1,735790.393410802,10_07_2014 level23_spatial_Magnum 09_20 log.txt,37.0,37.0,1311,2014-07-10,37.0,False,72.0,5.0,colocated,right
118,1215.9069,0,437,2761,2975,4263,505,-15.0,200,1,1,1217.202,1,1,735937.659211885,04_12_2014 level23_spatial_Magnum 15_29 log.txt,37.0,35.0,1311,2014-12-04,36.0,False,72.0,5.0,colocated,right
129,819.494,1,437,2761,2975,4263,501,-15.0,200,1,1,822.9686,1,1,735936.44004044,03_12_2014 level23_spatial_Magnum 10_20 log.txt,37.0,37.0,1311,2014-12-03,37.0,False,72.0,5.0,colocated,right
68,567.7226,0,437,2761,2975,4263,506,-15.0,200,1,1,569.0583,1,1,735929.421154197,26_11_2014 level23_spatial_Magnum 09_57 log.txt,37.0,37.0,1311,2014-11-26,37.0,False,72.0,5.0,colocated,right
41,255.5954,0,437,2761,2975,4263,507,-15.0,200,1,1,257.2305,1,1,735938.427263836,05_12_2014 level23_spatial_Magnum 10_11 log.txt,37.0,37.0,1311,2014-12-05,37.0,False,72.0,5.0,colocated,right
64,363.4945,1,437,2761,2975,4263,508,-15.0,200,1,1,368.2398,1,1,735935.413929334,02_12_2014 level23_spatial_Magnum 09_50 log.txt,37.0,37.0,1311,2014-12-02,37.0,False,72.0,5.0,colocated,right
61,412.9802,1,437,2761,2975,4263,507,-15.0,200,1,1,415.392,1,1,735789.372140975,09_07_2014 level23_spatial_Magnum 08_49 log.txt,37.0,37.0,1311,2014-07-09,37.0,False,72.0,5.0,colocated,right
29,294.4546,0,437,2761,2975,4263,507,-15.0,200,1,1,295.3285,1,1,735931.377713595,28_11_2014 level23_spatial_Magnum 08_59 log.txt,37.0,37.0,1311,2014-11-28,37.0,False,72.0,5.0,colocated,right
75,465.0826,1,437,2761,2975,4263,503,-15.0,200,1,1,468.1514,1,1,735948.399132901,15_12_2014 level23_spatial_Magnum 09_27 log.txt,37.0,37.0,1311,2014-12-15,37.0,False,72.0,5.0,colocated,right
68,567.7226,0,437,2761,2975,4263,506,-15.0,200,1,1,569.0583,1,1,735929.421154197,26_11_2014 level23_spatial_Magnum 09_57 log.txt,37.0,37.0,1311,2014-11-26,37.0,False,72.0,5.0,colocated,right
90,536.7125,1,437,2761,2975,4263,504,-15.0,200,1,0,539.6684,0,1,735938.430517506,05_12_2014 level23_spatial_Magnum 10_11 log.txt,37.0,37.0,1311,2014-12-05,37.0,False,72.0,5.0,colocated,right
13,75.3567,0,437,2761,2975,4263,506,-15.0,200,1,1,77.5208,1,1,735943.603649962,10_12_2014 level23_spatial_Magnum 14_28 log.txt,37.0,37.0,1311,2014-12-10,37.0,False,72.0,5.0,colocated,right
66,476.8627,1,437,2761,2975,4263,511,-15.0,200,1,1,480.8283,1,1,735945.383297022,12_12_2014 level23_spatial_Magnum 09_04 log.txt,37.0,37.0,1311,2014-12-12,37.0,False,72.0,5.0,colocated,right
115,1008.6155,0,437,2761,2975,4263,501,-15.0,200,1,1,1013.5605,1,1,735937.388062679,04_12_2014 level23_spatial_Magnum 09_02 log.txt,37.0,37.0,1311,2014-12-04,37.0,False,72.0,5.0,colocated,right
140,1676.6389,0,437,2761,2975,4263,504,-15.0,200,1,1,1677.8391,1,1,735942.397183321,09_12_2014 level23_spatial_Magnum 09_04 log.txt,37.0,37.0,1311,2014-12-09,37.0,False,72.0,5.0,colocated,right
125,716.258,0,437,2761,2975,4263,509,-15.0,200,1,1,717.618,1,1,735944.399262245,11_12_2014 level23_spatial_Magnum 09_23 log.txt,37.0,37.0,1311,2014-12-11,37.0,False,72.0,5.0,colocated,right
134,871.969,1,437,2761,2975,4263,506,-15.0,200,1,1,875.4157,1,1,735930.378842234,27_11_2014 level23_spatial_Magnum 08_51 log_BCooled.txt,37.0,37.0,1311,2014-11-27,37.0,False,72.0,5.0,colocated,right
90,536.7125,1,437,2761,2975,4263,504,-15.0,200,1,0,539.6684,0,1,735938.430517506,05_12_2014 level23_spatial_Magnum 10_11 log.txt,37.0,37.0,1311,2014-12-05,37.0,False,72.0,5.0,colocated,right
68,567.7226,0,437,2761,2975,4263,506,-15.0,200,1,1,569.0583,1,1,735929.421154197,26_11_2014 level23_spatial_Magnum 09_57 log.txt,37.0,37.0,1311,2014-11-26,37.0,False,72.0,5.0,colocated,right
54,543.7148,0,936,1551,2975,4263,503,-15.0,200,0,0,544.6322,1,1,735805.616709662,25_07_2014 level23_spatial_Magnum 14_39 log.txt,37.0,37.0,1311,2014-07-25,37.0,False,72.0,5.0,colocated,right
170,1033.1554,1,936,1551,2975,4263,504,-15.0,200,0,0,1035.3679,1,1,735948.405707817,15_12_2014 level23_spatial_Magnum 09_27 log.txt,37.0,37.0,1311,2014-12-15,37.0,False,72.0,5.0,colocated,right
46,352.8935,1,936,1551,2975,4263,509,-15.0,200,0,0,354.7037,1,1,735947.379084416,14_12_2014 level23_spatial_Magnum 09_00 log.txt,37.0,37.0,1311,2014-12-14,37.0,False,72.0,5.0,colocated,right
170,1033.1554,1,936,1551,2975,4263,504,-15.0,200,0,0,1035.3679,1,1,735948.405707817,15_12_2014 level23_spatial_Magnum 09_27 log.txt,37.0,37.0,1311,2014-12-15,37.0,False,72.0,5.0,colocated,right
133,855.6972,0,936,1551,2975,4263,501,-15.0,200,0,0,856.5921,1,1,735946.38768168,13_12_2014 level23_spatial_Magnum 09_04 log.txt,37.0,37.0,1311,2014-12-13,37.0,False,72.0,5.0,colocated,right
150,866.0922,0,936,1551,2975,4263,510,-15.0,200,0,0,867.1571,1,1,735944.400996438,11_12_2014 level23_spatial_Magnum 09_23 log.txt,37.0,37.0,1311,2014-12-11,37.0,False,72.0,5.0,colocated,right
32,169.0254,0,936,1551,2975,4263,508,-15.0,200,0,0,170.1955,1,1,735935.411678535,02_12_2014 level23_spatial_Magnum 09_50 log.txt,37.0,37.0,1311,2014-12-02,37.0,False,72.0,5.0,colocated,right
32,172.6758,1,936,1551,2975,4263,508,-15.0,200,0,0,174.0251,1,1,735944.392970785,11_12_2014 level23_spatial_Magnum 09_23 log.txt,37.0,37.0,1311,2014-12-11,37.0,False,72.0,5.0,colocated,right
79,468.6263,0,936,1551,2975,4263,511,-15.0,200,0,0,469.4034,1,1,735938.429729471,05_12_2014 level23_spatial_Magnum 10_11 log.txt,37.0,37.0,1311,2014-12-05,37.0,False,72.0,5.0,colocated,right
78,585.2396,0,936,1551,2975,4263,508,-15.0,200,0,0,586.2452,1,1,735941.597745829,08_12_2014 level23_spatial_Magnum 14_11 log.txt,37.0,37.0,1311,2014-12-08,37.0,False,72.0,5.0,colocated,right
31,347.5331,0,936,1551,2975,4263,511,-15.0,200,0,0,348.7638,1,1,735929.418605707,26_11_2014 level23_spatial_Magnum 09_57 log.txt,37.0,37.0,1311,2014-11-26,37.0,False,72.0,5.0,colocated,right
113,750.803,0,936,1551,2975,4263,510,-15.0,200,0,0,751.8124,1,1,735947.38368985,14_12_2014 level23_spatial_Magnum 09_00 log.txt,37.0,37.0,1311,2014-12-14,37.0,False,72.0,5.0,colocated,right
32,172.6758,1,936,1551,2975,4263,508,-15.0,200,0,0,174.0251,1,1,735944.392970785,11_12_2014 level23_spatial_Magnum 09_23 log.txt,37.0,37.0,1311,2014-12-11,37.0,False,72.0,5.0,colocated,right
13,119.0996,1,936,1551,2975,4263,507,-15.0,200,0,0,121.6437,1,1,735789.368739579,09_07_2014 level23_spatial_Magnum 08_49 log.txt,37.0,37.0,1311,2014-07-09,37.0,False,72.0,5.0,colocated,right
128,1600.3046,1,936,1551,2975,4263,502,-15.0,200,0,0,1602.2961,1,1,735942.396299822,09_12_2014 level23_spatial_Magnum 09_04 log.txt,37.0,37.0,1311,2014-12-09,37.0,False,72.0,5.0,colocated,right
73,452.9302,1,936,1551,2975,4263,508,-15.0,200,0,0,455.6516,1,1,735948.398992248,15_12_2014 level23_spatial_Magnum 09_27 log.txt,37.0,37.0,1311,2014-12-15,37.0,False,72.0,5.0,colocated,right
36,260.4484,0,936,1551,2975,4263,510,-15.0,200,0,0,261.4652,1,1,735946.380792227,13_12_2014 level23_spatial_Magnum 09_04 log.txt,37.0,37.0,1311,2014-12-13,37.0,False,72.0,5.0,colocated,right
105,657.4705,0,936,1551,2975,4263,506,-15.0,200,0,0,658.3364,1,1,735948.401359612,15_12_2014 level23_spatial_Magnum 09_27 log.txt,37.0,37.0,1311,2014-12-15,37.0,False,72.0,5.0,colocated,right
36,260.4484,0,936,1551,2975,4263,510,-15.0,200,0,0,261.4652,1,1,735946.380792227,13_12_2014 level23_spatial_Magnum 09_04 log.txt,37.0,37.0,1311,2014-12-13,37.0,False,72.0,5.0,colocated,right
32,172.6758,1,936,1551,2975,4263,508,-15.0,200,0,0,174.0251,1,1,735944.392970785,11_12_2014 level23_spatial_Magnum 09_23 log.txt,37.0,37.0,1311,2014-12-11,37.0,False,72.0,5.0,colocated,right
73,452.9302,1,936,1551,2975,4263,508,-15.0,200,0,0,455.6516,1,1,735948.398992248,15_12_2014 level23_spatial_Magnum 09_27 log.txt,37.0,37.0,1311,2014-12-15,37.0,False,72.0,5.0,colocated,right
59,1736.7246,0,936,1551,2975,4263,506,-15.0,200,0,0,1737.7001,1,1,735941.379128757,08_12_2014 level23_spatial_Magnum 08_37 log.txt,37.0,37.0,1311,2014-12-08,37.0,False,72.0,5.0,colocated,right
31,347.5331,0,936,1551,2975,4263,511,-15.0,200,0,0,348.7638,1,1,735929.418605707,26_11_2014 level23_spatial_Magnum 09_57 log.txt,37.0,37.0,1311,2014-11-26,37.0,False,72.0,5.0,colocated,right
39,749.1182,0,437,2761,2975,4263,511,-6.0,200,1,1,750.3722,1,0,735929.65242035,26_11_2014 level23_spatial_Magnum 15_27 log.txt,9.0,9.0,1311,2014-11-26,9.0,True,63.0,-4.0,colocated,left
39,749.1182,0,437,2761,2975,4263,511,-6.0,200,1,1,750.3722,1,0,735929.65242035,26_11_2014 level23_spatial_Magnum 15_27 log_BCooled.txt,9.0,9.0,1311,2014-11-26,9.0,True,63.0,-4.0,colocated,left
39,749.1182,0,437,2761,2975,4263,511,-6.0,200,1,1,750.3722,1,0,735929.65242035,26_11_2014 level23_spatial_Magnum 15_27 log.txt,9.0,9.0,1311,2014-11-26,9.0,True,63.0,-4.0,colocated,left
39,749.1182,0,437,2761,2975,4263,511,-6.0,200,1,1,750.3722,1,0,735929.65242035,26_11_2014 level23_spatial_Magnum 15_27 log_BCooled.txt,9.0,9.0,1311,2014-11-26,9.0,True,63.0,-4.0,colocated,left
13,527.1308,0,437,2761,2975,4263,508,-6.0,200,1,0,529.4547,0,0,735930.615823273,27_11_2014 level23_spatial_Magnum 14_38 log.txt,8.0,8.0,1311,2014-11-27,8.0,True,63.0,-4.0,colocated,left
1,605.6199,0,437,2761,2975,4263,505,-6.0,200,1,1,608.1977,1,0,735928.564648379,25_11_2014 level23_spatial_Magnum 13_23 log.txt,12.0,11.0,1311,2014-11-25,11.5,True,63.0,-4.0,colocated,left
39,749.1182,0,437,2761,2975,4263,511,-6.0,200,1,1,750.3722,1,0,735929.65242035,26_11_2014 level23_spatial_Magnum 15_27 log_BCooled.txt,9.0,9.0,1311,2014-11-26,9.0,True,63.0,-4.0,colocated,left
1,605.6199,0,437,2761,2975,4263,505,-6.0,200,1,1,608.1977,1,0,735928.564648379,25_11_2014 level23_spatial_Magnum 13_23 log.txt,12.0,11.0,1311,2014-11-25,11.5,True,63.0,-4.0,colocated,left
39,749.1182,0,437,2761,2975,4263,511,-6.0,200,1,1,750.3722,1,0,735929.65242035,26_11_2014 level23_spatial_Magnum 15_27 log_BCooled.txt,9.0,9.0,1311,2014-11-26,9.0,True,63.0,-4.0,colocated,left
13,527.1308,0,437,2761,2975,4263,508,-6.0,200,1,0,529.4547,0,0,735930.615823273,27_11_2014 level23_spatial_Magnum 14_38 log.txt,8.0,8.0,1311,2014-11-27,8.0,True,63.0,-4.0,colocated,left
1,605.6199,0,437,2761,2975,4263,505,-6.0,200,1,1,608.1977,1,0,735928.564648379,25_11_2014 level23_spatial_Magnum 13_23 log.txt,12.0,11.0,1311,2014-11-25,11.5,True,63.0,-4.0,colocated,left
13,527.1308,0,437,2761,2975,4263,508,-6.0,200,1,0,529.4547,0,0,735930.615823273,27_11_2014 level23_spatial_Magnum 14_38 log.txt,8.0,8.0,1311,2014-11-27,8.0,True,63.0,-4.0,colocated,left
39,749.1182,0,437,2761,2975,4263,511,-6.0,200,1,1,750.3722,1,0,735929.65242035,26_11_2014 level23_spatial_Magnum 15_27 log.txt,9.0,9.0,1311,2014-11-26,9.0,True,63.0,-4.0,colocated,left
1,605.6199,0,437,2761,2975,4263,505,-6.0,200,1,1,608.1977,1,0,735928.564648379,25_11_2014 level23_spatial_Magnum 13_23 log_BCooled.txt,12.0,11.0,1311,2014-11-25,11.5,True,63.0,-4.0,colocated,left
39,749.1182,0,437,2761,2975,4263,511,-6.0,200,1,1,750.3722,1,0,735929.65242035,26_11_2014 level23_spatial_Magnum 15_27 log.txt,9.0,9.0,1311,2014-11-26,9.0,True,63.0,-4.0,colocated,left
39,749.1182,0,437,2761,2975,4263,511,-6.0,200,1,1,750.3722,1,0,735929.65242035,26_11_2014 level23_spatial_Magnum 15_27 log_BCooled.txt,9.0,9.0,1311,2014-11-26,9.0,True,63.0,-4.0,colocated,left
1,605.6199,0,437,2761,2975,4263,505,-6.0,200,1,1,608.1977,1,0,735928.564648379,25_11_2014 level23_spatial_Magnum 13_23 log.txt,12.0,11.0,1311,2014-11-25,11.5,True,63.0,-4.0,colocated,left
1,605.6199,0,437,2761,2975,4263,505,-6.0,200,1,1,608.1977,1,0,735928.564648379,25_11_2014 level23_spatial_Magnum 13_23 log.txt,12.0,11.0,1311,2014-11-25,11.5,True,63.0,-4.0,colocated,left
1,605.6199,0,437,2761,2975,4263,505,-6.0,200,1,1,608.1977,1,0,735928.564648379,25_11_2014 level23_spatial_Magnum 13_23 log_BCooled.txt,12.0,11.0,1311,2014-11-25,11.5,True,63.0,-4.0,colocated,left
1,605.6199,0,437,2761,2975,4263,505,-6.0,200,1,1,608.1977,1,0,735928.564648379,25_11_2014 level23_spatial_Magnum 13_23 log_BCooled.txt,12.0,11.0,1311,2014-11-25,11.5,True,63.0,-4.0,colocated,left
1,605.6199,0,437,2761,2975,4263,505,-6.0,200,1,1,608.1977,1,0,735928.564648379,25_11_2014 level23_spatial_Magnum 13_23 log_BCooled.txt,12.0,11.0,1311,2014-11-25,11.5,True,63.0,-4.0,colocated,left
39,749.1182,0,437,2761,2975,4263,511,-6.0,200,1,1,750.3722,1,0,735929.65242035,26_11_2014 level23_spatial_Magnum 15_27 log.txt,9.0,9.0,1311,2014-11-26,9.0,True,63.0,-4.0,colocated,left
13,527.1308,0,437,2761,2975,4263,508,-6.0,200,1,0,529.4547,0,0,735930.615823273,27_11_2014 level23_spatial_Magnum 14_38 log.txt,8.0,8.0,1311,2014-11-27,8.0,True,63.0,-4.0,colocated,left
2,461.4172,1,936,1551,2975,4263,505,-6.0,200,0,0,466.3683,1,0,735929.649090477,26_11_2014 level23_spatial_Magnum 15_27 log_BCooled.txt,15.0,12.5827943794571,1311,2014-11-26,13.79139718972855,True,63.0,-4.0,colocated,left
2,461.4172,1,936,1551,2975,4263,505,-6.0,200,0,0,466.3683,1,0,735929.649090477,26_11_2014 level23_spatial_Magnum 15_27 log.txt,15.0,12.5827943794571,1311,2014-11-26,13.79139718972855,True,63.0,-4.0,colocated,left
2,461.4172,1,936,1551,2975,4263,505,-6.0,200,0,0,466.3683,1,0,735929.649090477,26_11_2014 level23_spatial_Magnum 15_27 log.txt,15.0,12.5827943794571,1311,2014-11-26,13.79139718972855,True,63.0,-4.0,colocated,left
8,497.3626,1,936,1551,2975,4263,510,-6.0,200,0,1,501.6174,0,0,735930.615478734,27_11_2014 level23_spatial_Magnum 14_38 log.txt,9.0,9.0,1311,2014-11-27,9.0,True,63.0,-4.0,colocated,left
2,461.4172,1,936,1551,2975,4263,505,-6.0,200,0,0,466.3683,1,0,735929.649090477,26_11_2014 level23_spatial_Magnum 15_27 log.txt,15.0,12.5827943794571,1311,2014-11-26,13.79139718972855,True,63.0,-4.0,colocated,left
2,461.4172,1,936,1551,2975,4263,505,-6.0,200,0,0,466.3683,1,0,735929.649090477,26_11_2014 level23_spatial_Magnum 15_27 log.txt,15.0,12.5827943794571,1311,2014-11-26,13.79139718972855,True,63.0,-4.0,colocated,left
8,497.3626,1,936,1551,2975,4263,510,-6.0,200,0,1,501.6174,0,0,735930.615478734,27_11_2014 level23_spatial_Magnum 14_38 log.txt,9.0,9.0,1311,2014-11-27,9.0,True,63.0,-4.0,colocated,left
88,1222.3223,0,936,1551,2975,4263,506,-6.0,200,0,1,1223.4485,0,0,735928.571786138,25_11_2014 level23_spatial_Magnum 13_23 log.txt,9.0,11.0,1311,2014-11-25,10.0,True,63.0,-4.0,colocated,left
88,1222.3223,0,936,1551,2975,4263,506,-6.0,200,0,1,1223.4485,0,0,735928.571786138,25_11_2014 level23_spatial_Magnum 13_23 log.txt,9.0,11.0,1311,2014-11-25,10.0,True,63.0,-4.0,colocated,left
88,1222.3223,0,936,1551,2975,4263,506,-6.0,200,0,1,1223.4485,0,0,735928.571786138,25_11_2014 level23_spatial_Magnum 13_23 log.txt,9.0,11.0,1311,2014-11-25,10.0,True,63.0,-4.0,colocated,left
8,497.3626,1,936,1551,2975,4263,510,-6.0,200,0,1,501.6174,0,0,735930.615478734,27_11_2014 level23_spatial_Magnum 14_38 log.txt,9.0,9.0,1311,2014-11-27,9.0,True,63.0,-4.0,colocated,left
88,1222.3223,0,936,1551,2975,4263,506,-6.0,200,0,1,1223.4485,0,0,735928.571786138,25_11_2014 level23_spatial_Magnum 13_23 log_BCooled.txt,9.0,11.0,1311,2014-11-25,10.0,True,63.0,-4.0,colocated,left
8,497.3626,1,936,1551,2975,4263,510,-6.0,200,0,1,501.6174,0,0,735930.615478734,27_11_2014 level23_spatial_Magnum 14_38 log.txt,9.0,9.0,1311,2014-11-27,9.0,True,63.0,-4.0,colocated,left
8,497.3626,1,936,1551,2975,4263,510,-6.0,200,0,1,501.6174,0,0,735930.615478734,27_11_2014 level23_spatial_Magnum 14_38 log.txt,9.0,9.0,1311,2014-11-27,9.0,True,63.0,-4.0,colocated,left
88,1222.3223,0,936,1551,2975,4263,506,-6.0,200,0,1,1223.4485,0,0,735928.571786138,25_11_2014 level23_spatial_Magnum 13_23 log.txt,9.0,11.0,1311,2014-11-25,10.0,True,63.0,-4.0,colocated,left
2,461.4172,1,936,1551,2975,4263,505,-6.0,200,0,0,466.3683,1,0,735929.649090477,26_11_2014 level23_spatial_Magnum 15_27 log_BCooled.txt,15.0,12.5827943794571,1311,2014-11-26,13.79139718972855,True,63.0,-4.0,colocated,left
2,461.4172,1,936,1551,2975,4263,505,-6.0,200,0,0,466.3683,1,0,735929.649090477,26_11_2014 level23_spatial_Magnum 15_27 log_BCooled.txt,15.0,12.5827943794571,1311,2014-11-26,13.79139718972855,True,63.0,-4.0,colocated,left
2,461.4172,1,936,1551,2975,4263,505,-6.0,200,0,0,466.3683,1,0,735929.649090477,26_11_2014 level23_spatial_Magnum 15_27 log_BCooled.txt,15.0,12.5827943794571,1311,2014-11-26,13.79139718972855,True,63.0,-4.0,colocated,left
2,461.4172,1,936,1551,2975,4263,505,-6.0,200,0,0,466.3683,1,0,735929.649090477,26_11_2014 level23_spatial_Magnum 15_27 log_BCooled.txt,15.0,12.5827943794571,1311,2014-11-26,13.79139718972855,True,63.0,-4.0,colocated,left
8,497.3626,1,936,1551,2975,4263,510,-6.0,200,0,1,501.6174,0,0,735930.615478734,27_11_2014 level23_spatial_Magnum 14_38 log.txt,9.0,9.0,1311,2014-11-27,9.0,True,63.0,-4.0,colocated,left
8,497.3626,1,936,1551,2975,4263,510,-6.0,200,0,1,501.6174,0,0,735930.615478734,27_11_2014 level23_spatial_Magnum 14_38 log.txt,9.0,9.0,1311,2014-11-27,9.0,True,63.0,-4.0,colocated,left
88,1222.3223,0,936,1551,2975,4263,506,-6.0,200,0,1,1223.4485,0,0,735928.571786138,25_11_2014 level23_spatial_Magnum 13_23 log.txt,9.0,11.0,1311,2014-11-25,10.0,True,63.0,-4.0,colocated,left
2,461.4172,1,936,1551,2975,4263,505,-6.0,200,0,0,466.3683,1,0,735929.649090477,26_11_2014 level23_spatial_Magnum 15_27 log_BCooled.txt,15.0,12.5827943794571,1311,2014-11-26,13.79139718972855,True,63.0,-4.0,colocated,left
52,987.9242,0,437,2761,2975,4263,510,-6.0,200,1,0,988.9157,0,1,735928.569073197,25_11_2014 level23_spatial_Magnum 13_23 log.txt,9.0,9.0,1311,2014-11-25,9.0,True,63.0,-4.0,colocated,right
63,929.5131,1,437,2761,2975,4263,511,-6.0,200,1,0,933.4556,0,1,735929.654508254,26_11_2014 level23_spatial_Magnum 15_27 log.txt,9.0,9.0,1311,2014-11-26,9.0,True,63.0,-4.0,colocated,right
84,1078.5913,0,437,2761,2975,4263,504,-6.0,200,1,1,1079.96,1,1,735929.656233696,26_11_2014 level23_spatial_Magnum 15_27 log.txt,9.0,9.0,1311,2014-11-26,9.0,True,63.0,-4.0,colocated,right
52,987.9242,0,437,2761,2975,4263,510,-6.0,200,1,0,988.9157,0,1,735928.569073197,25_11_2014 level23_spatial_Magnum 13_23 log_BCooled.txt,9.0,9.0,1311,2014-11-25,9.0,True,63.0,-4.0,colocated,right
34,668.9819,0,437,2761,2975,4263,508,-6.0,200,1,0,670.0905,0,1,735930.617465068,27_11_2014 level23_spatial_Magnum 14_38 log.txt,8.0,8.0,1311,2014-11-27,8.0,True,63.0,-4.0,colocated,right
84,1078.5913,0,437,2761,2975,4263,504,-6.0,200,1,1,1079.96,1,1,735929.656233696,26_11_2014 level23_spatial_Magnum 15_27 log.txt,9.0,9.0,1311,2014-11-26,9.0,True,63.0,-4.0,colocated,right
84,1078.5913,0,437,2761,2975,4263,504,-6.0,200,1,1,1079.96,1,1,735929.656233696,26_11_2014 level23_spatial_Magnum 15_27 log_BCooled.txt,9.0,9.0,1311,2014-11-26,9.0,True,63.0,-4.0,colocated,right
52,987.9242,0,437,2761,2975,4263,510,-6.0,200,1,0,988.9157,0,1,735928.569073197,25_11_2014 level23_spatial_Magnum 13_23 log.txt,9.0,9.0,1311,2014-11-25,9.0,True,63.0,-4.0,colocated,right
84,1078.5913,0,437,2761,2975,4263,504,-6.0,200,1,1,1079.96,1,1,735929.656233696,26_11_2014 level23_spatial_Magnum 15_27 log.txt,9.0,9.0,1311,2014-11-26,9.0,True,63.0,-4.0,colocated,right
84,1078.5913,0,437,2761,2975,4263,504,-6.0,200,1,1,1079.96,1,1,735929.656233696,26_11_2014 level23_spatial_Magnum 15_27 log.txt,9.0,9.0,1311,2014-11-26,9.0,True,63.0,-4.0,colocated,right
52,987.9242,0,437,2761,2975,4263,510,-6.0,200,1,0,988.9157,0,1,735928.569073197,25_11_2014 level23_spatial_Magnum 13_23 log_BCooled.txt,9.0,9.0,1311,2014-11-25,9.0,True,63.0,-4.0,colocated,right
52,987.9242,0,437,2761,2975,4263,510,-6.0,200,1,0,988.9157,0,1,735928.569073197,25_11_2014 level23_spatial_Magnum 13_23 log.txt,9.0,9.0,1311,2014-11-25,9.0,True,63.0,-4.0,colocated,right
63,929.5131,1,437,2761,2975,4263,511,-6.0,200,1,0,933.4556,0,1,735929.654508254,26_11_2014 level23_spatial_Magnum 15_27 log_BCooled.txt,9.0,9.0,1311,2014-11-26,9.0,True,63.0,-4.0,colocated,right
63,929.5131,1,437,2761,2975,4263,511,-6.0,200,1,0,933.4556,0,1,735929.654508254,26_11_2014 level23_spatial_Magnum 15_27 log_BCooled.txt,9.0,9.0,1311,2014-11-26,9.0,True,63.0,-4.0,colocated,right
34,668.9819,0,437,2761,2975,4263,508,-6.0,200,1,0,670.0905,0,1,735930.617465068,27_11_2014 level23_spatial_Magnum 14_38 log.txt,8.0,8.0,1311,2014-11-27,8.0,True,63.0,-4.0,colocated,right
52,987.9242,0,437,2761,2975,4263,510,-6.0,200,1,0,988.9157,0,1,735928.569073197,25_11_2014 level23_spatial_Magnum 13_23 log.txt,9.0,9.0,1311,2014-11-25,9.0,True,63.0,-4.0,colocated,right
63,929.5131,1,437,2761,2975,4263,511,-6.0,200,1,0,933.4556,0,1,735929.654508254,26_11_2014 level23_spatial_Magnum 15_27 log_BCooled.txt,9.0,9.0,1311,2014-11-26,9.0,True,63.0,-4.0,colocated,right
63,929.5131,1,437,2761,2975,4263,511,-6.0,200,1,0,933.4556,0,1,735929.654508254,26_11_2014 level23_spatial_Magnum 15_27 log_BCooled.txt,9.0,9.0,1311,2014-11-26,9.0,True,63.0,-4.0,colocated,right
63,929.5131,1,437,2761,2975,4263,511,-6.0,200,1,0,933.4556,0,1,735929.654508254,26_11_2014 level23_spatial_Magnum 15_27 log_BCooled.txt,9.0,9.0,1311,2014-11-26,9.0,True,63.0,-4.0,colocated,right
52,987.9242,0,437,2761,2975,4263,510,-6.0,200,1,0,988.9157,0,1,735928.569073197,25_11_2014 level23_spatial_Magnum 13_23 log_BCooled.txt,9.0,9.0,1311,2014-11-25,9.0,True,63.0,-4.0,colocated,right
52,987.9242,0,437,2761,2975,4263,510,-6.0,200,1,0,988.9157,0,1,735928.569073197,25_11_2014 level23_spatial_Magnum 13_23 log.txt,9.0,9.0,1311,2014-11-25,9.0,True,63.0,-4.0,colocated,right
34,668.9819,0,437,2761,2975,4263,508,-6.0,200,1,0,670.0905,0,1,735930.617465068,27_11_2014 level23_spatial_Magnum 14_38 log.txt,8.0,8.0,1311,2014-11-27,8.0,True,63.0,-4.0,colocated,right
52,987.9242,0,437,2761,2975,4263,510,-6.0,200,1,0,988.9157,0,1,735928.569073197,25_11_2014 level23_spatial_Magnum 13_23 log_BCooled.txt,9.0,9.0,1311,2014-11-25,9.0,True,63.0,-4.0,colocated,right
20,581.0405,1,936,1551,2975,4263,503,-6.0,200,0,0,584.2026,1,1,735930.616447228,27_11_2014 level23_spatial_Magnum 14_38 log.txt,8.0,8.0,1311,2014-11-27,8.0,True,63.0,-4.0,colocated,right
78,1030.1024,0,936,1551,2975,4263,509,-6.0,200,0,0,1031.0173,1,1,735929.655672482,26_11_2014 level23_spatial_Magnum 15_27 log.txt,9.0,9.0,1311,2014-11-26,9.0,True,63.0,-4.0,colocated,right
20,581.0405,1,936,1551,2975,4263,503,-6.0,200,0,0,584.2026,1,1,735930.616447228,27_11_2014 level23_spatial_Magnum 14_38 log.txt,8.0,8.0,1311,2014-11-27,8.0,True,63.0,-4.0,colocated,right
14,723.6077,1,936,1551,2975,4263,508,-6.0,200,0,0,728.6657,1,1,735928.566013978,25_11_2014 level23_spatial_Magnum 13_23 log.txt,9.0,8.0,1311,2014-11-25,8.5,True,63.0,-4.0,colocated,right
20,581.0405,1,936,1551,2975,4263,503,-6.0,200,0,0,584.2026,1,1,735930.616447228,27_11_2014 level23_spatial_Magnum 14_38 log.txt,8.0,8.0,1311,2014-11-27,8.0,True,63.0,-4.0,colocated,right
78,1030.1024,0,936,1551,2975,4263,509,-6.0,200,0,0,1031.0173,1,1,735929.655672482,26_11_2014 level23_spatial_Magnum 15_27 log.txt,9.0,9.0,1311,2014-11-26,9.0,True,63.0,-4.0,colocated,right
14,723.6077,1,936,1551,2975,4263,508,-6.0,200,0,0,728.6657,1,1,735928.566013978,25_11_2014 level23_spatial_Magnum 13_23 log.txt,9.0,8.0,1311,2014-11-25,8.5,True,63.0,-4.0,colocated,right
20,581.0405,1,936,1551,2975,4263,503,-6.0,200,0,0,584.2026,1,1,735930.616447228,27_11_2014 level23_spatial_Magnum 14_38 log.txt,8.0,8.0,1311,2014-11-27,8.0,True,63.0,-4.0,colocated,right
78,1030.1024,0,936,1551,2975,4263,509,-6.0,200,0,0,1031.0173,1,1,735929.655672482,26_11_2014 level23_spatial_Magnum 15_27 log.txt,9.0,9.0,1311,2014-11-26,9.0,True,63.0,-4.0,colocated,right
14,723.6077,1,936,1551,2975,4263,508,-6.0,200,0,0,728.6657,1,1,735928.566013978,25_11_2014 level23_spatial_Magnum 13_23 log_BCooled.txt,9.0,8.0,1311,2014-11-25,8.5,True,63.0,-4.0,colocated,right
78,1030.1024,0,936,1551,2975,4263,509,-6.0,200,0,0,1031.0173,1,1,735929.655672482,26_11_2014 level23_spatial_Magnum 15_27 log_BCooled.txt,9.0,9.0,1311,2014-11-26,9.0,True,63.0,-4.0,colocated,right
78,1030.1024,0,936,1551,2975,4263,509,-6.0,200,0,0,1031.0173,1,1,735929.655672482,26_11_2014 level23_spatial_Magnum 15_27 log_BCooled.txt,9.0,9.0,1311,2014-11-26,9.0,True,63.0,-4.0,colocated,right
20,581.0405,1,936,1551,2975,4263,503,-6.0,200,0,0,584.2026,1,1,735930.616447228,27_11_2014 level23_spatial_Magnum 14_38 log.txt,8.0,8.0,1311,2014-11-27,8.0,True,63.0,-4.0,colocated,right
14,723.6077,1,936,1551,2975,4263,508,-6.0,200,0,0,728.6657,1,1,735928.566013978,25_11_2014 level23_spatial_Magnum 13_23 log.txt,9.0,8.0,1311,2014-11-25,8.5,True,63.0,-4.0,colocated,right
78,1030.1024,0,936,1551,2975,4263,509,-6.0,200,0,0,1031.0173,1,1,735929.655672482,26_11_2014 level23_spatial_Magnum 15_27 log_BCooled.txt,9.0,9.0,1311,2014-11-26,9.0,True,63.0,-4.0,colocated,right
20,581.0405,1,936,1551,2975,4263,503,-6.0,200,0,0,584.2026,1,1,735930.616447228,27_11_2014 level23_spatial_Magnum 14_38 log.txt,8.0,8.0,1311,2014-11-27,8.0,True,63.0,-4.0,colocated,right
14,723.6077,1,936,1551,2975,4263,508,-6.0,200,0,0,728.6657,1,1,735928.566013978,25_11_2014 level23_spatial_Magnum 13_23 log_BCooled.txt,9.0,8.0,1311,2014-11-25,8.5,True,63.0,-4.0,colocated,right
14,723.6077,1,936,1551,2975,4263,508,-6.0,200,0,0,728.6657,1,1,735928.566013978,25_11_2014 level23_spatial_Magnum 13_23 log.txt,9.0,8.0,1311,2014-11-25,8.5,True,63.0,-4.0,colocated,right
78,1030.1024,0,936,1551,2975,4263,509,-6.0,200,0,0,1031.0173,1,1,735929.655672482,26_11_2014 level23_spatial_Magnum 15_27 log_BCooled.txt,9.0,9.0,1311,2014-11-26,9.0,True,63.0,-4.0,colocated,right
78,1030.1024,0,936,1551,2975,4263,509,-6.0,200,0,0,1031.0173,1,1,735929.655672482,26_11_2014 level23_spatial_Magnum 15_27 log.txt,9.0,9.0,1311,2014-11-26,9.0,True,63.0,-4.0,colocated,right
14,723.6077,1,936,1551,2975,4263,508,-6.0,200,0,0,728.6657,1,1,735928.566013978,25_11_2014 level23_spatial_Magnum 13_23 log_BCooled.txt,9.0,8.0,1311,2014-11-25,8.5,True,63.0,-4.0,colocated,right
20,581.0405,1,936,1551,2975,4263,503,-6.0,200,0,0,584.2026,1,1,735930.616447228,27_11_2014 level23_spatial_Magnum 14_38 log.txt,8.0,8.0,1311,2014-11-27,8.0,True,63.0,-4.0,colocated,right
78,1030.1024,0,936,1551,2975,4263,509,-6.0,200,0,0,1031.0173,1,1,735929.655672482,26_11_2014 level23_spatial_Magnum 15_27 log_BCooled.txt,9.0,9.0,1311,2014-11-26,9.0,True,63.0,-4.0,colocated,right
18,752.993,1,437,2761,2975,4263,508,-9.0,200,1,0,753.5158,0,0,735928.566354086,25_11_2014 level23_spatial_Magnum 13_23 log_BCooled.txt,10.0,8.0,1311,2014-11-25,9.0,True,66.0,-1.0,colocated,left
33,662.6926,0,437,2761,2975,4263,503,-9.0,200,1,1,663.7646,1,0,735930.617392275,27_11_2014 level23_spatial_Magnum 14_38 log.txt,8.0,8.0,1311,2014-11-27,8.0,True,66.0,-1.0,colocated,left
18,752.993,1,437,2761,2975,4263,508,-9.0,200,1,0,753.5158,0,0,735928.566354086,25_11_2014 level23_spatial_Magnum 13_23 log.txt,10.0,8.0,1311,2014-11-25,9.0,True,66.0,-1.0,colocated,left
72,990.5621,1,437,2761,2975,4263,510,-9.0,200,1,0,993.532,0,0,735929.655214839,26_11_2014 level23_spatial_Magnum 15_27 log.txt,8.0,9.0,1311,2014-11-26,8.5,True,66.0,-1.0,colocated,left
18,752.993,1,437,2761,2975,4263,508,-9.0,200,1,0,753.5158,0,0,735928.566354086,25_11_2014 level23_spatial_Magnum 13_23 log_BCooled.txt,10.0,8.0,1311,2014-11-25,9.0,True,66.0,-1.0,colocated,left
72,990.5621,1,437,2761,2975,4263,510,-9.0,200,1,0,993.532,0,0,735929.655214839,26_11_2014 level23_spatial_Magnum 15_27 log_BCooled.txt,8.0,9.0,1311,2014-11-26,8.5,True,66.0,-1.0,colocated,left
72,990.5621,1,437,2761,2975,4263,510,-9.0,200,1,0,993.532,0,0,735929.655214839,26_11_2014 level23_spatial_Magnum 15_27 log_BCooled.txt,8.0,9.0,1311,2014-11-26,8.5,True,66.0,-1.0,colocated,left
72,990.5621,1,437,2761,2975,4263,510,-9.0,200,1,0,993.532,0,0,735929.655214839,26_11_2014 level23_spatial_Magnum 15_27 log_BCooled.txt,8.0,9.0,1311,2014-11-26,8.5,True,66.0,-1.0,colocated,left
72,990.5621,1,437,2761,2975,4263,510,-9.0,200,1,0,993.532,0,0,735929.655214839,26_11_2014 level23_spatial_Magnum 15_27 log_BCooled.txt,8.0,9.0,1311,2014-11-26,8.5,True,66.0,-1.0,colocated,left
72,990.5621,1,437,2761,2975,4263,510,-9.0,200,1,0,993.532,0,0,735929.655214839,26_11_2014 level23_spatial_Magnum 15_27 log_BCooled.txt,8.0,9.0,1311,2014-11-26,8.5,True,66.0,-1.0,colocated,left
18,752.993,1,437,2761,2975,4263,508,-9.0,200,1,0,753.5158,0,0,735928.566354086,25_11_2014 level23_spatial_Magnum 13_23 log_BCooled.txt,10.0,8.0,1311,2014-11-25,9.0,True,66.0,-1.0,colocated,left
72,990.5621,1,437,2761,2975,4263,510,-9.0,200,1,0,993.532,0,0,735929.655214839,26_11_2014 level23_spatial_Magnum 15_27 log_BCooled.txt,8.0,9.0,1311,2014-11-26,8.5,True,66.0,-1.0,colocated,left
18,752.993,1,437,2761,2975,4263,508,-9.0,200,1,0,753.5158,0,0,735928.566354086,25_11_2014 level23_spatial_Magnum 13_23 log.txt,10.0,8.0,1311,2014-11-25,9.0,True,66.0,-1.0,colocated,left
72,990.5621,1,437,2761,2975,4263,510,-9.0,200,1,0,993.532,0,0,735929.655214839,26_11_2014 level23_spatial_Magnum 15_27 log.txt,8.0,9.0,1311,2014-11-26,8.5,True,66.0,-1.0,colocated,left
18,752.993,1,437,2761,2975,4263,508,-9.0,200,1,0,753.5158,0,0,735928.566354086,25_11_2014 level23_spatial_Magnum 13_23 log.txt,10.0,8.0,1311,2014-11-25,9.0,True,66.0,-1.0,colocated,left
72,990.5621,1,437,2761,2975,4263,510,-9.0,200,1,0,993.532,0,0,735929.655214839,26_11_2014 level23_spatial_Magnum 15_27 log_BCooled.txt,8.0,9.0,1311,2014-11-26,8.5,True,66.0,-1.0,colocated,left
33,662.6926,0,437,2761,2975,4263,503,-9.0,200,1,1,663.7646,1,0,735930.617392275,27_11_2014 level23_spatial_Magnum 14_38 log.txt,8.0,8.0,1311,2014-11-27,8.0,True,66.0,-1.0,colocated,left
33,662.6926,0,437,2761,2975,4263,503,-9.0,200,1,1,663.7646,1,0,735930.617392275,27_11_2014 level23_spatial_Magnum 14_38 log.txt,8.0,8.0,1311,2014-11-27,8.0,True,66.0,-1.0,colocated,left
18,752.993,1,437,2761,2975,4263,508,-9.0,200,1,0,753.5158,0,0,735928.566354086,25_11_2014 level23_spatial_Magnum 13_23 log_BCooled.txt,10.0,8.0,1311,2014-11-25,9.0,True,66.0,-1.0,colocated,left
18,752.993,1,437,2761,2975,4263,508,-9.0,200,1,0,753.5158,0,0,735928.566354086,25_11_2014 level23_spatial_Magnum 13_23 log_BCooled.txt,10.0,8.0,1311,2014-11-25,9.0,True,66.0,-1.0,colocated,left
33,662.6926,0,437,2761,2975,4263,503,-9.0,200,1,1,663.7646,1,0,735930.617392275,27_11_2014 level23_spatial_Magnum 14_38 log.txt,8.0,8.0,1311,2014-11-27,8.0,True,66.0,-1.0,colocated,left
72,990.5621,1,437,2761,2975,4263,510,-9.0,200,1,0,993.532,0,0,735929.655214839,26_11_2014 level23_spatial_Magnum 15_27 log_BCooled.txt,8.0,9.0,1311,2014-11-26,8.5,True,66.0,-1.0,colocated,left
72,990.5621,1,437,2761,2975,4263,510,-9.0,200,1,0,993.532,0,0,735929.655214839,26_11_2014 level23_spatial_Magnum 15_27 log.txt,8.0,9.0,1311,2014-11-26,8.5,True,66.0,-1.0,colocated,left
21,769.7197,1,936,1551,2975,4263,511,-9.0,200,0,1,770.4299,0,0,735928.566547682,25_11_2014 level23_spatial_Magnum 13_23 log.txt,10.0,9.0,1311,2014-11-25,9.5,True,66.0,-1.0,colocated,left
2,455.7012,0,936,1551,2975,4263,505,-9.0,200,0,0,456.7456,1,0,735930.614996542,27_11_2014 level23_spatial_Magnum 14_38 log.txt,11.0,10.0,1311,2014-11-27,10.5,True,66.0,-1.0,colocated,left
104,1223.9316,1,936,1551,2975,4263,503,-9.0,200,0,0,1227.481,1,0,735929.657915875,26_11_2014 level23_spatial_Magnum 15_27 log.txt,9.0,9.0,1311,2014-11-26,9.0,True,66.0,-1.0,colocated,left
21,769.7197,1,936,1551,2975,4263,511,-9.0,200,0,1,770.4299,0,0,735928.566547682,25_11_2014 level23_spatial_Magnum 13_23 log_BCooled.txt,10.0,9.0,1311,2014-11-25,9.5,True,66.0,-1.0,colocated,left
21,769.7197,1,936,1551,2975,4263,511,-9.0,200,0,1,770.4299,0,0,735928.566547682,25_11_2014 level23_spatial_Magnum 13_23 log.txt,10.0,9.0,1311,2014-11-25,9.5,True,66.0,-1.0,colocated,left
37,740.3307,0,936,1551,2975,4263,501,-9.0,200,0,0,741.2121,1,0,735929.652318642,26_11_2014 level23_spatial_Magnum 15_27 log.txt,9.0,9.0,1311,2014-11-26,9.0,True,66.0,-1.0,colocated,left
104,1223.9316,1,936,1551,2975,4263,503,-9.0,200,0,0,1227.481,1,0,735929.657915875,26_11_2014 level23_spatial_Magnum 15_27 log_BCooled.txt,9.0,9.0,1311,2014-11-26,9.0,True,66.0,-1.0,colocated,left
37,740.3307,0,936,1551,2975,4263,501,-9.0,200,0,0,741.2121,1,0,735929.652318642,26_11_2014 level23_spatial_Magnum 15_27 log_BCooled.txt,9.0,9.0,1311,2014-11-26,9.0,True,66.0,-1.0,colocated,left
37,740.3307,0,936,1551,2975,4263,501,-9.0,200,0,0,741.2121,1,0,735929.652318642,26_11_2014 level23_spatial_Magnum 15_27 log.txt,9.0,9.0,1311,2014-11-26,9.0,True,66.0,-1.0,colocated,left
104,1223.9316,1,936,1551,2975,4263,503,-9.0,200,0,0,1227.481,1,0,735929.657915875,26_11_2014 level23_spatial_Magnum 15_27 log_BCooled.txt,9.0,9.0,1311,2014-11-26,9.0,True,66.0,-1.0,colocated,left
21,769.7197,1,936,1551,2975,4263,511,-9.0,200,0,1,770.4299,0,0,735928.566547682,25_11_2014 level23_spatial_Magnum 13_23 log.txt,10.0,9.0,1311,2014-11-25,9.5,True,66.0,-1.0,colocated,left
104,1223.9316,1,936,1551,2975,4263,503,-9.0,200,0,0,1227.481,1,0,735929.657915875,26_11_2014 level23_spatial_Magnum 15_27 log_BCooled.txt,9.0,9.0,1311,2014-11-26,9.0,True,66.0,-1.0,colocated,left
37,740.3307,0,936,1551,2975,4263,501,-9.0,200,0,0,741.2121,1,0,735929.652318642,26_11_2014 level23_spatial_Magnum 15_27 log.txt,9.0,9.0,1311,2014-11-26,9.0,True,66.0,-1.0,colocated,left
21,769.7197,1,936,1551,2975,4263,511,-9.0,200,0,1,770.4299,0,0,735928.566547682,25_11_2014 level23_spatial_Magnum 13_23 log_BCooled.txt,10.0,9.0,1311,2014-11-25,9.5,True,66.0,-1.0,colocated,left
21,769.7197,1,936,1551,2975,4263,511,-9.0,200,0,1,770.4299,0,0,735928.566547682,25_11_2014 level23_spatial_Magnum 13_23 log.txt,10.0,9.0,1311,2014-11-25,9.5,True,66.0,-1.0,colocated,left
21,769.7197,1,936,1551,2975,4263,511,-9.0,200,0,1,770.4299,0,0,735928.566547682,25_11_2014 level23_spatial_Magnum 13_23 log.txt,10.0,9.0,1311,2014-11-25,9.5,True,66.0,-1.0,colocated,left
21,769.7197,1,936,1551,2975,4263,511,-9.0,200,0,1,770.4299,0,0,735928.566547682,25_11_2014 level23_spatial_Magnum 13_23 log_BCooled.txt,10.0,9.0,1311,2014-11-25,9.5,True,66.0,-1.0,colocated,left
37,740.3307,0,936,1551,2975,4263,501,-9.0,200,0,0,741.2121,1,0,735929.652318642,26_11_2014 level23_spatial_Magnum 15_27 log.txt,9.0,9.0,1311,2014-11-26,9.0,True,66.0,-1.0,colocated,left
104,1223.9316,1,936,1551,2975,4263,503,-9.0,200,0,0,1227.481,1,0,735929.657915875,26_11_2014 level23_spatial_Magnum 15_27 log.txt,9.0,9.0,1311,2014-11-26,9.0,True,66.0,-1.0,colocated,left
21,769.7197,1,936,1551,2975,4263,511,-9.0,200,0,1,770.4299,0,0,735928.566547682,25_11_2014 level23_spatial_Magnum 13_23 log_BCooled.txt,10.0,9.0,1311,2014-11-25,9.5,True,66.0,-1.0,colocated,left
37,740.3307,0,936,1551,2975,4263,501,-9.0,200,0,0,741.2121,1,0,735929.652318642,26_11_2014 level23_spatial_Magnum 15_27 log_BCooled.txt,9.0,9.0,1311,2014-11-26,9.0,True,66.0,-1.0,colocated,left
2,455.7012,0,936,1551,2975,4263,505,-9.0,200,0,0,456.7456,1,0,735930.614996542,27_11_2014 level23_spatial_Magnum 14_38 log.txt,11.0,10.0,1311,2014-11-27,10.5,True,66.0,-1.0,colocated,left
21,769.7197,1,936,1551,2975,4263,511,-9.0,200,0,1,770.4299,0,0,735928.566547682,25_11_2014 level23_spatial_Magnum 13_23 log_BCooled.txt,10.0,9.0,1311,2014-11-25,9.5,True,66.0,-1.0,colocated,left
8,507.6873,1,437,2761,2975,4263,511,-9.0,200,1,0,513.5575,0,1,735929.64962601,26_11_2014 level23_spatial_Magnum 15_27 log.txt,12.0,9.0,1311,2014-11-26,10.5,True,66.0,-1.0,colocated,right
8,507.6873,1,437,2761,2975,4263,511,-9.0,200,1,0,513.5575,0,1,735929.64962601,26_11_2014 level23_spatial_Magnum 15_27 log.txt,12.0,9.0,1311,2014-11-26,10.5,True,66.0,-1.0,colocated,right
8,507.6873,1,437,2761,2975,4263,511,-9.0,200,1,0,513.5575,0,1,735929.64962601,26_11_2014 level23_spatial_Magnum 15_27 log_BCooled.txt,12.0,9.0,1311,2014-11-26,10.5,True,66.0,-1.0,colocated,right
3,461.1765,1,437,2761,2975,4263,501,-9.0,200,1,0,463.5968,0,1,735930.615059913,27_11_2014 level23_spatial_Magnum 14_38 log.txt,11.0,10.0,1311,2014-11-27,10.5,True,66.0,-1.0,colocated,right
85,1086.2954,1,437,2761,2975,4263,511,-9.0,200,1,1,1089.109,1,1,735929.656322863,26_11_2014 level23_spatial_Magnum 15_27 log.txt,9.0,9.0,1311,2014-11-26,9.0,True,66.0,-1.0,colocated,right
51,974.7488,0,437,2761,2975,4263,503,-9.0,200,1,1,976.0111,1,1,735928.568920704,25_11_2014 level23_spatial_Magnum 13_23 log_BCooled.txt,9.0,9.0,1311,2014-11-25,9.0,True,66.0,-1.0,colocated,right
3,461.1765,1,437,2761,2975,4263,501,-9.0,200,1,0,463.5968,0,1,735930.615059913,27_11_2014 level23_spatial_Magnum 14_38 log.txt,11.0,10.0,1311,2014-11-27,10.5,True,66.0,-1.0,colocated,right
8,507.6873,1,437,2761,2975,4263,511,-9.0,200,1,0,513.5575,0,1,735929.64962601,26_11_2014 level23_spatial_Magnum 15_27 log.txt,12.0,9.0,1311,2014-11-26,10.5,True,66.0,-1.0,colocated,right
51,974.7488,0,437,2761,2975,4263,503,-9.0,200,1,1,976.0111,1,1,735928.568920704,25_11_2014 level23_spatial_Magnum 13_23 log.txt,9.0,9.0,1311,2014-11-25,9.0,True,66.0,-1.0,colocated,right
85,1086.2954,1,437,2761,2975,4263,511,-9.0,200,1,1,1089.109,1,1,735929.656322863,26_11_2014 level23_spatial_Magnum 15_27 log_BCooled.txt,9.0,9.0,1311,2014-11-26,9.0,True,66.0,-1.0,colocated,right
51,974.7488,0,437,2761,2975,4263,503,-9.0,200,1,1,976.0111,1,1,735928.568920704,25_11_2014 level23_spatial_Magnum 13_23 log.txt,9.0,9.0,1311,2014-11-25,9.0,True,66.0,-1.0,colocated,right
8,507.6873,1,437,2761,2975,4263,511,-9.0,200,1,0,513.5575,0,1,735929.64962601,26_11_2014 level23_spatial_Magnum 15_27 log_BCooled.txt,12.0,9.0,1311,2014-11-26,10.5,True,66.0,-1.0,colocated,right
8,507.6873,1,437,2761,2975,4263,511,-9.0,200,1,0,513.5575,0,1,735929.64962601,26_11_2014 level23_spatial_Magnum 15_27 log.txt,12.0,9.0,1311,2014-11-26,10.5,True,66.0,-1.0,colocated,right
3,461.1765,1,437,2761,2975,4263,501,-9.0,200,1,0,463.5968,0,1,735930.615059913,27_11_2014 level23_spatial_Magnum 14_38 log.txt,11.0,10.0,1311,2014-11-27,10.5,True,66.0,-1.0,colocated,right
3,461.1765,1,437,2761,2975,4263,501,-9.0,200,1,0,463.5968,0,1,735930.615059913,27_11_2014 level23_spatial_Magnum 14_38 log.txt,11.0,10.0,1311,2014-11-27,10.5,True,66.0,-1.0,colocated,right
