Trial,StartTime,CenterReward,F1,F2,F3,F4,HoldTime,Atten,Pitch,Side,Response,RespTime,Correct,SpatialMask,UniversalStartTime,originalFile,LeftTemperature,RightTemperature,fNum,day,meanTemp,treatment,vowel_level,SNR,SpatialCondition,VowelLocation
12,58.7606,1,437,2761,2975,4263,502,-6.0,200,1,0,61.2022,0,0,735944.391652322,11_12_2014 level23_spatial_Magnum 09_23 log.txt,37.0,37.0,1311,2014-12-11,37.0,False,63.0,-4.0,colocated,left
22,199.1445,1,437,2761,2975,4263,502,-6.0,200,1,1,201.9944,1,0,735692.450916024,03_04_2014 level23_spatial_Magnum 10_46 log.txt,37.0,37.0,1311,2014-04-03,37.0,False,63.0,-4.0,colocated,left
22,199.1445,1,437,2761,2975,4263,502,-6.0,200,1,1,201.9944,1,0,735692.450916024,03_04_2014 level23_spatial_Magnum 10_46 log.txt,37.0,37.0,1311,2014-04-03,37.0,False,63.0,-4.0,colocated,left
118,722.5047,1,437,2761,2975,4263,501,-6.0,200,1,1,725.675,1,0,735938.432667878,05_12_2014 level23_spatial_Magnum 10_11 log.txt,37.0,37.0,1311,2014-12-05,37.0,False,63.0,-4.0,colocated,left
95,629.3277,1,437,2761,2975,4263,509,-6.0,200,1,0,632.0564,0,0,735946.385061663,13_12_2014 level23_spatial_Magnum 09_04 log.txt,37.0,37.0,1311,2014-12-13,37.0,False,63.0,-4.0,colocated,left
65,621.4183,0,437,2761,2975,4263,505,-6.0,200,1,1,622.5909,1,0,735805.617609008,25_07_2014 level23_spatial_Magnum 14_39 log.txt,37.0,37.0,1311,2014-07-25,37.0,False,63.0,-4.0,colocated,left
112,768.1248,1,437,2761,2975,4263,505,-6.0,200,1,0,770.1463,0,0,735945.386668111,12_12_2014 level23_spatial_Magnum 09_04 log.txt,37.0,37.0,1311,2014-12-12,37.0,False,63.0,-4.0,colocated,left
70,397.5488,1,437,2761,2975,4263,511,-6.0,200,1,1,400.9505,1,0,735935.414323481,02_12_2014 level23_spatial_Magnum 09_50 log.txt,37.0,37.0,1311,2014-12-02,37.0,False,63.0,-4.0,colocated,left
60,353.2495,0,437,2761,2975,4263,505,-6.0,200,1,1,354.4583,1,0,735943.606866314,10_12_2014 level23_spatial_Magnum 14_28 log.txt,37.0,37.0,1311,2014-12-10,37.0,False,63.0,-4.0,colocated,left
96,692.1551,0,437,2761,2975,4263,506,-6.0,200,1,0,694.129,0,0,735692.456622166,03_04_2014 level23_spatial_Magnum 10_46 log.txt,37.0,37.0,1311,2014-04-03,37.0,False,63.0,-4.0,colocated,left
66,514.296,0,437,2761,2975,4263,507,-6.0,200,1,0,515.1975,0,0,735931.380258056,28_11_2014 level23_spatial_Magnum 08_59 log.txt,37.0,37.0,1311,2014-11-28,37.0,False,63.0,-4.0,colocated,left
131,835.5685,1,437,2761,2975,4263,507,-6.0,200,1,0,838.178,0,0,735936.440226487,03_12_2014 level23_spatial_Magnum 10_20 log.txt,37.0,37.0,1311,2014-12-03,37.0,False,63.0,-4.0,colocated,left
61,407.8409,1,437,2761,2975,4263,505,-6.0,200,1,0,410.918,0,0,735946.382498158,13_12_2014 level23_spatial_Magnum 09_04 log.txt,37.0,37.0,1311,2014-12-13,37.0,False,63.0,-4.0,colocated,left
87,603.0795,0,437,2761,2975,4263,501,-6.0,200,1,1,604.1912,1,0,735790.395868976,10_07_2014 level23_spatial_Magnum 09_20 log.txt,37.0,37.0,1311,2014-07-10,37.0,False,63.0,-4.0,colocated,left
8,1491.0879,1,437,2761,2975,4263,510,-6.0,200,1,0,1492.1214,0,0,735941.37628574,08_12_2014 level23_spatial_Magnum 08_37 log.txt,37.0,37.0,1311,2014-12-08,37.0,False,63.0,-4.0,colocated,left
20,219.0728,0,437,2761,2975,4263,508,-6.0,200,1,0,219.974,0,0,735790.391424454,10_07_2014 level23_spatial_Magnum 09_20 log.txt,37.0,37.0,1311,2014-07-10,37.0,False,63.0,-4.0,colocated,left
87,603.0795,0,437,2761,2975,4263,501,-6.0,200,1,1,604.1912,1,0,735790.395868976,10_07_2014 level23_spatial_Magnum 09_20 log.txt,37.0,37.0,1311,2014-07-10,37.0,False,63.0,-4.0,colocated,left
4,31.8004,1,437,2761,2975,4263,501,-6.0,200,1,0,34.249,0,0,735948.39411806,15_12_2014 level23_spatial_Magnum 09_27 log.txt,37.0,37.0,1311,2014-12-15,37.0,False,63.0,-4.0,colocated,left
37,293.7178,0,437,2761,2975,4263,507,-6.0,200,1,0,294.9914,0,0,735941.594371734,08_12_2014 level23_spatial_Magnum 14_11 log.txt,37.0,37.0,1311,2014-12-08,37.0,False,63.0,-4.0,colocated,left
59,426.8909,1,437,2761,2975,4263,507,-6.0,200,1,1,430.4709,1,0,735947.379940867,14_12_2014 level23_spatial_Magnum 09_00 log.txt,37.0,37.0,1311,2014-12-14,37.0,False,63.0,-4.0,colocated,left
7,49.6009,1,437,2761,2975,4263,503,-6.0,200,1,1,52.3978,1,0,735788.747796307,08_07_2014 level23_spatial_Magnum 17_56 log.txt,37.0,37.0,1311,2014-07-08,37.0,False,63.0,-4.0,colocated,left
11,110.46,0,437,2761,2975,4263,510,-6.0,200,1,0,111.4564,0,0,735789.368639583,09_07_2014 level23_spatial_Magnum 08_49 log.txt,37.0,37.0,1311,2014-07-09,37.0,False,63.0,-4.0,colocated,left
173,1046.085,1,437,2761,2975,4263,505,-6.0,200,1,1,1051.3651,1,0,735948.405857465,15_12_2014 level23_spatial_Magnum 09_27 log.txt,37.0,37.0,1311,2014-12-15,37.0,False,63.0,-4.0,colocated,left
2,514.6043,1,936,1551,2975,4263,509,-6.0,200,0,0,525.503,1,0,735928.355956068,25_11_2014 level23_spatial_Magnum 08_24 log.txt,37.0,37.0,1311,2014-11-25,37.0,False,63.0,-4.0,colocated,left
30,270.2257,1,936,1551,2975,4263,506,-6.0,200,0,0,272.3413,1,0,735947.378127612,14_12_2014 level23_spatial_Magnum 09_00 log.txt,37.0,37.0,1311,2014-12-14,37.0,False,63.0,-4.0,colocated,left
48,288.5821,1,936,1551,2975,4263,506,-6.0,200,0,0,290.6131,1,0,735938.427645626,05_12_2014 level23_spatial_Magnum 10_11 log.txt,37.0,37.0,1311,2014-12-05,37.0,False,63.0,-4.0,colocated,left
116,758.7935,0,936,1551,2975,4263,502,-6.0,200,0,0,759.7294,1,0,735946.38656011,13_12_2014 level23_spatial_Magnum 09_04 log.txt,37.0,37.0,1311,2014-12-13,37.0,False,63.0,-4.0,colocated,left
74,739.4252,1,936,1551,2975,4263,504,-6.0,200,0,0,741.9193,1,0,735937.384947051,04_12_2014 level23_spatial_Magnum 09_02 log.txt,37.0,37.0,1311,2014-12-04,37.0,False,63.0,-4.0,colocated,left
128,871.0183,0,936,1551,2975,4263,506,-6.0,200,0,0,871.9829,1,0,735945.387859008,12_12_2014 level23_spatial_Magnum 09_04 log.txt,37.0,37.0,1311,2014-12-12,37.0,False,63.0,-4.0,colocated,left
184,1218.4409,0,936,1551,2975,4263,506,-6.0,200,0,0,1219.2879,1,0,735929.428685658,26_11_2014 level23_spatial_Magnum 09_57 log.txt,37.0,37.0,1311,2014-11-26,37.0,False,63.0,-4.0,colocated,left
48,288.5821,1,936,1551,2975,4263,506,-6.0,200,0,0,290.6131,1,0,735938.427645626,05_12_2014 level23_spatial_Magnum 10_11 log.txt,37.0,37.0,1311,2014-12-05,37.0,False,63.0,-4.0,colocated,left
116,758.7935,0,936,1551,2975,4263,502,-6.0,200,0,0,759.7294,1,0,735946.38656011,13_12_2014 level23_spatial_Magnum 09_04 log.txt,37.0,37.0,1311,2014-12-13,37.0,False,63.0,-4.0,colocated,left
33,1621.6203,0,936,1551,2975,4263,510,-6.0,200,0,0,1622.3797,1,0,735941.377796531,08_12_2014 level23_spatial_Magnum 08_37 log.txt,37.0,37.0,1311,2014-12-08,37.0,False,63.0,-4.0,colocated,left
107,714.1008,1,936,1551,2975,4263,504,-6.0,200,0,1,718.3238,0,0,735947.383265056,14_12_2014 level23_spatial_Magnum 09_00 log.txt,37.0,37.0,1311,2014-12-14,37.0,False,63.0,-4.0,colocated,left
69,461.6494,1,936,1551,2975,4263,509,-6.0,200,0,0,463.677,1,0,735946.383120942,13_12_2014 level23_spatial_Magnum 09_04 log.txt,37.0,37.0,1311,2014-12-13,37.0,False,63.0,-4.0,colocated,left
21,129.686,0,936,1551,2975,4263,502,-6.0,200,0,0,130.7252,1,0,735948.395250995,15_12_2014 level23_spatial_Magnum 09_27 log.txt,37.0,37.0,1311,2014-12-15,37.0,False,63.0,-4.0,colocated,left
34,298.1059,1,936,1551,2975,4263,507,-6.0,200,0,0,300.03,1,0,735945.381228077,12_12_2014 level23_spatial_Magnum 09_04 log.txt,37.0,37.0,1311,2014-12-12,37.0,False,63.0,-4.0,colocated,left
23,414.1336,1,936,1551,2975,4263,511,-6.0,200,0,0,416.8262,1,0,735937.381182102,04_12_2014 level23_spatial_Magnum 09_02 log.txt,37.0,37.0,1311,2014-12-04,37.0,False,63.0,-4.0,colocated,left
66,552.7007,0,936,1551,2975,4263,503,-6.0,200,0,0,553.2226,1,0,735929.420980332,26_11_2014 level23_spatial_Magnum 09_57 log.txt,37.0,37.0,1311,2014-11-26,37.0,False,63.0,-4.0,colocated,left
83,516.1159,1,936,1551,2975,4263,504,-6.0,200,0,0,519.436,1,0,735936.436529119,03_12_2014 level23_spatial_Magnum 10_20 log.txt,37.0,37.0,1311,2014-12-03,37.0,False,63.0,-4.0,colocated,left
184,1218.4409,0,936,1551,2975,4263,506,-6.0,200,0,0,1219.2879,1,0,735929.428685658,26_11_2014 level23_spatial_Magnum 09_57 log.txt,37.0,37.0,1311,2014-11-26,37.0,False,63.0,-4.0,colocated,left
9,41.8543,0,936,1551,2975,4263,511,-6.0,200,0,0,42.5578,1,0,735936.43103998,03_12_2014 level23_spatial_Magnum 10_20 log.txt,37.0,37.0,1311,2014-12-03,37.0,False,63.0,-4.0,colocated,left
39,211.037,1,936,1551,2975,4263,506,-6.0,200,0,1,214.2268,0,0,735943.605220336,10_12_2014 level23_spatial_Magnum 14_28 log.txt,37.0,37.0,1311,2014-12-10,37.0,False,63.0,-4.0,colocated,left
39,211.037,1,936,1551,2975,4263,506,-6.0,200,0,1,214.2268,0,0,735943.605220336,10_12_2014 level23_spatial_Magnum 14_28 log.txt,37.0,37.0,1311,2014-12-10,37.0,False,63.0,-4.0,colocated,left
69,461.6494,1,936,1551,2975,4263,509,-6.0,200,0,0,463.677,1,0,735946.383120942,13_12_2014 level23_spatial_Magnum 09_04 log.txt,37.0,37.0,1311,2014-12-13,37.0,False,63.0,-4.0,colocated,left
21,129.686,0,936,1551,2975,4263,502,-6.0,200,0,0,130.7252,1,0,735948.395250995,15_12_2014 level23_spatial_Magnum 09_27 log.txt,37.0,37.0,1311,2014-12-15,37.0,False,63.0,-4.0,colocated,left
9,101.6868,0,437,2761,2975,4263,511,-6.0,200,1,0,102.6412,0,1,735789.368538042,09_07_2014 level23_spatial_Magnum 08_49 log.txt,37.0,37.0,1311,2014-07-09,37.0,False,63.0,-4.0,colocated,right
61,381.0209,0,437,2761,2975,4263,502,-6.0,200,1,0,382.0,0,1,735936.43496552,03_12_2014 level23_spatial_Magnum 10_20 log.txt,37.0,37.0,1311,2014-12-03,37.0,False,63.0,-4.0,colocated,right
77,550.7852,0,437,2761,2975,4263,502,-6.0,200,1,1,551.9896,1,1,735945.384152606,12_12_2014 level23_spatial_Magnum 09_04 log.txt,37.0,37.0,1311,2014-12-12,37.0,False,63.0,-4.0,colocated,right
103,624.1742,0,437,2761,2975,4263,510,-6.0,200,1,1,626.2802,1,1,735938.431529794,05_12_2014 level23_spatial_Magnum 10_11 log.txt,37.0,37.0,1311,2014-12-05,37.0,False,63.0,-4.0,colocated,right
173,998.3247,1,437,2761,2975,4263,501,-6.0,200,1,1,1001.722,1,1,735944.402526906,11_12_2014 level23_spatial_Magnum 09_23 log.txt,37.0,37.0,1311,2014-12-11,37.0,False,63.0,-4.0,colocated,right
131,853.0957,1,437,2761,2975,4263,507,-6.0,200,1,1,855.5101,1,1,735930.378623793,27_11_2014 level23_spatial_Magnum 08_51 log_BCooled.txt,37.0,37.0,1311,2014-11-27,37.0,False,63.0,-4.0,colocated,right
139,971.1673,0,437,2761,2975,4263,504,-6.0,200,1,0,972.0585,0,1,735929.425823696,26_11_2014 level23_spatial_Magnum 09_57 log.txt,37.0,37.0,1311,2014-11-26,37.0,False,63.0,-4.0,colocated,right
32,287.1742,1,437,2761,2975,4263,504,-6.0,200,1,1,290.904,1,1,735790.392212664,10_07_2014 level23_spatial_Magnum 09_20 log.txt,37.0,37.0,1311,2014-07-10,37.0,False,63.0,-4.0,colocated,right
50,304.387,0,437,2761,2975,4263,508,-6.0,200,1,1,305.6909,1,1,735948.397272998,15_12_2014 level23_spatial_Magnum 09_27 log.txt,37.0,37.0,1311,2014-12-15,37.0,False,63.0,-4.0,colocated,right
45,420.8455,1,437,2761,2975,4263,506,-6.0,200,1,1,426.5885,1,1,735929.41945423,26_11_2014 level23_spatial_Magnum 09_57 log.txt,37.0,37.0,1311,2014-11-26,37.0,False,63.0,-4.0,colocated,right
45,356.5489,0,437,2761,2975,4263,506,-6.0,200,1,1,357.7371,1,1,735945.381904501,12_12_2014 level23_spatial_Magnum 09_04 log.txt,37.0,37.0,1311,2014-12-12,37.0,False,63.0,-4.0,colocated,right
17,165.1151,1,437,2761,2975,4263,509,-6.0,200,1,0,170.8477,0,1,735692.450522166,03_04_2014 level23_spatial_Magnum 10_46 log.txt,37.0,37.0,1311,2014-04-03,37.0,False,63.0,-4.0,colocated,right
112,720.7832,1,437,2761,2975,4263,511,-6.0,200,1,0,724.9036,0,1,735943.611120176,10_12_2014 level23_spatial_Magnum 14_28 log.txt,37.0,37.0,1311,2014-12-10,37.0,False,63.0,-4.0,colocated,right
92,1022.2649,1,437,2761,2975,4263,505,-6.0,200,1,0,1031.1326,0,1,735937.656970659,04_12_2014 level23_spatial_Magnum 15_29 log.txt,36.0,35.0,1311,2014-12-04,35.5,False,63.0,-4.0,colocated,right
87,769.1538,1,437,2761,2975,4263,507,-6.0,200,1,1,772.7853,1,1,735805.61931891,25_07_2014 level23_spatial_Magnum 14_39 log.txt,37.0,37.0,1311,2014-07-25,37.0,False,63.0,-4.0,colocated,right
69,393.6447,0,437,2761,2975,4263,509,-6.0,200,1,1,395.14,1,1,735935.414278295,02_12_2014 level23_spatial_Magnum 09_50 log.txt,37.0,37.0,1311,2014-12-02,37.0,False,63.0,-4.0,colocated,right
45,420.8455,1,437,2761,2975,4263,506,-6.0,200,1,1,426.5885,1,1,735929.41945423,26_11_2014 level23_spatial_Magnum 09_57 log.txt,37.0,37.0,1311,2014-11-26,37.0,False,63.0,-4.0,colocated,right
9,39.2023,0,437,2761,2975,4263,507,-6.0,200,1,1,40.4928,1,1,735944.391425953,11_12_2014 level23_spatial_Magnum 09_23 log.txt,37.0,37.0,1311,2014-12-11,37.0,False,63.0,-4.0,colocated,right
131,853.0957,1,437,2761,2975,4263,507,-6.0,200,1,1,855.5101,1,1,735930.378623793,27_11_2014 level23_spatial_Magnum 08_51 log.txt,37.0,37.0,1311,2014-11-27,37.0,False,63.0,-4.0,colocated,right
33,925.3895,1,437,2761,2975,4263,509,-6.0,200,1,1,929.217,1,1,735942.388488304,09_12_2014 level23_spatial_Magnum 09_04 log.txt,37.0,37.0,1311,2014-12-09,37.0,False,63.0,-4.0,colocated,right
10,56.0692,1,437,2761,2975,4263,504,-6.0,200,1,0,60.2478,0,1,735938.424954505,05_12_2014 level23_spatial_Magnum 10_11 log.txt,37.0,37.0,1311,2014-12-05,37.0,False,63.0,-4.0,colocated,right
57,1729.5188,0,437,2761,2975,4263,509,-6.0,200,1,1,1731.0407,1,1,735941.379045357,08_12_2014 level23_spatial_Magnum 08_37 log.txt,37.0,37.0,1311,2014-12-08,37.0,False,63.0,-4.0,colocated,right
33,925.3895,1,437,2761,2975,4263,509,-6.0,200,1,1,929.217,1,1,735942.388488304,09_12_2014 level23_spatial_Magnum 09_04 log.txt,37.0,37.0,1311,2014-12-09,37.0,False,63.0,-4.0,colocated,right
106,685.1459,1,936,1551,2975,4263,506,-6.0,200,0,1,689.3202,0,1,735930.376679929,27_11_2014 level23_spatial_Magnum 08_51 log_BCooled.txt,37.0,37.0,1311,2014-11-27,37.0,False,63.0,-4.0,colocated,right
168,960.4053,0,936,1551,2975,4263,506,-6.0,200,0,1,965.5117,0,1,735944.402088024,11_12_2014 level23_spatial_Magnum 09_23 log.txt,37.0,37.0,1311,2014-12-11,37.0,False,63.0,-4.0,colocated,right
73,529.0534,1,936,1551,2975,4263,507,-6.0,200,0,0,531.7514,1,1,735945.383901081,12_12_2014 level23_spatial_Magnum 09_04 log.txt,37.0,37.0,1311,2014-12-12,37.0,False,63.0,-4.0,colocated,right
94,520.9627,1,936,1551,2975,4263,501,-6.0,200,0,0,523.7916,1,1,735944.397001883,11_12_2014 level23_spatial_Magnum 09_23 log.txt,37.0,37.0,1311,2014-12-11,37.0,False,63.0,-4.0,colocated,right
35,296.7791,0,936,1551,2975,4263,502,-6.0,200,0,0,297.6609,1,1,735947.378434943,14_12_2014 level23_spatial_Magnum 09_00 log.txt,37.0,37.0,1311,2014-12-14,37.0,False,63.0,-4.0,colocated,right
81,478.0784,0,936,1551,2975,4263,505,-6.0,200,0,0,479.025,1,1,735938.42983887,05_12_2014 level23_spatial_Magnum 10_11 log.txt,37.0,37.0,1311,2014-12-05,37.0,False,63.0,-4.0,colocated,right
87,679.6825,0,936,1551,2975,4263,510,-6.0,200,0,0,680.39,1,1,735929.422450029,26_11_2014 level23_spatial_Magnum 09_57 log.txt,37.0,37.0,1311,2014-11-26,37.0,False,63.0,-4.0,colocated,right
45,341.8557,0,936,1551,2975,4263,510,-6.0,200,0,0,343.4407,1,1,735941.594928885,08_12_2014 level23_spatial_Magnum 14_11 log.txt,37.0,37.0,1311,2014-12-08,37.0,False,63.0,-4.0,colocated,right
3,83.4417,0,936,1551,2975,4263,508,-6.0,200,0,0,84.5145,1,1,735946.378743538,13_12_2014 level23_spatial_Magnum 09_04 log.txt,37.0,37.0,1311,2014-12-13,37.0,False,63.0,-4.0,colocated,right
73,529.0534,1,936,1551,2975,4263,507,-6.0,200,0,0,531.7514,1,1,735945.383901081,12_12_2014 level23_spatial_Magnum 09_04 log.txt,37.0,37.0,1311,2014-12-12,37.0,False,63.0,-4.0,colocated,right
168,960.4053,0,936,1551,2975,4263,506,-6.0,200,0,1,965.5117,0,1,735944.402088024,11_12_2014 level23_spatial_Magnum 09_23 log.txt,37.0,37.0,1311,2014-12-11,37.0,False,63.0,-4.0,colocated,right
35,296.7791,0,936,1551,2975,4263,502,-6.0,200,0,0,297.6609,1,1,735947.378434943,14_12_2014 level23_spatial_Magnum 09_00 log.txt,37.0,37.0,1311,2014-12-14,37.0,False,63.0,-4.0,colocated,right
129,781.5408,1,936,1551,2975,4263,507,-6.0,200,0,1,784.1632,0,1,735935.418767833,02_12_2014 level23_spatial_Magnum 09_50 log.txt,37.0,37.0,1311,2014-12-02,37.0,False,63.0,-4.0,colocated,right
1,1.3338,1,936,1551,2975,4263,501,-6.0,200,0,0,2.8402,1,1,735944.39098766,11_12_2014 level23_spatial_Magnum 09_23 log.txt,37.0,37.0,1311,2014-12-11,37.0,False,63.0,-4.0,colocated,right
73,529.0534,1,936,1551,2975,4263,507,-6.0,200,0,0,531.7514,1,1,735945.383901081,12_12_2014 level23_spatial_Magnum 09_04 log.txt,37.0,37.0,1311,2014-12-12,37.0,False,63.0,-4.0,colocated,right
45,341.8557,0,936,1551,2975,4263,510,-6.0,200,0,0,343.4407,1,1,735941.594928885,08_12_2014 level23_spatial_Magnum 14_11 log.txt,37.0,37.0,1311,2014-12-08,37.0,False,63.0,-4.0,colocated,right
55,490.5291,1,936,1551,2975,4263,507,-6.0,200,0,0,492.4293,1,1,735929.420260753,26_11_2014 level23_spatial_Magnum 09_57 log.txt,37.0,37.0,1311,2014-11-26,37.0,False,63.0,-4.0,colocated,right
45,341.8557,0,936,1551,2975,4263,510,-6.0,200,0,0,343.4407,1,1,735941.594928885,08_12_2014 level23_spatial_Magnum 14_11 log.txt,37.0,37.0,1311,2014-12-08,37.0,False,63.0,-4.0,colocated,right
85,1288.6134,0,936,1551,2975,4263,501,-6.0,200,0,0,1289.7627,1,1,735942.392692285,09_12_2014 level23_spatial_Magnum 09_04 log.txt,37.0,37.0,1311,2014-12-09,37.0,False,63.0,-4.0,colocated,right
60,642.9385,0,936,1551,2975,4263,507,-6.0,200,0,0,644.1661,1,1,735937.383830307,04_12_2014 level23_spatial_Magnum 09_02 log.txt,37.0,37.0,1311,2014-12-04,37.0,False,63.0,-4.0,colocated,right
48,404.287,0,936,1551,2975,4263,509,-6.0,200,0,1,405.8112,0,1,735931.378984803,28_11_2014 level23_spatial_Magnum 08_59 log.txt,37.0,37.0,1311,2014-11-28,37.0,False,63.0,-4.0,colocated,right
4,748.2749,1,936,1551,2975,4263,507,-6.0,200,0,0,751.4114,1,1,735942.386438367,09_12_2014 level23_spatial_Magnum 09_04 log.txt,37.0,37.0,1311,2014-12-09,37.0,False,63.0,-4.0,colocated,right
106,685.1459,1,936,1551,2975,4263,506,-6.0,200,0,1,689.3202,0,1,735930.376679929,27_11_2014 level23_spatial_Magnum 08_51 log_BCooled.txt,37.0,37.0,1311,2014-11-27,37.0,False,63.0,-4.0,colocated,right
137,926.0253,0,437,2761,2975,4263,507,-9.0,200,1,1,927.0785,1,0,735945.388495663,12_12_2014 level23_spatial_Magnum 09_04 log.txt,37.0,37.0,1311,2014-12-12,37.0,False,66.0,-1.0,colocated,left
134,827.8073,1,437,2761,2975,4263,508,-9.0,200,1,1,830.6507,1,0,735938.433886659,05_12_2014 level23_spatial_Magnum 10_11 log.txt,37.0,37.0,1311,2014-12-05,37.0,False,66.0,-1.0,colocated,left
74,519.0783,0,437,2761,2975,4263,506,-9.0,200,1,1,520.0763,1,0,735947.381007851,14_12_2014 level23_spatial_Magnum 09_00 log.txt,37.0,37.0,1311,2014-12-14,37.0,False,66.0,-1.0,colocated,left
10,43.4728,1,437,2761,2975,4263,506,-9.0,200,1,0,45.2446,0,0,735944.39147538,11_12_2014 level23_spatial_Magnum 09_23 log.txt,37.0,37.0,1311,2014-12-11,37.0,False,66.0,-1.0,colocated,left
110,1144.9892,0,437,2761,2975,4263,506,-9.0,200,1,0,1146.2821,0,0,735937.658391079,04_12_2014 level23_spatial_Magnum 15_29 log.txt,36.0,35.0,1311,2014-12-04,35.5,False,66.0,-1.0,colocated,left
137,850.1387,0,437,2761,2975,4263,510,-9.0,200,1,0,851.038,0,0,735935.419561791,02_12_2014 level23_spatial_Magnum 09_50 log.txt,37.0,37.0,1311,2014-12-02,37.0,False,66.0,-1.0,colocated,left
8,154.0827,1,437,2761,2975,4263,509,-9.0,200,1,1,157.0267,1,0,735945.379561142,12_12_2014 level23_spatial_Magnum 09_04 log.txt,37.0,37.0,1311,2014-12-12,37.0,False,66.0,-1.0,colocated,left
137,850.1387,0,437,2761,2975,4263,510,-9.0,200,1,0,851.038,0,0,735935.419561791,02_12_2014 level23_spatial_Magnum 09_50 log.txt,37.0,37.0,1311,2014-12-02,37.0,False,66.0,-1.0,colocated,left
79,717.5925,0,437,2761,2975,4263,506,-9.0,200,1,1,718.9665,1,0,735805.618722135,25_07_2014 level23_spatial_Magnum 14_39 log.txt,37.0,37.0,1311,2014-07-25,37.0,False,66.0,-1.0,colocated,left
59,361.0979,1,437,2761,2975,4263,509,-9.0,200,1,1,364.6552,1,0,735936.434734929,03_12_2014 level23_spatial_Magnum 10_20 log.txt,37.0,37.0,1311,2014-12-03,37.0,False,66.0,-1.0,colocated,left
74,519.0783,0,437,2761,2975,4263,506,-9.0,200,1,1,520.0763,1,0,735947.381007851,14_12_2014 level23_spatial_Magnum 09_00 log.txt,37.0,37.0,1311,2014-12-14,37.0,False,66.0,-1.0,colocated,left
74,519.0783,0,437,2761,2975,4263,506,-9.0,200,1,1,520.0763,1,0,735947.381007851,14_12_2014 level23_spatial_Magnum 09_00 log.txt,37.0,37.0,1311,2014-12-14,37.0,False,66.0,-1.0,colocated,left
48,262.1759,0,437,2761,2975,4263,509,-9.0,200,1,1,275.5857,1,0,735943.605812221,10_12_2014 level23_spatial_Magnum 14_28 log.txt,37.0,37.0,1311,2014-12-10,37.0,False,66.0,-1.0,colocated,left
102,681.073,1,437,2761,2975,4263,505,-9.0,200,1,1,683.8371,1,0,735790.396771678,10_07_2014 level23_spatial_Magnum 09_20 log.txt,37.0,37.0,1311,2014-07-10,37.0,False,66.0,-1.0,colocated,left
65,1764.4682,1,437,2761,2975,4263,505,-9.0,200,1,1,1765.5158,1,0,735941.379449863,08_12_2014 level23_spatial_Magnum 08_37 log.txt,37.0,37.0,1311,2014-12-08,37.0,False,66.0,-1.0,colocated,left
79,717.5925,0,437,2761,2975,4263,506,-9.0,200,1,1,718.9665,1,0,735805.618722135,25_07_2014 level23_spatial_Magnum 14_39 log.txt,37.0,37.0,1311,2014-07-25,37.0,False,66.0,-1.0,colocated,left
1,7.4992,0,437,2761,2975,4263,501,-9.0,200,1,0,8.4466,0,0,735938.424392352,05_12_2014 level23_spatial_Magnum 10_11 log.txt,37.0,37.0,1311,2014-12-05,37.0,False,66.0,-1.0,colocated,left
66,383.173,0,437,2761,2975,4263,501,-9.0,200,1,0,383.9247,0,0,735935.414157095,02_12_2014 level23_spatial_Magnum 09_50 log.txt,37.0,37.0,1311,2014-12-02,37.0,False,66.0,-1.0,colocated,left
134,827.8073,1,437,2761,2975,4263,508,-9.0,200,1,1,830.6507,1,0,735938.433886659,05_12_2014 level23_spatial_Magnum 10_11 log.txt,37.0,37.0,1311,2014-12-05,37.0,False,66.0,-1.0,colocated,left
65,1764.4682,1,437,2761,2975,4263,505,-9.0,200,1,1,1765.5158,1,0,735941.379449863,08_12_2014 level23_spatial_Magnum 08_37 log.txt,37.0,37.0,1311,2014-12-08,37.0,False,66.0,-1.0,colocated,left
10,69.3695,1,437,2761,2975,4263,506,-9.0,200,1,0,72.0641,0,0,735948.394552888,15_12_2014 level23_spatial_Magnum 09_27 log.txt,37.0,37.0,1311,2014-12-15,37.0,False,66.0,-1.0,colocated,left
48,262.1759,0,437,2761,2975,4263,509,-9.0,200,1,1,275.5857,1,0,735943.605812221,10_12_2014 level23_spatial_Magnum 14_28 log.txt,37.0,37.0,1311,2014-12-10,37.0,False,66.0,-1.0,colocated,left
42,291.7045,1,437,2761,2975,4263,507,-9.0,200,1,1,294.6702,1,0,735946.381153987,13_12_2014 level23_spatial_Magnum 09_04 log.txt,37.0,37.0,1311,2014-12-13,37.0,False,66.0,-1.0,colocated,left
129,740.7791,1,936,1551,2975,4263,509,-9.0,200,0,0,742.7784,1,0,735944.399546054,11_12_2014 level23_spatial_Magnum 09_23 log.txt,37.0,37.0,1311,2014-12-11,37.0,False,66.0,-1.0,colocated,left
93,864.3047,1,936,1551,2975,4263,507,-9.0,200,0,0,866.9911,1,0,735937.386392416,04_12_2014 level23_spatial_Magnum 09_02 log.txt,37.0,37.0,1311,2014-12-04,37.0,False,66.0,-1.0,colocated,left
47,935.919,0,936,1551,2975,4263,509,-9.0,200,0,0,936.4179,1,0,735928.360832396,25_11_2014 level23_spatial_Magnum 08_24 log.txt,37.0,37.0,1311,2014-11-25,37.0,False,66.0,-1.0,colocated,left
84,506.4648,0,936,1551,2975,4263,508,-9.0,200,0,0,507.261,1,0,735935.415584083,02_12_2014 level23_spatial_Magnum 09_50 log.txt,37.0,37.0,1311,2014-12-02,37.0,False,66.0,-1.0,colocated,left
114,754.8671,1,936,1551,2975,4263,509,-9.0,200,0,0,757.952,1,0,735947.383736888,14_12_2014 level23_spatial_Magnum 09_00 log.txt,37.0,37.0,1311,2014-12-14,37.0,False,66.0,-1.0,colocated,left
22,118.0026,1,936,1551,2975,4263,502,-9.0,200,0,0,118.6158,1,0,735936.431921326,03_12_2014 level23_spatial_Magnum 10_20 log.txt,37.0,37.0,1311,2014-12-03,37.0,False,66.0,-1.0,colocated,left
10,57.5812,0,936,1551,2975,4263,511,-9.0,200,0,0,58.4916,1,0,735943.603444227,10_12_2014 level23_spatial_Magnum 14_28 log.txt,37.0,37.0,1311,2014-12-10,37.0,False,66.0,-1.0,colocated,left
58,388.5762,1,936,1551,2975,4263,510,-9.0,200,0,0,391.1626,1,0,735930.37324741,27_11_2014 level23_spatial_Magnum 08_51 log_BCooled.txt,37.0,37.0,1311,2014-11-27,37.0,False,66.0,-1.0,colocated,left
36,308.7265,1,936,1551,2975,4263,509,-9.0,200,0,0,310.7707,1,0,735945.381351001,12_12_2014 level23_spatial_Magnum 09_04 log.txt,37.0,37.0,1311,2014-12-12,37.0,False,66.0,-1.0,colocated,left
114,754.8671,1,936,1551,2975,4263,509,-9.0,200,0,0,757.952,1,0,735947.383736888,14_12_2014 level23_spatial_Magnum 09_00 log.txt,37.0,37.0,1311,2014-12-14,37.0,False,66.0,-1.0,colocated,left
14,179.6409,0,936,1551,2975,4263,501,-9.0,200,0,0,180.5437,1,0,735947.377079177,14_12_2014 level23_spatial_Magnum 09_00 log.txt,37.0,37.0,1311,2014-12-14,37.0,False,66.0,-1.0,colocated,left
10,57.5812,0,936,1551,2975,4263,511,-9.0,200,0,0,58.4916,1,0,735943.603444227,10_12_2014 level23_spatial_Magnum 14_28 log.txt,37.0,37.0,1311,2014-12-10,37.0,False,66.0,-1.0,colocated,left
110,708.7483,1,936,1551,2975,4263,506,-9.0,200,0,0,710.8281,1,0,735930.376953105,27_11_2014 level23_spatial_Magnum 08_51 log.txt,37.0,37.0,1311,2014-11-27,37.0,False,66.0,-1.0,colocated,left
124,895.7028,0,936,1551,2975,4263,506,-9.0,200,0,0,896.4367,1,0,735929.424950264,26_11_2014 level23_spatial_Magnum 09_57 log.txt,37.0,37.0,1311,2014-11-26,37.0,False,66.0,-1.0,colocated,left
44,1673.4795,1,936,1551,2975,4263,508,-9.0,200,0,0,1674.2973,1,0,735941.378396753,08_12_2014 level23_spatial_Magnum 08_37 log.txt,37.0,37.0,1311,2014-12-08,37.0,False,66.0,-1.0,colocated,left
22,118.0026,1,936,1551,2975,4263,502,-9.0,200,0,0,118.6158,1,0,735936.431921326,03_12_2014 level23_spatial_Magnum 10_20 log.txt,37.0,37.0,1311,2014-12-03,37.0,False,66.0,-1.0,colocated,left
124,895.7028,0,936,1551,2975,4263,506,-9.0,200,0,0,896.4367,1,0,735929.424950264,26_11_2014 level23_spatial_Magnum 09_57 log.txt,37.0,37.0,1311,2014-11-26,37.0,False,66.0,-1.0,colocated,left
39,387.1171,0,936,1551,2975,4263,503,-9.0,200,0,1,388.116,0,0,735929.419063855,26_11_2014 level23_spatial_Magnum 09_57 log.txt,37.0,37.0,1311,2014-11-26,37.0,False,66.0,-1.0,colocated,left
90,561.446,0,936,1551,2975,4263,511,-9.0,200,0,0,562.2437,1,0,735936.437053773,03_12_2014 level23_spatial_Magnum 10_20 log.txt,37.0,37.0,1311,2014-12-03,37.0,False,66.0,-1.0,colocated,left
142,915.641,1,936,1551,2975,4263,507,-9.0,200,0,0,917.7107,1,0,735946.388375474,13_12_2014 level23_spatial_Magnum 09_04 log.txt,37.0,37.0,1311,2014-12-13,37.0,False,66.0,-1.0,colocated,left
44,1673.4795,1,936,1551,2975,4263,508,-9.0,200,0,0,1674.2973,1,0,735941.378396753,08_12_2014 level23_spatial_Magnum 08_37 log.txt,37.0,37.0,1311,2014-12-08,37.0,False,66.0,-1.0,colocated,left
103,1103.6029,0,936,1551,2975,4263,509,-9.0,200,0,0,1104.821,1,0,735937.657912071,04_12_2014 level23_spatial_Magnum 15_29 log.txt,36.0,34.3971092626306,1311,2014-12-04,35.198554631315304,False,66.0,-1.0,colocated,left
106,725.7677,0,936,1551,2975,4263,505,-9.0,200,0,0,726.6758,1,0,735945.386177867,12_12_2014 level23_spatial_Magnum 09_04 log.txt,37.0,37.0,1311,2014-12-12,37.0,False,66.0,-1.0,colocated,left
100,653.63,0,437,2761,2975,4263,505,-9.0,200,1,0,654.5016,0,1,735930.376315162,27_11_2014 level23_spatial_Magnum 08_51 log.txt,37.0,37.0,1311,2014-11-27,37.0,False,66.0,-1.0,colocated,right
92,629.2552,0,437,2761,2975,4263,508,-9.0,200,1,0,630.5722,0,1,735790.396171935,10_07_2014 level23_spatial_Magnum 09_20 log.txt,37.0,37.0,1311,2014-07-10,37.0,False,66.0,-1.0,colocated,right
39,206.7244,1,437,2761,2975,4263,504,-9.0,200,1,1,210.1161,1,1,735944.393364866,11_12_2014 level23_spatial_Magnum 09_23 log.txt,37.0,37.0,1311,2014-12-11,37.0,False,66.0,-1.0,colocated,right
47,357.7365,1,437,2761,2975,4263,502,-9.0,200,1,1,360.8887,1,1,735947.379140469,14_12_2014 level23_spatial_Magnum 09_00 log.txt,37.0,37.0,1311,2014-12-14,37.0,False,66.0,-1.0,colocated,right
76,697.8686,0,437,2761,2975,4263,511,-9.0,200,1,0,698.8916,0,1,735805.61849385,25_07_2014 level23_spatial_Magnum 14_39 log.txt,37.0,37.0,1311,2014-07-25,37.0,False,66.0,-1.0,colocated,right
59,362.8262,0,437,2761,2975,4263,511,-9.0,200,1,1,364.3344,1,1,735948.397949377,15_12_2014 level23_spatial_Magnum 09_27 log.txt,37.0,37.0,1311,2014-12-15,37.0,False,66.0,-1.0,colocated,right
10,180.9454,1,437,2761,2975,4263,505,-9.0,200,1,1,186.7304,1,1,735931.376399831,28_11_2014 level23_spatial_Magnum 08_59 log.txt,37.0,37.0,1311,2014-11-28,37.0,False,66.0,-1.0,colocated,right
100,653.63,0,437,2761,2975,4263,505,-9.0,200,1,0,654.5016,0,1,735930.376315162,27_11_2014 level23_spatial_Magnum 08_51 log_BCooled.txt,37.0,37.0,1311,2014-11-27,37.0,False,66.0,-1.0,colocated,right
134,1632.7731,0,437,2761,2975,4263,511,-9.0,200,1,0,1633.6514,0,1,735942.396675615,09_12_2014 level23_spatial_Magnum 09_04 log.txt,37.0,37.0,1311,2014-12-09,37.0,False,66.0,-1.0,colocated,right
160,1061.0992,1,437,2761,2975,4263,505,-9.0,200,1,1,1063.873,1,1,735945.390059019,12_12_2014 level23_spatial_Magnum 09_04 log.txt,37.0,37.0,1311,2014-12-12,37.0,False,66.0,-1.0,colocated,right
100,653.63,0,437,2761,2975,4263,505,-9.0,200,1,0,654.5016,0,1,735930.376315162,27_11_2014 level23_spatial_Magnum 08_51 log_BCooled.txt,37.0,37.0,1311,2014-11-27,37.0,False,66.0,-1.0,colocated,right
98,702.9968,1,437,2761,2975,4263,501,-9.0,200,1,1,706.0118,1,1,735692.456747648,03_04_2014 level23_spatial_Magnum 10_46 log.txt,37.0,37.0,1311,2014-04-03,37.0,False,66.0,-1.0,colocated,right
92,629.2552,0,437,2761,2975,4263,508,-9.0,200,1,0,630.5722,0,1,735790.396171935,10_07_2014 level23_spatial_Magnum 09_20 log.txt,37.0,37.0,1311,2014-07-10,37.0,False,66.0,-1.0,colocated,right
92,629.2552,0,437,2761,2975,4263,508,-9.0,200,1,0,630.5722,0,1,735790.396171935,10_07_2014 level23_spatial_Magnum 09_20 log.txt,37.0,37.0,1311,2014-07-10,37.0,False,66.0,-1.0,colocated,right
52,344.6349,1,437,2761,2975,4263,508,-9.0,200,1,1,348.5181,1,1,735930.37273883,27_11_2014 level23_spatial_Magnum 08_51 log.txt,37.0,37.0,1311,2014-11-27,37.0,False,66.0,-1.0,colocated,right
59,362.8262,0,437,2761,2975,4263,511,-9.0,200,1,1,364.3344,1,1,735948.397949377,15_12_2014 level23_spatial_Magnum 09_27 log.txt,37.0,37.0,1311,2014-12-15,37.0,False,66.0,-1.0,colocated,right
75,528.9697,0,437,2761,2975,4263,511,-9.0,200,1,1,529.7789,1,1,735790.395011223,10_07_2014 level23_spatial_Magnum 09_20 log.txt,37.0,37.0,1311,2014-07-10,37.0,False,66.0,-1.0,colocated,right
101,610.4264,1,437,2761,2975,4263,508,-9.0,200,1,1,614.2396,1,1,735935.416787343,02_12_2014 level23_spatial_Magnum 09_50 log.txt,37.0,37.0,1311,2014-12-02,37.0,False,66.0,-1.0,colocated,right
79,954.9374,1,437,2761,2975,4263,505,-9.0,200,1,1,958.6212,1,1,735937.656191405,04_12_2014 level23_spatial_Magnum 15_29 log.txt,36.0,35.0,1311,2014-12-04,35.5,False,66.0,-1.0,colocated,right
29,1605.033,0,437,2761,2975,4263,501,-9.0,200,1,1,1606.1664,1,1,735941.377604549,08_12_2014 level23_spatial_Magnum 08_37 log.txt,37.0,37.0,1311,2014-12-08,37.0,False,66.0,-1.0,colocated,right
48,421.5402,0,437,2761,2975,4263,509,-9.0,200,1,1,422.499,1,1,735802.594462271,22_07_2014 level23_spatial_Magnum 14_09 log.txt,37.0,37.0,1311,2014-07-22,37.0,False,66.0,-1.0,colocated,right
54,409.005,1,437,2761,2975,4263,507,-9.0,200,1,0,412.7703,0,1,735941.595706076,08_12_2014 level23_spatial_Magnum 14_11 log.txt,37.0,37.0,1311,2014-12-08,37.0,False,66.0,-1.0,colocated,right
160,1061.0992,1,437,2761,2975,4263,505,-9.0,200,1,1,1063.873,1,1,735945.390059019,12_12_2014 level23_spatial_Magnum 09_04 log.txt,37.0,37.0,1311,2014-12-12,37.0,False,66.0,-1.0,colocated,right
133,867.4776,0,936,1551,2975,4263,503,-9.0,200,0,0,868.5506,1,1,735930.37879025,27_11_2014 level23_spatial_Magnum 08_51 log.txt,37.0,37.0,1311,2014-11-27,37.0,False,66.0,-1.0,colocated,right
32,313.1292,0,936,1551,2975,4263,505,-9.0,200,0,1,314.222,0,1,735931.377929736,28_11_2014 level23_spatial_Magnum 08_59 log.txt,37.0,37.0,1311,2014-11-28,37.0,False,66.0,-1.0,colocated,right
20,107.1312,1,936,1551,2975,4263,507,-9.0,200,0,0,108.6599,1,1,735935.410962167,02_12_2014 level23_spatial_Magnum 09_50 log.txt,37.0,37.0,1311,2014-12-02,37.0,False,66.0,-1.0,colocated,right
23,121.5931,0,936,1551,2975,4263,511,-9.0,200,0,0,125.5059,1,1,735936.431962883,03_12_2014 level23_spatial_Magnum 10_20 log.txt,37.0,37.0,1311,2014-12-03,37.0,False,66.0,-1.0,colocated,right
66,1100.2707,1,936,1551,2975,4263,511,-9.0,200,0,0,1102.7127,1,1,735928.362734615,25_11_2014 level23_spatial_Magnum 08_24 log.txt,37.0,37.0,1311,2014-11-25,37.0,False,66.0,-1.0,colocated,right
101,1401.363,1,936,1551,2975,4263,501,-9.0,200,0,0,1403.7411,1,1,735942.393997257,09_12_2014 level23_spatial_Magnum 09_04 log.txt,37.0,37.0,1311,2014-12-09,37.0,False,66.0,-1.0,colocated,right
23,121.5931,0,936,1551,2975,4263,511,-9.0,200,0,0,125.5059,1,1,735936.431962883,03_12_2014 level23_spatial_Magnum 10_20 log.txt,37.0,37.0,1311,2014-12-03,37.0,False,66.0,-1.0,colocated,right
99,674.1706,0,936,1551,2975,4263,509,-9.0,200,0,0,675.14,1,1,735947.382802901,14_12_2014 level23_spatial_Magnum 09_00 log.txt,37.0,37.0,1311,2014-12-14,37.0,False,66.0,-1.0,colocated,right
101,1401.363,1,936,1551,2975,4263,501,-9.0,200,0,0,1403.7411,1,1,735942.393997257,09_12_2014 level23_spatial_Magnum 09_04 log.txt,37.0,37.0,1311,2014-12-09,37.0,False,66.0,-1.0,colocated,right
95,697.346,0,936,1551,2975,4263,509,-9.0,200,0,1,698.7616,0,1,735931.38237669,28_11_2014 level23_spatial_Magnum 08_59 log.txt,37.0,37.0,1311,2014-11-28,37.0,False,66.0,-1.0,colocated,right
19,118.28,1,936,1551,2975,4263,504,-9.0,200,0,0,120.0656,1,1,735948.395118981,15_12_2014 level23_spatial_Magnum 09_27 log.txt,37.0,37.0,1311,2014-12-15,37.0,False,66.0,-1.0,colocated,right
32,313.1292,0,936,1551,2975,4263,505,-9.0,200,0,1,314.222,0,1,735931.377929736,28_11_2014 level23_spatial_Magnum 08_59 log.txt,37.0,37.0,1311,2014-11-28,37.0,False,66.0,-1.0,colocated,right
52,404.3731,0,936,1551,2975,4263,507,-9.0,200,0,0,405.338,1,1,735945.382458022,12_12_2014 level23_spatial_Magnum 09_04 log.txt,37.0,37.0,1311,2014-12-12,37.0,False,66.0,-1.0,colocated,right
55,298.3128,1,936,1551,2975,4263,501,-9.0,200,0,0,301.2212,1,1,735944.394424917,11_12_2014 level23_spatial_Magnum 09_23 log.txt,37.0,37.0,1311,2014-12-11,37.0,False,66.0,-1.0,colocated,right
115,708.1302,1,936,1551,2975,4263,502,-9.0,200,0,0,709.9036,1,1,735935.417918174,02_12_2014 level23_spatial_Magnum 09_50 log.txt,37.0,37.0,1311,2014-12-02,37.0,False,66.0,-1.0,colocated,right
142,890.5533,0,936,1551,2975,4263,502,-9.0,200,0,1,895.9893,0,1,735938.434612885,05_12_2014 level23_spatial_Magnum 10_11 log.txt,37.0,37.0,1311,2014-12-05,37.0,False,66.0,-1.0,colocated,right
95,697.346,0,936,1551,2975,4263,509,-9.0,200,0,1,698.7616,0,1,735931.38237669,28_11_2014 level23_spatial_Magnum 08_59 log.txt,37.0,37.0,1311,2014-11-28,37.0,False,66.0,-1.0,colocated,right
19,275.2164,0,936,1551,2975,4263,502,-9.0,200,0,1,276.2765,0,1,735929.417768708,26_11_2014 level23_spatial_Magnum 09_57 log.txt,37.0,37.0,1311,2014-11-26,37.0,False,66.0,-1.0,colocated,right
19,118.28,1,936,1551,2975,4263,504,-9.0,200,0,0,120.0656,1,1,735948.395118981,15_12_2014 level23_spatial_Magnum 09_27 log.txt,37.0,37.0,1311,2014-12-15,37.0,False,66.0,-1.0,colocated,right
136,780.283,0,936,1551,2975,4263,503,-9.0,200,0,0,781.3733,1,1,735944.400003275,11_12_2014 level23_spatial_Magnum 09_23 log.txt,37.0,37.0,1311,2014-12-11,37.0,False,66.0,-1.0,colocated,right
13,174.6415,1,936,1551,2975,4263,510,-9.0,200,0,0,176.6141,1,1,735947.377021314,14_12_2014 level23_spatial_Magnum 09_00 log.txt,37.0,37.0,1311,2014-12-14,37.0,False,66.0,-1.0,colocated,right
24,189.8848,1,936,1551,2975,4263,506,-9.0,200,0,0,190.7884,1,1,735946.379975518,13_12_2014 level23_spatial_Magnum 09_04 log.txt,37.0,37.0,1311,2014-12-13,37.0,False,66.0,-1.0,colocated,right
51,595.9281,0,936,1551,2975,4263,505,-9.0,200,0,0,596.8823,1,1,735937.383286205,04_12_2014 level23_spatial_Magnum 09_02 log.txt,37.0,37.0,1311,2014-12-04,37.0,False,66.0,-1.0,colocated,right
68,376.5843,1,437,2761,2975,4263,510,-12.0,200,1,1,380.1172,1,0,735944.395330837,11_12_2014 level23_spatial_Magnum 09_23 log.txt,37.0,37.0,1311,2014-12-11,37.0,False,69.0,2.0,colocated,left
54,413.0567,0,437,2761,2975,4263,510,-12.0,200,1,1,413.9591,1,0,735790.393669638,10_07_2014 level23_spatial_Magnum 09_20 log.txt,37.0,37.0,1311,2014-07-10,37.0,False,69.0,2.0,colocated,left
23,1574.7493,1,437,2761,2975,4263,511,-12.0,200,1,1,1577.059,1,0,735941.377254043,08_12_2014 level23_spatial_Magnum 08_37 log.txt,37.0,37.0,1311,2014-12-08,37.0,False,69.0,2.0,colocated,left
53,534.1254,1,437,2761,2975,4263,507,-12.0,200,1,1,538.1315,1,0,735805.616598674,25_07_2014 level23_spatial_Magnum 14_39 log.txt,37.0,37.0,1311,2014-07-25,37.0,False,69.0,2.0,colocated,left
97,668.8407,0,437,2761,2975,4263,504,-12.0,200,1,0,669.6072,0,0,735945.38551899,12_12_2014 level23_spatial_Magnum 09_04 log.txt,37.0,37.0,1311,2014-12-12,37.0,False,69.0,2.0,colocated,left
50,462.2556,0,437,2761,2975,4263,503,-12.0,200,1,0,463.1823,0,0,735929.419933514,26_11_2014 level23_spatial_Magnum 09_57 log.txt,37.0,37.0,1311,2014-11-26,37.0,False,69.0,2.0,colocated,left
49,330.2869,0,437,2761,2975,4263,507,-12.0,200,1,1,331.5169,1,0,735946.381600543,13_12_2014 level23_spatial_Magnum 09_04 log.txt,37.0,37.0,1311,2014-12-13,37.0,False,69.0,2.0,colocated,left
136,844.9769,0,437,2761,2975,4263,504,-12.0,200,1,1,847.6876,1,0,735938.434085381,05_12_2014 level23_spatial_Magnum 10_11 log.txt,37.0,37.0,1311,2014-12-05,37.0,False,69.0,2.0,colocated,left
117,719.0625,0,437,2761,2975,4263,511,-12.0,200,1,1,720.2676,1,0,735938.432628038,05_12_2014 level23_spatial_Magnum 10_11 log.txt,37.0,37.0,1311,2014-12-05,37.0,False,69.0,2.0,colocated,left
85,585.0204,1,437,2761,2975,4263,506,-12.0,200,1,1,588.3596,1,0,735947.381771069,14_12_2014 level23_spatial_Magnum 09_00 log.txt,37.0,37.0,1311,2014-12-14,37.0,False,69.0,2.0,colocated,left
83,688.4348,1,437,2761,2975,4263,508,-12.0,200,1,1,691.6128,1,0,735802.597551329,22_07_2014 level23_spatial_Magnum 14_09 log.txt,37.0,37.0,1311,2014-07-22,37.0,False,69.0,2.0,colocated,left
85,510.6885,1,437,2761,2975,4263,510,-12.0,200,1,0,512.9122,0,0,735935.415632969,02_12_2014 level23_spatial_Magnum 09_50 log.txt,37.0,37.0,1311,2014-12-02,37.0,False,69.0,2.0,colocated,left
50,380.2454,1,437,2761,2975,4263,503,-12.0,200,1,0,382.6251,0,0,735947.379400988,14_12_2014 level23_spatial_Magnum 09_00 log.txt,37.0,37.0,1311,2014-12-14,37.0,False,69.0,2.0,colocated,left
16,1536.7532,0,437,2761,2975,4263,504,-12.0,200,1,0,1537.7238,0,0,735941.376814273,08_12_2014 level23_spatial_Magnum 08_37 log.txt,37.0,37.0,1311,2014-12-08,37.0,False,69.0,2.0,colocated,left
125,816.483,1,437,2761,2975,4263,510,-12.0,200,1,1,819.378,1,0,735930.378200035,27_11_2014 level23_spatial_Magnum 08_51 log.txt,37.0,37.0,1311,2014-11-27,37.0,False,69.0,2.0,colocated,left
50,462.2556,0,437,2761,2975,4263,503,-12.0,200,1,0,463.1823,0,0,735929.419933514,26_11_2014 level23_spatial_Magnum 09_57 log.txt,37.0,37.0,1311,2014-11-26,37.0,False,69.0,2.0,colocated,left
143,821.878,0,437,2761,2975,4263,508,-12.0,200,1,1,823.0475,1,0,735944.400484699,11_12_2014 level23_spatial_Magnum 09_23 log.txt,37.0,37.0,1311,2014-12-11,37.0,False,69.0,2.0,colocated,left
11,70.4069,1,437,2761,2975,4263,508,-12.0,200,1,1,73.2115,1,0,735788.748037117,08_07_2014 level23_spatial_Magnum 17_56 log.txt,37.0,37.0,1311,2014-07-08,37.0,False,69.0,2.0,colocated,left
38,228.8194,1,437,2761,2975,4263,507,-12.0,200,1,0,230.3703,0,0,735948.396398373,15_12_2014 level23_spatial_Magnum 09_27 log.txt,37.0,37.0,1311,2014-12-15,37.0,False,69.0,2.0,colocated,left
5,28.9018,0,437,2761,2975,4263,508,-12.0,200,1,0,30.1563,0,0,735943.603112289,10_12_2014 level23_spatial_Magnum 14_28 log.txt,37.0,37.0,1311,2014-12-10,37.0,False,69.0,2.0,colocated,left
23,1574.7493,1,437,2761,2975,4263,511,-12.0,200,1,1,1577.059,1,0,735941.377254043,08_12_2014 level23_spatial_Magnum 08_37 log.txt,37.0,37.0,1311,2014-12-08,37.0,False,69.0,2.0,colocated,left
85,510.6885,1,437,2761,2975,4263,510,-12.0,200,1,0,512.9122,0,0,735935.415632969,02_12_2014 level23_spatial_Magnum 09_50 log.txt,37.0,37.0,1311,2014-12-02,37.0,False,69.0,2.0,colocated,left
107,666.7104,0,437,2761,2975,4263,511,-12.0,200,1,0,667.506,0,0,735936.438272111,03_12_2014 level23_spatial_Magnum 10_20 log.txt,37.0,37.0,1311,2014-12-03,37.0,False,69.0,2.0,colocated,left
71,451.8947,0,936,1551,2975,4263,504,-12.0,200,0,0,452.9114,1,0,735936.435785818,03_12_2014 level23_spatial_Magnum 10_20 log.txt,37.0,37.0,1311,2014-12-03,37.0,False,69.0,2.0,colocated,left
37,196.3295,1,936,1551,2975,4263,507,-12.0,200,0,0,197.3033,1,0,735944.393244554,11_12_2014 level23_spatial_Magnum 09_23 log.txt,37.0,37.0,1311,2014-12-11,37.0,False,69.0,2.0,colocated,left
95,1041.0902,0,936,1551,2975,4263,508,-12.0,200,0,0,1041.9624,1,0,735937.657188544,04_12_2014 level23_spatial_Magnum 15_29 log.txt,36.0,35.0,1311,2014-12-04,35.5,False,69.0,2.0,colocated,left
132,851.721,0,936,1551,2975,4263,509,-12.0,200,0,0,852.6003,1,0,735946.38763566,13_12_2014 level23_spatial_Magnum 09_04 log.txt,37.0,37.0,1311,2014-12-13,37.0,False,69.0,2.0,colocated,left
72,551.9114,1,936,1551,2975,4263,507,-12.0,200,0,0,554.6242,1,0,735941.597360086,08_12_2014 level23_spatial_Magnum 14_11 log.txt,37.0,37.0,1311,2014-12-08,37.0,False,69.0,2.0,colocated,left
76,473.1408,1,936,1551,2975,4263,501,-12.0,200,0,0,475.6756,1,0,735948.399226167,15_12_2014 level23_spatial_Magnum 09_27 log.txt,37.0,37.0,1311,2014-12-15,37.0,False,69.0,2.0,colocated,left
9,225.4594,0,936,1551,2975,4263,501,-12.0,200,0,0,226.2457,1,0,735929.417192817,26_11_2014 level23_spatial_Magnum 09_57 log.txt,37.0,37.0,1311,2014-11-26,37.0,False,69.0,2.0,colocated,left
82,1266.8577,1,936,1551,2975,4263,508,-12.0,200,0,0,1269.9912,1,0,735942.392440483,09_12_2014 level23_spatial_Magnum 09_04 log.txt,37.0,37.0,1311,2014-12-09,37.0,False,69.0,2.0,colocated,left
159,984.6696,0,936,1551,2975,4263,510,-12.0,200,0,1,987.4161,0,0,735938.435702194,05_12_2014 level23_spatial_Magnum 10_11 log.txt,37.0,37.0,1311,2014-12-05,37.0,False,69.0,2.0,colocated,left
60,528.5571,0,936,1551,2975,4263,501,-12.0,200,0,0,530.5714,1,0,735802.595700892,22_07_2014 level23_spatial_Magnum 14_09 log.txt,37.0,37.0,1311,2014-07-22,37.0,False,69.0,2.0,colocated,left
116,714.7559,1,936,1551,2975,4263,501,-12.0,200,0,1,718.5563,0,0,735935.41799486,02_12_2014 level23_spatial_Magnum 09_50 log.txt,37.0,37.0,1311,2014-12-02,37.0,False,69.0,2.0,colocated,left
13,133.1922,1,936,1551,2975,4263,503,-12.0,200,0,0,136.7955,1,0,735692.450152687,03_04_2014 level23_spatial_Magnum 10_46 log.txt,37.0,37.0,1311,2014-04-03,37.0,False,69.0,2.0,colocated,left
64,426.799,1,936,1551,2975,4263,507,-12.0,200,0,0,429.8251,1,0,735946.382717581,13_12_2014 level23_spatial_Magnum 09_04 log.txt,37.0,37.0,1311,2014-12-13,37.0,False,69.0,2.0,colocated,left
82,1266.8577,1,936,1551,2975,4263,508,-12.0,200,0,0,1269.9912,1,0,735942.392440483,09_12_2014 level23_spatial_Magnum 09_04 log.txt,37.0,37.0,1311,2014-12-09,37.0,False,69.0,2.0,colocated,left
141,906.56,1,936,1551,2975,4263,510,-12.0,200,0,0,908.5478,1,0,735946.38827037,13_12_2014 level23_spatial_Magnum 09_04 log.txt,37.0,37.0,1311,2014-12-13,37.0,False,69.0,2.0,colocated,left
17,92.02,1,936,1551,2975,4263,510,-12.0,200,0,0,93.7594,1,0,735935.410787269,02_12_2014 level23_spatial_Magnum 09_50 log.txt,37.0,37.0,1311,2014-12-02,37.0,False,69.0,2.0,colocated,left
112,671.7793,0,936,1551,2975,4263,501,-12.0,200,0,1,673.3783,0,0,735788.754997446,08_07_2014 level23_spatial_Magnum 17_56 log.txt,37.0,37.0,1311,2014-07-08,37.0,False,69.0,2.0,colocated,left
148,912.5315,1,936,1551,2975,4263,510,-12.0,200,0,0,914.5994,1,0,735948.404311707,15_12_2014 level23_spatial_Magnum 09_27 log.txt,37.0,37.0,1311,2014-12-15,37.0,False,69.0,2.0,colocated,left
90,530.7092,1,936,1551,2975,4263,503,-12.0,200,0,0,532.4902,1,0,735943.608920245,10_12_2014 level23_spatial_Magnum 14_28 log.txt,37.0,37.0,1311,2014-12-10,37.0,False,69.0,2.0,colocated,left
119,868.2997,0,936,1551,2975,4263,502,-12.0,200,0,0,868.7933,1,0,735929.424633098,26_11_2014 level23_spatial_Magnum 09_57 log.txt,37.0,37.0,1311,2014-11-26,37.0,False,69.0,2.0,colocated,left
52,600.5492,1,936,1551,2975,4263,503,-12.0,200,0,0,602.1495,1,0,735937.38333969,04_12_2014 level23_spatial_Magnum 09_02 log.txt,37.0,37.0,1311,2014-12-04,37.0,False,69.0,2.0,colocated,left
141,906.56,1,936,1551,2975,4263,510,-12.0,200,0,0,908.5478,1,0,735946.38827037,13_12_2014 level23_spatial_Magnum 09_04 log.txt,37.0,37.0,1311,2014-12-13,37.0,False,69.0,2.0,colocated,left
10,161.9423,0,936,1551,2975,4263,503,-12.0,200,0,0,162.7974,1,0,735947.376874332,14_12_2014 level23_spatial_Magnum 09_00 log.txt,37.0,37.0,1311,2014-12-14,37.0,False,69.0,2.0,colocated,left
131,792.199,0,437,2761,2975,4263,502,-12.0,200,1,1,793.2672,1,1,735935.418891192,02_12_2014 level23_spatial_Magnum 09_50 log.txt,37.0,37.0,1311,2014-12-02,37.0,False,69.0,2.0,colocated,right
60,1740.6352,1,437,2761,2975,4263,502,-12.0,200,1,1,1741.6449,1,1,735941.379174019,08_12_2014 level23_spatial_Magnum 08_37 log.txt,37.0,37.0,1311,2014-12-08,37.0,False,69.0,2.0,colocated,right
71,886.6815,1,437,2761,2975,4263,508,-12.0,200,1,1,889.7036,1,1,735937.655401406,04_12_2014 level23_spatial_Magnum 15_29 log.txt,36.0,35.0,1311,2014-12-04,35.5,False,69.0,2.0,colocated,right
60,444.9774,1,437,2761,2975,4263,504,-12.0,200,1,0,447.8107,0,1,735790.39403909,10_07_2014 level23_spatial_Magnum 09_20 log.txt,37.0,37.0,1311,2014-07-10,37.0,False,69.0,2.0,colocated,right
9,49.323,1,437,2761,2975,4263,509,-12.0,200,1,1,50.7014,1,1,735938.424876424,05_12_2014 level23_spatial_Magnum 10_11 log.txt,37.0,37.0,1311,2014-12-05,37.0,False,69.0,2.0,colocated,right
28,288.7963,1,437,2761,2975,4263,504,-12.0,200,1,1,292.3799,1,1,735931.377648105,28_11_2014 level23_spatial_Magnum 08_59 log.txt,37.0,37.0,1311,2014-11-28,37.0,False,69.0,2.0,colocated,right
66,475.4763,1,437,2761,2975,4263,509,-12.0,200,1,1,478.9178,1,1,735790.394392087,10_07_2014 level23_spatial_Magnum 09_20 log.txt,37.0,37.0,1311,2014-07-10,37.0,False,69.0,2.0,colocated,right
146,1713.7875,1,437,2761,2975,4263,508,-12.0,200,1,1,1716.987,1,1,735942.397613281,09_12_2014 level23_spatial_Magnum 09_04 log.txt,37.0,37.0,1311,2014-12-09,37.0,False,69.0,2.0,colocated,right
139,869.2879,1,437,2761,2975,4263,509,-12.0,200,1,1,872.3843,1,1,735938.434366758,05_12_2014 level23_spatial_Magnum 10_11 log.txt,37.0,37.0,1311,2014-12-05,37.0,False,69.0,2.0,colocated,right
146,1713.7875,1,437,2761,2975,4263,508,-12.0,200,1,1,1716.987,1,1,735942.397613281,09_12_2014 level23_spatial_Magnum 09_04 log.txt,37.0,37.0,1311,2014-12-09,37.0,False,69.0,2.0,colocated,right
15,81.0294,0,437,2761,2975,4263,501,-12.0,200,1,1,82.8373,1,1,735935.410660063,02_12_2014 level23_spatial_Magnum 09_50 log.txt,37.0,37.0,1311,2014-12-02,37.0,False,69.0,2.0,colocated,right
57,1112.0855,0,437,2761,2975,4263,508,-12.0,200,1,1,1113.4595,1,1,735942.390649138,09_12_2014 level23_spatial_Magnum 09_04 log.txt,37.0,37.0,1311,2014-12-09,37.0,False,69.0,2.0,colocated,right
53,325.0956,0,437,2761,2975,4263,503,-12.0,200,1,0,325.7822,0,1,735948.397512681,15_12_2014 level23_spatial_Magnum 09_27 log.txt,37.0,37.0,1311,2014-12-15,37.0,False,69.0,2.0,colocated,right
24,132.7108,0,437,2761,2975,4263,505,-12.0,200,1,1,133.7421,1,1,735943.604313782,10_12_2014 level23_spatial_Magnum 14_28 log.txt,37.0,37.0,1311,2014-12-10,37.0,False,69.0,2.0,colocated,right
16,85.5256,1,437,2761,2975,4263,509,-12.0,200,1,1,87.2559,1,1,735936.431545435,03_12_2014 level23_spatial_Magnum 10_20 log.txt,37.0,37.0,1311,2014-12-03,37.0,False,69.0,2.0,colocated,right
75,604.0574,0,437,2761,2975,4263,509,-12.0,200,1,1,605.3134,1,1,735929.421574738,26_11_2014 level23_spatial_Magnum 09_57 log.txt,37.0,37.0,1311,2014-11-26,37.0,False,69.0,2.0,colocated,right
48,442.0453,0,437,2761,2975,4263,510,-12.0,200,1,1,443.2153,1,1,735929.419699598,26_11_2014 level23_spatial_Magnum 09_57 log.txt,37.0,37.0,1311,2014-11-26,37.0,False,69.0,2.0,colocated,right
71,886.6815,1,437,2761,2975,4263,508,-12.0,200,1,1,889.7036,1,1,735937.655401406,04_12_2014 level23_spatial_Magnum 15_29 log.txt,36.0,35.0,1311,2014-12-04,35.5,False,69.0,2.0,colocated,right
37,199.1097,1,437,2761,2975,4263,502,-12.0,200,1,1,201.6749,1,1,735943.605082288,10_12_2014 level23_spatial_Magnum 14_28 log.txt,37.0,37.0,1311,2014-12-10,37.0,False,69.0,2.0,colocated,right
130,841.6483,0,437,2761,2975,4263,501,-12.0,200,1,1,842.6421,1,1,735946.387519078,13_12_2014 level23_spatial_Magnum 09_04 log.txt,37.0,37.0,1311,2014-12-13,37.0,False,69.0,2.0,colocated,right
185,1222.754,0,437,2761,2975,4263,504,-12.0,200,1,1,1224.0271,1,1,735929.428735579,26_11_2014 level23_spatial_Magnum 09_57 log.txt,37.0,37.0,1311,2014-11-26,37.0,False,69.0,2.0,colocated,right
18,164.1413,0,437,2761,2975,4263,511,-12.0,200,1,1,165.1847,1,1,735946.379677561,13_12_2014 level23_spatial_Magnum 09_04 log.txt,37.0,37.0,1311,2014-12-13,37.0,False,69.0,2.0,colocated,right
60,1740.6352,1,437,2761,2975,4263,502,-12.0,200,1,1,1741.6449,1,1,735941.379174019,08_12_2014 level23_spatial_Magnum 08_37 log.txt,37.0,37.0,1311,2014-12-08,37.0,False,69.0,2.0,colocated,right
65,398.4316,1,936,1551,2975,4263,501,-12.0,200,0,0,401.233,1,1,735948.398361477,15_12_2014 level23_spatial_Magnum 09_27 log.txt,37.0,37.0,1311,2014-12-15,37.0,False,69.0,2.0,colocated,right
26,762.4777,1,936,1551,2975,4263,511,-12.0,200,0,0,762.9871,1,1,735928.358824973,25_11_2014 level23_spatial_Magnum 08_24 log.txt,37.0,37.0,1311,2014-11-25,37.0,False,69.0,2.0,colocated,right
65,398.4316,1,936,1551,2975,4263,501,-12.0,200,0,0,401.233,1,1,735948.398361477,15_12_2014 level23_spatial_Magnum 09_27 log.txt,37.0,37.0,1311,2014-12-15,37.0,False,69.0,2.0,colocated,right
103,669.8382,1,936,1551,2975,4263,510,-12.0,200,0,1,674.0824,0,1,735930.376502757,27_11_2014 level23_spatial_Magnum 08_51 log_BCooled.txt,37.0,37.0,1311,2014-11-27,37.0,False,69.0,2.0,colocated,right
23,235.0694,1,936,1551,2975,4263,504,-12.0,200,0,0,238.258,1,1,735790.3916096,10_07_2014 level23_spatial_Magnum 09_20 log.txt,37.0,37.0,1311,2014-07-10,37.0,False,69.0,2.0,colocated,right
78,464.2121,0,936,1551,2975,4263,501,-12.0,200,0,1,465.3485,0,1,735788.752595047,08_07_2014 level23_spatial_Magnum 17_56 log.txt,37.0,37.0,1311,2014-07-08,37.0,False,69.0,2.0,colocated,right
59,394.4252,0,936,1551,2975,4263,502,-12.0,200,0,1,395.9323,0,1,735930.373315106,27_11_2014 level23_spatial_Magnum 08_51 log.txt,37.0,37.0,1311,2014-11-27,37.0,False,69.0,2.0,colocated,right
59,388.4023,1,936,1551,2975,4263,502,-12.0,200,0,0,390.8579,1,1,735946.382273175,13_12_2014 level23_spatial_Magnum 09_04 log.txt,37.0,37.0,1311,2014-12-13,37.0,False,69.0,2.0,colocated,right
103,622.0016,0,936,1551,2975,4263,501,-12.0,200,0,0,623.0338,1,1,735935.416921315,02_12_2014 level23_spatial_Magnum 09_50 log.txt,37.0,37.0,1311,2014-12-02,37.0,False,69.0,2.0,colocated,right
56,414.0007,1,936,1551,2975,4263,502,-12.0,200,0,0,417.4836,1,1,735947.379791675,14_12_2014 level23_spatial_Magnum 09_00 log.txt,37.0,37.0,1311,2014-12-14,37.0,False,69.0,2.0,colocated,right
156,953.7568,1,936,1551,2975,4263,504,-12.0,200,0,1,957.1639,0,1,735948.404788852,15_12_2014 level23_spatial_Magnum 09_27 log.txt,37.0,37.0,1311,2014-12-15,37.0,False,69.0,2.0,colocated,right
82,569.6875,0,936,1551,2975,4263,504,-12.0,200,0,1,570.5382,0,1,735790.395482494,10_07_2014 level23_spatial_Magnum 09_20 log.txt,37.0,37.0,1311,2014-07-10,37.0,False,69.0,2.0,colocated,right
148,919.1351,0,936,1551,2975,4263,511,-12.0,200,0,0,920.0076,1,1,735938.434943693,05_12_2014 level23_spatial_Magnum 10_11 log.txt,37.0,37.0,1311,2014-12-05,37.0,False,69.0,2.0,colocated,right
18,157.5955,1,936,1551,2975,4263,510,-12.0,200,0,0,160.2297,1,1,735941.592796244,08_12_2014 level23_spatial_Magnum 14_11 log.txt,37.0,37.0,1311,2014-12-08,37.0,False,69.0,2.0,colocated,right
23,235.0694,1,936,1551,2975,4263,504,-12.0,200,0,0,238.258,1,1,735790.3916096,10_07_2014 level23_spatial_Magnum 09_20 log.txt,37.0,37.0,1311,2014-07-10,37.0,False,69.0,2.0,colocated,right
46,1683.0164,0,936,1551,2975,4263,507,-12.0,200,0,0,1683.7155,1,1,735941.378507134,08_12_2014 level23_spatial_Magnum 08_37 log.txt,37.0,37.0,1311,2014-12-08,37.0,False,69.0,2.0,colocated,right
119,775.2654,0,936,1551,2975,4263,509,-12.0,200,0,0,776.2328,1,1,735946.386750757,13_12_2014 level23_spatial_Magnum 09_04 log.txt,37.0,37.0,1311,2014-12-13,37.0,False,69.0,2.0,colocated,right
28,777.9081,1,936,1551,2975,4263,508,-12.0,200,0,0,778.5229,1,1,735928.359003566,25_11_2014 level23_spatial_Magnum 08_24 log.txt,37.0,37.0,1311,2014-11-25,37.0,False,69.0,2.0,colocated,right
16,266.8264,1,936,1551,2975,4263,504,-12.0,200,0,0,270.6046,1,1,735805.613504935,25_07_2014 level23_spatial_Magnum 14_39 log.txt,37.0,37.0,1311,2014-07-25,37.0,False,69.0,2.0,colocated,right
39,206.1396,1,936,1551,2975,4263,507,-12.0,200,0,0,208.5368,1,1,735936.43294143,03_12_2014 level23_spatial_Magnum 10_20 log.txt,37.0,37.0,1311,2014-12-03,37.0,False,69.0,2.0,colocated,right
92,508.2457,0,936,1551,2975,4263,505,-12.0,200,0,0,509.06,1,1,735944.396854696,11_12_2014 level23_spatial_Magnum 09_23 log.txt,37.0,37.0,1311,2014-12-11,37.0,False,69.0,2.0,colocated,right
85,804.1441,1,936,1551,2975,4263,509,-12.0,200,0,0,807.5701,1,1,735937.385696112,04_12_2014 level23_spatial_Magnum 09_02 log.txt,37.0,37.0,1311,2014-12-04,37.0,False,69.0,2.0,colocated,right
156,953.7568,1,936,1551,2975,4263,504,-12.0,200,0,1,957.1639,0,1,735948.404788852,15_12_2014 level23_spatial_Magnum 09_27 log.txt,37.0,37.0,1311,2014-12-15,37.0,False,69.0,2.0,colocated,right
42,1664.6817,1,437,2761,2975,4263,511,-15.0,200,1,0,1665.4451,0,0,735941.378294927,08_12_2014 level23_spatial_Magnum 08_37 log.txt,37.0,37.0,1311,2014-12-08,37.0,False,72.0,5.0,colocated,left
99,1074.6032,0,437,2761,2975,4263,510,-15.0,200,1,0,1075.5201,0,0,735937.657576426,04_12_2014 level23_spatial_Magnum 15_29 log.txt,36.0,35.0,1311,2014-12-04,35.5,False,72.0,5.0,colocated,left
89,528.3198,1,437,2761,2975,4263,507,-15.0,200,1,1,532.2793,1,0,735938.430420368,05_12_2014 level23_spatial_Magnum 10_11 log.txt,37.0,37.0,1311,2014-12-05,37.0,False,72.0,5.0,colocated,left
4,88.5645,0,437,2761,2975,4263,504,-15.0,200,1,0,89.4649,0,0,735946.37880283,13_12_2014 level23_spatial_Magnum 09_04 log.txt,37.0,37.0,1311,2014-12-13,37.0,False,72.0,5.0,colocated,left
26,201.6423,1,437,2761,2975,4263,504,-15.0,200,1,1,203.9955,1,0,735789.369694934,09_07_2014 level23_spatial_Magnum 08_49 log.txt,37.0,37.0,1311,2014-07-09,37.0,False,72.0,5.0,colocated,left
154,1045.5606,0,437,2761,2975,4263,504,-15.0,200,1,1,1046.3696,1,0,735929.426684729,26_11_2014 level23_spatial_Magnum 09_57 log.txt,37.0,37.0,1311,2014-11-26,37.0,False,72.0,5.0,colocated,left
89,528.3198,1,437,2761,2975,4263,507,-15.0,200,1,1,532.2793,1,0,735938.430420368,05_12_2014 level23_spatial_Magnum 10_11 log.txt,37.0,37.0,1311,2014-12-05,37.0,False,72.0,5.0,colocated,left
154,1045.5606,0,437,2761,2975,4263,504,-15.0,200,1,1,1046.3696,1,0,735929.426684729,26_11_2014 level23_spatial_Magnum 09_57 log.txt,37.0,37.0,1311,2014-11-26,37.0,False,72.0,5.0,colocated,left
154,1045.5606,0,437,2761,2975,4263,504,-15.0,200,1,1,1046.3696,1,0,735929.426684729,26_11_2014 level23_spatial_Magnum 09_57 log.txt,37.0,37.0,1311,2014-11-26,37.0,False,72.0,5.0,colocated,left
53,350.6659,1,437,2761,2975,4263,503,-15.0,200,1,1,354.6446,1,0,735930.372808633,27_11_2014 level23_spatial_Magnum 08_51 log_BCooled.txt,37.0,37.0,1311,2014-11-27,37.0,False,72.0,5.0,colocated,left
46,428.7028,0,437,2761,2975,4263,511,-15.0,200,1,0,429.4595,0,0,735929.419545171,26_11_2014 level23_spatial_Magnum 09_57 log.txt,37.0,37.0,1311,2014-11-26,37.0,False,72.0,5.0,colocated,left
64,468.8743,0,437,2761,2975,4263,502,-15.0,200,1,1,470.105,1,0,735945.383204564,12_12_2014 level23_spatial_Magnum 09_04 log.txt,37.0,37.0,1311,2014-12-12,37.0,False,72.0,5.0,colocated,left
51,304.0289,0,437,2761,2975,4263,502,-15.0,200,1,1,305.6734,1,0,735938.427824409,05_12_2014 level23_spatial_Magnum 10_11 log.txt,37.0,37.0,1311,2014-12-05,37.0,False,72.0,5.0,colocated,left
139,889.4909,0,437,2761,2975,4263,510,-15.0,200,1,0,890.356,0,0,735936.440850589,03_12_2014 level23_spatial_Magnum 10_20 log.txt,37.0,37.0,1311,2014-12-03,37.0,False,72.0,5.0,colocated,left
24,201.5735,1,437,2761,2975,4263,504,-15.0,200,1,0,205.2663,0,0,735941.593305249,08_12_2014 level23_spatial_Magnum 14_11 log.txt,37.0,37.0,1311,2014-12-08,37.0,False,72.0,5.0,colocated,left
29,266.0302,0,437,2761,2975,4263,504,-15.0,200,1,1,267.0769,1,0,735947.378079053,14_12_2014 level23_spatial_Magnum 09_00 log.txt,37.0,37.0,1311,2014-12-14,37.0,False,72.0,5.0,colocated,left
106,661.4571,0,437,2761,2975,4263,508,-15.0,200,1,0,662.4937,0,0,735948.401405754,15_12_2014 level23_spatial_Magnum 09_27 log.txt,37.0,37.0,1311,2014-12-15,37.0,False,72.0,5.0,colocated,left
119,1076.259,1,437,2761,2975,4263,509,-15.0,200,1,0,1078.1078,0,0,735937.38884559,04_12_2014 level23_spatial_Magnum 09_02 log.txt,37.0,37.0,1311,2014-12-04,37.0,False,72.0,5.0,colocated,left
89,528.3198,1,437,2761,2975,4263,507,-15.0,200,1,1,532.2793,1,0,735938.430420368,05_12_2014 level23_spatial_Magnum 10_11 log.txt,37.0,37.0,1311,2014-12-05,37.0,False,72.0,5.0,colocated,left
42,1664.6817,1,437,2761,2975,4263,511,-15.0,200,1,0,1665.4451,0,0,735941.378294927,08_12_2014 level23_spatial_Magnum 08_37 log.txt,37.0,37.0,1311,2014-12-08,37.0,False,72.0,5.0,colocated,left
139,889.4909,0,437,2761,2975,4263,510,-15.0,200,1,0,890.356,0,0,735936.440850589,03_12_2014 level23_spatial_Magnum 10_20 log.txt,37.0,37.0,1311,2014-12-03,37.0,False,72.0,5.0,colocated,left
154,1045.5606,0,437,2761,2975,4263,504,-15.0,200,1,1,1046.3696,1,0,735929.426684729,26_11_2014 level23_spatial_Magnum 09_57 log.txt,37.0,37.0,1311,2014-11-26,37.0,False,72.0,5.0,colocated,left
73,516.0183,1,437,2761,2975,4263,503,-15.0,200,1,1,518.7462,1,0,735790.394861323,10_07_2014 level23_spatial_Magnum 09_20 log.txt,37.0,37.0,1311,2014-07-10,37.0,False,72.0,5.0,colocated,left
146,997.0494,0,936,1551,2975,4263,505,-15.0,200,0,1,998.0408,0,0,735692.460151035,03_04_2014 level23_spatial_Magnum 10_46 log.txt,37.0,37.0,1311,2014-04-03,37.0,False,72.0,5.0,colocated,left
52,346.0384,1,936,1551,2975,4263,511,-15.0,200,0,0,348.8136,1,0,735946.381782852,13_12_2014 level23_spatial_Magnum 09_04 log.txt,37.0,37.0,1311,2014-12-13,37.0,False,72.0,5.0,colocated,left
73,1796.5842,1,936,1551,2975,4263,502,-15.0,200,0,1,1797.9064,0,0,735941.379821576,08_12_2014 level23_spatial_Magnum 08_37 log.txt,37.0,37.0,1311,2014-12-08,37.0,False,72.0,5.0,colocated,left
47,321.0802,0,936,1551,2975,4263,501,-15.0,200,0,0,322.0716,1,0,735930.372466206,27_11_2014 level23_spatial_Magnum 08_51 log.txt,37.0,37.0,1311,2014-11-27,37.0,False,72.0,5.0,colocated,left
52,346.0384,1,936,1551,2975,4263,511,-15.0,200,0,0,348.8136,1,0,735946.381782852,13_12_2014 level23_spatial_Magnum 09_04 log.txt,37.0,37.0,1311,2014-12-13,37.0,False,72.0,5.0,colocated,left
23,235.1186,0,936,1551,2975,4263,507,-15.0,200,0,0,237.0893,1,0,735802.592304613,22_07_2014 level23_spatial_Magnum 14_09 log.txt,37.0,37.0,1311,2014-07-22,37.0,False,72.0,5.0,colocated,left
146,997.0494,0,936,1551,2975,4263,505,-15.0,200,0,1,998.0408,0,0,735692.460151035,03_04_2014 level23_spatial_Magnum 10_46 log.txt,37.0,37.0,1311,2014-04-03,37.0,False,72.0,5.0,colocated,left
47,321.0802,0,936,1551,2975,4263,501,-15.0,200,0,0,322.0716,1,0,735930.372466206,27_11_2014 level23_spatial_Magnum 08_51 log.txt,37.0,37.0,1311,2014-11-27,37.0,False,72.0,5.0,colocated,left
1,125.3887,1,936,1551,2975,4263,503,-15.0,200,0,0,125.9438,1,0,735931.375756814,28_11_2014 level23_spatial_Magnum 08_59 log.txt,37.0,37.0,1311,2014-11-28,37.0,False,72.0,5.0,colocated,left
85,755.9219,0,936,1551,2975,4263,505,-15.0,200,0,0,757.2808,1,0,735805.619165763,25_07_2014 level23_spatial_Magnum 14_39 log.txt,37.0,37.0,1311,2014-07-25,37.0,False,72.0,5.0,colocated,left
52,346.0384,1,936,1551,2975,4263,511,-15.0,200,0,0,348.8136,1,0,735946.381782852,13_12_2014 level23_spatial_Magnum 09_04 log.txt,37.0,37.0,1311,2014-12-13,37.0,False,72.0,5.0,colocated,left
65,545.7746,0,936,1551,2975,4263,501,-15.0,200,0,0,546.4944,1,0,735929.420900169,26_11_2014 level23_spatial_Magnum 09_57 log.txt,37.0,37.0,1311,2014-11-26,37.0,False,72.0,5.0,colocated,left
18,114.6155,1,936,1551,2975,4263,503,-15.0,200,0,1,117.5367,0,0,735788.748548791,08_07_2014 level23_spatial_Magnum 17_56 log.txt,37.0,37.0,1311,2014-07-08,37.0,False,72.0,5.0,colocated,left
1,125.3887,1,936,1551,2975,4263,503,-15.0,200,0,0,125.9438,1,0,735931.375756814,28_11_2014 level23_spatial_Magnum 08_59 log.txt,37.0,37.0,1311,2014-11-28,37.0,False,72.0,5.0,colocated,left
137,1658.7876,1,936,1551,2975,4263,510,-15.0,200,0,0,1659.294,1,0,735942.396976708,09_12_2014 level23_spatial_Magnum 09_04 log.txt,37.0,37.0,1311,2014-12-09,37.0,False,72.0,5.0,colocated,left
51,310.2539,0,936,1551,2975,4263,509,-15.0,200,0,0,311.024,1,0,735948.397340902,15_12_2014 level23_spatial_Magnum 09_27 log.txt,37.0,37.0,1311,2014-12-15,37.0,False,72.0,5.0,colocated,left
58,317.1755,1,936,1551,2975,4263,506,-15.0,200,0,0,319.2011,1,0,735944.394643235,11_12_2014 level23_spatial_Magnum 09_23 log.txt,37.0,37.0,1311,2014-12-11,37.0,False,72.0,5.0,colocated,left
85,755.9219,0,936,1551,2975,4263,505,-15.0,200,0,0,757.2808,1,0,735805.619165763,25_07_2014 level23_spatial_Magnum 14_39 log.txt,37.0,37.0,1311,2014-07-25,37.0,False,72.0,5.0,colocated,left
68,491.0028,1,936,1551,2975,4263,505,-15.0,200,0,1,493.698,0,0,735790.394571792,10_07_2014 level23_spatial_Magnum 09_20 log.txt,37.0,37.0,1311,2014-07-10,37.0,False,72.0,5.0,colocated,left
77,757.1312,0,936,1551,2975,4263,503,-15.0,200,0,0,757.9755,1,0,735937.385151981,04_12_2014 level23_spatial_Magnum 09_02 log.txt,37.0,37.0,1311,2014-12-04,37.0,False,72.0,5.0,colocated,left
146,997.0494,0,936,1551,2975,4263,505,-15.0,200,0,1,998.0408,0,0,735692.460151035,03_04_2014 level23_spatial_Magnum 10_46 log.txt,37.0,37.0,1311,2014-04-03,37.0,False,72.0,5.0,colocated,left
128,851.6014,0,936,1551,2975,4263,510,-15.0,200,0,0,852.4746,1,0,735947.384856498,14_12_2014 level23_spatial_Magnum 09_00 log.txt,37.0,37.0,1311,2014-12-14,37.0,False,72.0,5.0,colocated,left
59,339.6632,0,936,1551,2975,4263,510,-15.0,200,0,0,340.5428,1,0,735935.413653509,02_12_2014 level23_spatial_Magnum 09_50 log.txt,37.0,37.0,1311,2014-12-02,37.0,False,72.0,5.0,colocated,left
45,267.2557,1,437,2761,2975,4263,501,-15.0,200,1,1,270.9233,1,1,735948.396843237,15_12_2014 level23_spatial_Magnum 09_27 log.txt,37.0,37.0,1311,2014-12-15,37.0,False,72.0,5.0,colocated,right
115,1008.6155,0,437,2761,2975,4263,501,-15.0,200,1,1,1013.5605,1,1,735937.388062679,04_12_2014 level23_spatial_Magnum 09_02 log.txt,37.0,37.0,1311,2014-12-04,37.0,False,72.0,5.0,colocated,right
61,412.9802,1,437,2761,2975,4263,507,-15.0,200,1,1,415.392,1,1,735789.372140975,09_07_2014 level23_spatial_Magnum 08_49 log.txt,37.0,37.0,1311,2014-07-09,37.0,False,72.0,5.0,colocated,right
92,610.7404,0,437,2761,2975,4263,504,-15.0,200,1,1,611.992,1,1,735930.375818755,27_11_2014 level23_spatial_Magnum 08_51 log.txt,37.0,37.0,1311,2014-11-27,37.0,False,72.0,5.0,colocated,right
140,1676.6389,0,437,2761,2975,4263,504,-15.0,200,1,1,1677.8391,1,1,735942.397183321,09_12_2014 level23_spatial_Magnum 09_04 log.txt,37.0,37.0,1311,2014-12-09,37.0,False,72.0,5.0,colocated,right
64,363.4945,1,437,2761,2975,4263,508,-15.0,200,1,1,368.2398,1,1,735935.413929334,02_12_2014 level23_spatial_Magnum 09_50 log.txt,37.0,37.0,1311,2014-12-02,37.0,False,72.0,5.0,colocated,right
115,786.3776,1,437,2761,2975,4263,511,-15.0,200,1,0,789.3759,0,1,735945.38687937,12_12_2014 level23_spatial_Magnum 09_04 log.txt,37.0,37.0,1311,2014-12-12,37.0,False,72.0,5.0,colocated,right
9,610.1393,0,437,2761,2975,4263,510,-15.0,200,1,1,612.311,1,1,735928.357061797,25_11_2014 level23_spatial_Magnum 08_24 log.txt,37.0,37.0,1311,2014-11-25,37.0,False,72.0,5.0,colocated,right
92,610.7404,0,437,2761,2975,4263,504,-15.0,200,1,1,611.992,1,1,735930.375818755,27_11_2014 level23_spatial_Magnum 08_51 log.txt,37.0,37.0,1311,2014-11-27,37.0,False,72.0,5.0,colocated,right
2,182.8207,0,437,2761,2975,4263,502,-15.0,200,1,0,184.3215,0,1,735805.612532647,25_07_2014 level23_spatial_Magnum 14_39 log.txt,37.0,37.0,1311,2014-07-25,37.0,False,72.0,5.0,colocated,right
92,610.7404,0,437,2761,2975,4263,504,-15.0,200,1,1,611.992,1,1,735930.375818755,27_11_2014 level23_spatial_Magnum 08_51 log_BCooled.txt,37.0,37.0,1311,2014-11-27,37.0,False,72.0,5.0,colocated,right
38,235.5196,0,437,2761,2975,4263,505,-15.0,200,1,1,236.2752,1,1,735788.749948144,08_07_2014 level23_spatial_Magnum 17_56 log.txt,37.0,37.0,1311,2014-07-08,37.0,False,72.0,5.0,colocated,right
129,819.494,1,437,2761,2975,4263,501,-15.0,200,1,1,822.9686,1,1,735936.44004044,03_12_2014 level23_spatial_Magnum 10_20 log.txt,37.0,37.0,1311,2014-12-03,37.0,False,72.0,5.0,colocated,right
117,1038.2939,1,437,2761,2975,4263,501,-15.0,200,1,1,1038.6519,1,1,735790.400906179,10_07_2014 level23_spatial_Magnum 09_20 log.txt,37.0,37.0,1311,2014-07-10,37.0,False,72.0,5.0,colocated,right
118,1215.9069,0,437,2761,2975,4263,505,-15.0,200,1,1,1217.202,1,1,735937.659211885,04_12_2014 level23_spatial_Magnum 15_29 log.txt,37.0,35.0,1311,2014-12-04,36.0,False,72.0,5.0,colocated,right
69,437.6821,1,437,2761,2975,4263,501,-15.0,200,1,0,442.6642,0,1,735936.435621321,03_12_2014 level23_spatial_Magnum 10_20 log.txt,37.0,37.0,1311,2014-12-03,37.0,False,72.0,5.0,colocated,right
29,294.4546,0,437,2761,2975,4263,507,-15.0,200,1,1,295.3285,1,1,735931.377713595,28_11_2014 level23_spatial_Magnum 08_59 log.txt,37.0,37.0,1311,2014-11-28,37.0,False,72.0,5.0,colocated,right
9,610.1393,0,437,2761,2975,4263,510,-15.0,200,1,1,612.311,1,1,735928.357061797,25_11_2014 level23_spatial_Magnum 08_24 log.txt,37.0,37.0,1311,2014-11-25,37.0,False,72.0,5.0,colocated,right
29,294.4546,0,437,2761,2975,4263,507,-15.0,200,1,1,295.3285,1,1,735931.377713595,28_11_2014 level23_spatial_Magnum 08_59 log.txt,37.0,37.0,1311,2014-11-28,37.0,False,72.0,5.0,colocated,right
68,567.7226,0,437,2761,2975,4263,506,-15.0,200,1,1,569.0583,1,1,735929.421154197,26_11_2014 level23_spatial_Magnum 09_57 log.txt,37.0,37.0,1311,2014-11-26,37.0,False,72.0,5.0,colocated,right
41,255.5954,0,437,2761,2975,4263,507,-15.0,200,1,1,257.2305,1,1,735938.427263836,05_12_2014 level23_spatial_Magnum 10_11 log.txt,37.0,37.0,1311,2014-12-05,37.0,False,72.0,5.0,colocated,right
118,1215.9069,0,437,2761,2975,4263,505,-15.0,200,1,1,1217.202,1,1,735937.659211885,04_12_2014 level23_spatial_Magnum 15_29 log.txt,37.0,35.0,1311,2014-12-04,36.0,False,72.0,5.0,colocated,right
41,255.5954,0,437,2761,2975,4263,507,-15.0,200,1,1,257.2305,1,1,735938.427263836,05_12_2014 level23_spatial_Magnum 10_11 log.txt,37.0,37.0,1311,2014-12-05,37.0,False,72.0,5.0,colocated,right
151,1037.747,1,936,1551,2975,4263,501,-15.0,200,0,0,1040.6102,1,1,735692.460622072,03_04_2014 level23_spatial_Magnum 10_46 log.txt,37.0,37.0,1311,2014-04-03,37.0,False,72.0,5.0,colocated,right
73,452.9302,1,936,1551,2975,4263,508,-15.0,200,0,0,455.6516,1,1,735948.398992248,15_12_2014 level23_spatial_Magnum 09_27 log.txt,37.0,37.0,1311,2014-12-15,37.0,False,72.0,5.0,colocated,right
155,1037.9951,0,936,1551,2975,4263,503,-15.0,200,0,1,1039.5905,0,1,735945.38979161,12_12_2014 level23_spatial_Magnum 09_04 log.txt,37.0,37.0,1311,2014-12-12,37.0,False,72.0,5.0,colocated,right
151,1037.747,1,936,1551,2975,4263,501,-15.0,200,0,0,1040.6102,1,1,735692.460622072,03_04_2014 level23_spatial_Magnum 10_46 log.txt,37.0,37.0,1311,2014-04-03,37.0,False,72.0,5.0,colocated,right
54,543.7148,0,936,1551,2975,4263,503,-15.0,200,0,0,544.6322,1,1,735805.616709662,25_07_2014 level23_spatial_Magnum 14_39 log.txt,37.0,37.0,1311,2014-07-25,37.0,False,72.0,5.0,colocated,right
59,1736.7246,0,936,1551,2975,4263,506,-15.0,200,0,0,1737.7001,1,1,735941.379128757,08_12_2014 level23_spatial_Magnum 08_37 log.txt,37.0,37.0,1311,2014-12-08,37.0,False,72.0,5.0,colocated,right
157,1061.7294,0,936,1551,2975,4263,505,-15.0,200,0,0,1062.637,1,1,735929.426871868,26_11_2014 level23_spatial_Magnum 09_57 log.txt,37.0,37.0,1311,2014-11-26,37.0,False,72.0,5.0,colocated,right
122,837.2164,1,936,1551,2975,4263,509,-15.0,200,0,0,840.2934,1,1,735945.387467782,12_12_2014 level23_spatial_Magnum 09_04 log.txt,37.0,37.0,1311,2014-12-12,37.0,False,72.0,5.0,colocated,right
90,838.691,1,936,1551,2975,4263,502,-15.0,200,0,0,841.0755,1,1,735937.386095961,04_12_2014 level23_spatial_Magnum 09_02 log.txt,37.0,37.0,1311,2014-12-04,37.0,False,72.0,5.0,colocated,right
36,260.4484,0,936,1551,2975,4263,510,-15.0,200,0,0,261.4652,1,1,735946.380792227,13_12_2014 level23_spatial_Magnum 09_04 log.txt,37.0,37.0,1311,2014-12-13,37.0,False,72.0,5.0,colocated,right
78,462.9809,0,936,1551,2975,4263,505,-15.0,200,0,0,463.9641,1,1,735938.429664131,05_12_2014 level23_spatial_Magnum 10_11 log.txt,37.0,37.0,1311,2014-12-05,37.0,False,72.0,5.0,colocated,right
6,85.24,0,936,1551,2975,4263,506,-15.0,200,0,0,86.6576,1,1,735930.369736574,27_11_2014 level23_spatial_Magnum 08_51 log_BCooled.txt,37.0,37.0,1311,2014-11-27,37.0,False,72.0,5.0,colocated,right
151,1037.747,1,936,1551,2975,4263,501,-15.0,200,0,0,1040.6102,1,1,735692.460622072,03_04_2014 level23_spatial_Magnum 10_46 log.txt,37.0,37.0,1311,2014-04-03,37.0,False,72.0,5.0,colocated,right
150,866.0922,0,936,1551,2975,4263,510,-15.0,200,0,0,867.1571,1,1,735944.400996438,11_12_2014 level23_spatial_Magnum 09_23 log.txt,37.0,37.0,1311,2014-12-11,37.0,False,72.0,5.0,colocated,right
6,85.24,0,936,1551,2975,4263,506,-15.0,200,0,0,86.6576,1,1,735930.369736574,27_11_2014 level23_spatial_Magnum 08_51 log_BCooled.txt,37.0,37.0,1311,2014-11-27,37.0,False,72.0,5.0,colocated,right
170,1033.1554,1,936,1551,2975,4263,504,-15.0,200,0,0,1035.3679,1,1,735948.405707817,15_12_2014 level23_spatial_Magnum 09_27 log.txt,37.0,37.0,1311,2014-12-15,37.0,False,72.0,5.0,colocated,right
101,608.9782,0,936,1551,2975,4263,504,-15.0,200,0,0,609.8146,1,1,735943.609826137,10_12_2014 level23_spatial_Magnum 14_28 log.txt,37.0,37.0,1311,2014-12-10,37.0,False,72.0,5.0,colocated,right
54,543.7148,0,936,1551,2975,4263,503,-15.0,200,0,0,544.6322,1,1,735805.616709662,25_07_2014 level23_spatial_Magnum 14_39 log.txt,37.0,37.0,1311,2014-07-25,37.0,False,72.0,5.0,colocated,right
133,853.1465,0,936,1551,2975,4263,506,-15.0,200,0,0,853.9125,1,1,735936.440429936,03_12_2014 level23_spatial_Magnum 10_20 log.txt,37.0,37.0,1311,2014-12-03,37.0,False,72.0,5.0,colocated,right
128,1600.3046,1,936,1551,2975,4263,502,-15.0,200,0,0,1602.2961,1,1,735942.396299822,09_12_2014 level23_spatial_Magnum 09_04 log.txt,37.0,37.0,1311,2014-12-09,37.0,False,72.0,5.0,colocated,right
46,352.8935,1,936,1551,2975,4263,509,-15.0,200,0,0,354.7037,1,1,735947.379084416,14_12_2014 level23_spatial_Magnum 09_00 log.txt,37.0,37.0,1311,2014-12-14,37.0,False,72.0,5.0,colocated,right
151,1037.747,1,936,1551,2975,4263,501,-15.0,200,0,0,1040.6102,1,1,735692.460622072,03_04_2014 level23_spatial_Magnum 10_46 log.txt,37.0,37.0,1311,2014-04-03,37.0,False,72.0,5.0,colocated,right
77,483.9039,1,936,1551,2975,4263,503,-15.0,200,0,0,490.104,1,1,735936.436156295,03_12_2014 level23_spatial_Magnum 10_20 log.txt,37.0,37.0,1311,2014-12-03,37.0,False,72.0,5.0,colocated,right
13,527.1308,0,437,2761,2975,4263,508,-6.0,200,1,0,529.4547,0,0,735930.615823273,27_11_2014 level23_spatial_Magnum 14_38 log.txt,8.0,8.0,1311,2014-11-27,8.0,True,63.0,-4.0,colocated,left
1,605.6199,0,437,2761,2975,4263,505,-6.0,200,1,1,608.1977,1,0,735928.564648379,25_11_2014 level23_spatial_Magnum 13_23 log_BCooled.txt,12.0,11.0,1311,2014-11-25,11.5,True,63.0,-4.0,colocated,left
13,527.1308,0,437,2761,2975,4263,508,-6.0,200,1,0,529.4547,0,0,735930.615823273,27_11_2014 level23_spatial_Magnum 14_38 log.txt,8.0,8.0,1311,2014-11-27,8.0,True,63.0,-4.0,colocated,left
39,749.1182,0,437,2761,2975,4263,511,-6.0,200,1,1,750.3722,1,0,735929.65242035,26_11_2014 level23_spatial_Magnum 15_27 log.txt,9.0,9.0,1311,2014-11-26,9.0,True,63.0,-4.0,colocated,left
1,605.6199,0,437,2761,2975,4263,505,-6.0,200,1,1,608.1977,1,0,735928.564648379,25_11_2014 level23_spatial_Magnum 13_23 log.txt,12.0,11.0,1311,2014-11-25,11.5,True,63.0,-4.0,colocated,left
1,605.6199,0,437,2761,2975,4263,505,-6.0,200,1,1,608.1977,1,0,735928.564648379,25_11_2014 level23_spatial_Magnum 13_23 log_BCooled.txt,12.0,11.0,1311,2014-11-25,11.5,True,63.0,-4.0,colocated,left
1,605.6199,0,437,2761,2975,4263,505,-6.0,200,1,1,608.1977,1,0,735928.564648379,25_11_2014 level23_spatial_Magnum 13_23 log.txt,12.0,11.0,1311,2014-11-25,11.5,True,63.0,-4.0,colocated,left
13,527.1308,0,437,2761,2975,4263,508,-6.0,200,1,0,529.4547,0,0,735930.615823273,27_11_2014 level23_spatial_Magnum 14_38 log.txt,8.0,8.0,1311,2014-11-27,8.0,True,63.0,-4.0,colocated,left
39,749.1182,0,437,2761,2975,4263,511,-6.0,200,1,1,750.3722,1,0,735929.65242035,26_11_2014 level23_spatial_Magnum 15_27 log.txt,9.0,9.0,1311,2014-11-26,9.0,True,63.0,-4.0,colocated,left
1,605.6199,0,437,2761,2975,4263,505,-6.0,200,1,1,608.1977,1,0,735928.564648379,25_11_2014 level23_spatial_Magnum 13_23 log_BCooled.txt,12.0,11.0,1311,2014-11-25,11.5,True,63.0,-4.0,colocated,left
1,605.6199,0,437,2761,2975,4263,505,-6.0,200,1,1,608.1977,1,0,735928.564648379,25_11_2014 level23_spatial_Magnum 13_23 log.txt,12.0,11.0,1311,2014-11-25,11.5,True,63.0,-4.0,colocated,left
39,749.1182,0,437,2761,2975,4263,511,-6.0,200,1,1,750.3722,1,0,735929.65242035,26_11_2014 level23_spatial_Magnum 15_27 log.txt,9.0,9.0,1311,2014-11-26,9.0,True,63.0,-4.0,colocated,left
1,605.6199,0,437,2761,2975,4263,505,-6.0,200,1,1,608.1977,1,0,735928.564648379,25_11_2014 level23_spatial_Magnum 13_23 log_BCooled.txt,12.0,11.0,1311,2014-11-25,11.5,True,63.0,-4.0,colocated,left
1,605.6199,0,437,2761,2975,4263,505,-6.0,200,1,1,608.1977,1,0,735928.564648379,25_11_2014 level23_spatial_Magnum 13_23 log.txt,12.0,11.0,1311,2014-11-25,11.5,True,63.0,-4.0,colocated,left
13,527.1308,0,437,2761,2975,4263,508,-6.0,200,1,0,529.4547,0,0,735930.615823273,27_11_2014 level23_spatial_Magnum 14_38 log.txt,8.0,8.0,1311,2014-11-27,8.0,True,63.0,-4.0,colocated,left
13,527.1308,0,437,2761,2975,4263,508,-6.0,200,1,0,529.4547,0,0,735930.615823273,27_11_2014 level23_spatial_Magnum 14_38 log.txt,8.0,8.0,1311,2014-11-27,8.0,True,63.0,-4.0,colocated,left
1,605.6199,0,437,2761,2975,4263,505,-6.0,200,1,1,608.1977,1,0,735928.564648379,25_11_2014 level23_spatial_Magnum 13_23 log.txt,12.0,11.0,1311,2014-11-25,11.5,True,63.0,-4.0,colocated,left
39,749.1182,0,437,2761,2975,4263,511,-6.0,200,1,1,750.3722,1,0,735929.65242035,26_11_2014 level23_spatial_Magnum 15_27 log_BCooled.txt,9.0,9.0,1311,2014-11-26,9.0,True,63.0,-4.0,colocated,left
39,749.1182,0,437,2761,2975,4263,511,-6.0,200,1,1,750.3722,1,0,735929.65242035,26_11_2014 level23_spatial_Magnum 15_27 log.txt,9.0,9.0,1311,2014-11-26,9.0,True,63.0,-4.0,colocated,left
39,749.1182,0,437,2761,2975,4263,511,-6.0,200,1,1,750.3722,1,0,735929.65242035,26_11_2014 level23_spatial_Magnum 15_27 log_BCooled.txt,9.0,9.0,1311,2014-11-26,9.0,True,63.0,-4.0,colocated,left
39,749.1182,0,437,2761,2975,4263,511,-6.0,200,1,1,750.3722,1,0,735929.65242035,26_11_2014 level23_spatial_Magnum 15_27 log_BCooled.txt,9.0,9.0,1311,2014-11-26,9.0,True,63.0,-4.0,colocated,left
39,749.1182,0,437,2761,2975,4263,511,-6.0,200,1,1,750.3722,1,0,735929.65242035,26_11_2014 level23_spatial_Magnum 15_27 log_BCooled.txt,9.0,9.0,1311,2014-11-26,9.0,True,63.0,-4.0,colocated,left
1,605.6199,0,437,2761,2975,4263,505,-6.0,200,1,1,608.1977,1,0,735928.564648379,25_11_2014 level23_spatial_Magnum 13_23 log.txt,12.0,11.0,1311,2014-11-25,11.5,True,63.0,-4.0,colocated,left
8,497.3626,1,936,1551,2975,4263,510,-6.0,200,0,1,501.6174,0,0,735930.615478734,27_11_2014 level23_spatial_Magnum 14_38 log.txt,9.0,9.0,1311,2014-11-27,9.0,True,63.0,-4.0,colocated,left
8,497.3626,1,936,1551,2975,4263,510,-6.0,200,0,1,501.6174,0,0,735930.615478734,27_11_2014 level23_spatial_Magnum 14_38 log.txt,9.0,9.0,1311,2014-11-27,9.0,True,63.0,-4.0,colocated,left
88,1222.3223,0,936,1551,2975,4263,506,-6.0,200,0,1,1223.4485,0,0,735928.571786138,25_11_2014 level23_spatial_Magnum 13_23 log_BCooled.txt,9.0,11.0,1311,2014-11-25,10.0,True,63.0,-4.0,colocated,left
2,461.4172,1,936,1551,2975,4263,505,-6.0,200,0,0,466.3683,1,0,735929.649090477,26_11_2014 level23_spatial_Magnum 15_27 log_BCooled.txt,15.0,12.5827943794571,1311,2014-11-26,13.79139718972855,True,63.0,-4.0,colocated,left
2,461.4172,1,936,1551,2975,4263,505,-6.0,200,0,0,466.3683,1,0,735929.649090477,26_11_2014 level23_spatial_Magnum 15_27 log.txt,15.0,12.5827943794571,1311,2014-11-26,13.79139718972855,True,63.0,-4.0,colocated,left
88,1222.3223,0,936,1551,2975,4263,506,-6.0,200,0,1,1223.4485,0,0,735928.571786138,25_11_2014 level23_spatial_Magnum 13_23 log.txt,9.0,11.0,1311,2014-11-25,10.0,True,63.0,-4.0,colocated,left
88,1222.3223,0,936,1551,2975,4263,506,-6.0,200,0,1,1223.4485,0,0,735928.571786138,25_11_2014 level23_spatial_Magnum 13_23 log.txt,9.0,11.0,1311,2014-11-25,10.0,True,63.0,-4.0,colocated,left
2,461.4172,1,936,1551,2975,4263,505,-6.0,200,0,0,466.3683,1,0,735929.649090477,26_11_2014 level23_spatial_Magnum 15_27 log.txt,15.0,12.5827943794571,1311,2014-11-26,13.79139718972855,True,63.0,-4.0,colocated,left
8,497.3626,1,936,1551,2975,4263,510,-6.0,200,0,1,501.6174,0,0,735930.615478734,27_11_2014 level23_spatial_Magnum 14_38 log.txt,9.0,9.0,1311,2014-11-27,9.0,True,63.0,-4.0,colocated,left
2,461.4172,1,936,1551,2975,4263,505,-6.0,200,0,0,466.3683,1,0,735929.649090477,26_11_2014 level23_spatial_Magnum 15_27 log.txt,15.0,12.5827943794571,1311,2014-11-26,13.79139718972855,True,63.0,-4.0,colocated,left
8,497.3626,1,936,1551,2975,4263,510,-6.0,200,0,1,501.6174,0,0,735930.615478734,27_11_2014 level23_spatial_Magnum 14_38 log.txt,9.0,9.0,1311,2014-11-27,9.0,True,63.0,-4.0,colocated,left
2,461.4172,1,936,1551,2975,4263,505,-6.0,200,0,0,466.3683,1,0,735929.649090477,26_11_2014 level23_spatial_Magnum 15_27 log.txt,15.0,12.5827943794571,1311,2014-11-26,13.79139718972855,True,63.0,-4.0,colocated,left
88,1222.3223,0,936,1551,2975,4263,506,-6.0,200,0,1,1223.4485,0,0,735928.571786138,25_11_2014 level23_spatial_Magnum 13_23 log.txt,9.0,11.0,1311,2014-11-25,10.0,True,63.0,-4.0,colocated,left
2,461.4172,1,936,1551,2975,4263,505,-6.0,200,0,0,466.3683,1,0,735929.649090477,26_11_2014 level23_spatial_Magnum 15_27 log.txt,15.0,12.5827943794571,1311,2014-11-26,13.79139718972855,True,63.0,-4.0,colocated,left
8,497.3626,1,936,1551,2975,4263,510,-6.0,200,0,1,501.6174,0,0,735930.615478734,27_11_2014 level23_spatial_Magnum 14_38 log.txt,9.0,9.0,1311,2014-11-27,9.0,True,63.0,-4.0,colocated,left
2,461.4172,1,936,1551,2975,4263,505,-6.0,200,0,0,466.3683,1,0,735929.649090477,26_11_2014 level23_spatial_Magnum 15_27 log_BCooled.txt,15.0,12.5827943794571,1311,2014-11-26,13.79139718972855,True,63.0,-4.0,colocated,left
8,497.3626,1,936,1551,2975,4263,510,-6.0,200,0,1,501.6174,0,0,735930.615478734,27_11_2014 level23_spatial_Magnum 14_38 log.txt,9.0,9.0,1311,2014-11-27,9.0,True,63.0,-4.0,colocated,left
88,1222.3223,0,936,1551,2975,4263,506,-6.0,200,0,1,1223.4485,0,0,735928.571786138,25_11_2014 level23_spatial_Magnum 13_23 log.txt,9.0,11.0,1311,2014-11-25,10.0,True,63.0,-4.0,colocated,left
88,1222.3223,0,936,1551,2975,4263,506,-6.0,200,0,1,1223.4485,0,0,735928.571786138,25_11_2014 level23_spatial_Magnum 13_23 log_BCooled.txt,9.0,11.0,1311,2014-11-25,10.0,True,63.0,-4.0,colocated,left
88,1222.3223,0,936,1551,2975,4263,506,-6.0,200,0,1,1223.4485,0,0,735928.571786138,25_11_2014 level23_spatial_Magnum 13_23 log.txt,9.0,11.0,1311,2014-11-25,10.0,True,63.0,-4.0,colocated,left
2,461.4172,1,936,1551,2975,4263,505,-6.0,200,0,0,466.3683,1,0,735929.649090477,26_11_2014 level23_spatial_Magnum 15_27 log.txt,15.0,12.5827943794571,1311,2014-11-26,13.79139718972855,True,63.0,-4.0,colocated,left
2,461.4172,1,936,1551,2975,4263,505,-6.0,200,0,0,466.3683,1,0,735929.649090477,26_11_2014 level23_spatial_Magnum 15_27 log_BCooled.txt,15.0,12.5827943794571,1311,2014-11-26,13.79139718972855,True,63.0,-4.0,colocated,left
88,1222.3223,0,936,1551,2975,4263,506,-6.0,200,0,1,1223.4485,0,0,735928.571786138,25_11_2014 level23_spatial_Magnum 13_23 log_BCooled.txt,9.0,11.0,1311,2014-11-25,10.0,True,63.0,-4.0,colocated,left
63,929.5131,1,437,2761,2975,4263,511,-6.0,200,1,0,933.4556,0,1,735929.654508254,26_11_2014 level23_spatial_Magnum 15_27 log_BCooled.txt,9.0,9.0,1311,2014-11-26,9.0,True,63.0,-4.0,colocated,right
52,987.9242,0,437,2761,2975,4263,510,-6.0,200,1,0,988.9157,0,1,735928.569073197,25_11_2014 level23_spatial_Magnum 13_23 log_BCooled.txt,9.0,9.0,1311,2014-11-25,9.0,True,63.0,-4.0,colocated,right
34,668.9819,0,437,2761,2975,4263,508,-6.0,200,1,0,670.0905,0,1,735930.617465068,27_11_2014 level23_spatial_Magnum 14_38 log.txt,8.0,8.0,1311,2014-11-27,8.0,True,63.0,-4.0,colocated,right
52,987.9242,0,437,2761,2975,4263,510,-6.0,200,1,0,988.9157,0,1,735928.569073197,25_11_2014 level23_spatial_Magnum 13_23 log.txt,9.0,9.0,1311,2014-11-25,9.0,True,63.0,-4.0,colocated,right
84,1078.5913,0,437,2761,2975,4263,504,-6.0,200,1,1,1079.96,1,1,735929.656233696,26_11_2014 level23_spatial_Magnum 15_27 log_BCooled.txt,9.0,9.0,1311,2014-11-26,9.0,True,63.0,-4.0,colocated,right
34,668.9819,0,437,2761,2975,4263,508,-6.0,200,1,0,670.0905,0,1,735930.617465068,27_11_2014 level23_spatial_Magnum 14_38 log.txt,8.0,8.0,1311,2014-11-27,8.0,True,63.0,-4.0,colocated,right
52,987.9242,0,437,2761,2975,4263,510,-6.0,200,1,0,988.9157,0,1,735928.569073197,25_11_2014 level23_spatial_Magnum 13_23 log.txt,9.0,9.0,1311,2014-11-25,9.0,True,63.0,-4.0,colocated,right
63,929.5131,1,437,2761,2975,4263,511,-6.0,200,1,0,933.4556,0,1,735929.654508254,26_11_2014 level23_spatial_Magnum 15_27 log.txt,9.0,9.0,1311,2014-11-26,9.0,True,63.0,-4.0,colocated,right
52,987.9242,0,437,2761,2975,4263,510,-6.0,200,1,0,988.9157,0,1,735928.569073197,25_11_2014 level23_spatial_Magnum 13_23 log.txt,9.0,9.0,1311,2014-11-25,9.0,True,63.0,-4.0,colocated,right
34,668.9819,0,437,2761,2975,4263,508,-6.0,200,1,0,670.0905,0,1,735930.617465068,27_11_2014 level23_spatial_Magnum 14_38 log.txt,8.0,8.0,1311,2014-11-27,8.0,True,63.0,-4.0,colocated,right
63,929.5131,1,437,2761,2975,4263,511,-6.0,200,1,0,933.4556,0,1,735929.654508254,26_11_2014 level23_spatial_Magnum 15_27 log_BCooled.txt,9.0,9.0,1311,2014-11-26,9.0,True,63.0,-4.0,colocated,right
63,929.5131,1,437,2761,2975,4263,511,-6.0,200,1,0,933.4556,0,1,735929.654508254,26_11_2014 level23_spatial_Magnum 15_27 log.txt,9.0,9.0,1311,2014-11-26,9.0,True,63.0,-4.0,colocated,right
52,987.9242,0,437,2761,2975,4263,510,-6.0,200,1,0,988.9157,0,1,735928.569073197,25_11_2014 level23_spatial_Magnum 13_23 log_BCooled.txt,9.0,9.0,1311,2014-11-25,9.0,True,63.0,-4.0,colocated,right
84,1078.5913,0,437,2761,2975,4263,504,-6.0,200,1,1,1079.96,1,1,735929.656233696,26_11_2014 level23_spatial_Magnum 15_27 log_BCooled.txt,9.0,9.0,1311,2014-11-26,9.0,True,63.0,-4.0,colocated,right
84,1078.5913,0,437,2761,2975,4263,504,-6.0,200,1,1,1079.96,1,1,735929.656233696,26_11_2014 level23_spatial_Magnum 15_27 log.txt,9.0,9.0,1311,2014-11-26,9.0,True,63.0,-4.0,colocated,right
52,987.9242,0,437,2761,2975,4263,510,-6.0,200,1,0,988.9157,0,1,735928.569073197,25_11_2014 level23_spatial_Magnum 13_23 log.txt,9.0,9.0,1311,2014-11-25,9.0,True,63.0,-4.0,colocated,right
52,987.9242,0,437,2761,2975,4263,510,-6.0,200,1,0,988.9157,0,1,735928.569073197,25_11_2014 level23_spatial_Magnum 13_23 log_BCooled.txt,9.0,9.0,1311,2014-11-25,9.0,True,63.0,-4.0,colocated,right
84,1078.5913,0,437,2761,2975,4263,504,-6.0,200,1,1,1079.96,1,1,735929.656233696,26_11_2014 level23_spatial_Magnum 15_27 log.txt,9.0,9.0,1311,2014-11-26,9.0,True,63.0,-4.0,colocated,right
84,1078.5913,0,437,2761,2975,4263,504,-6.0,200,1,1,1079.96,1,1,735929.656233696,26_11_2014 level23_spatial_Magnum 15_27 log_BCooled.txt,9.0,9.0,1311,2014-11-26,9.0,True,63.0,-4.0,colocated,right
84,1078.5913,0,437,2761,2975,4263,504,-6.0,200,1,1,1079.96,1,1,735929.656233696,26_11_2014 level23_spatial_Magnum 15_27 log.txt,9.0,9.0,1311,2014-11-26,9.0,True,63.0,-4.0,colocated,right
84,1078.5913,0,437,2761,2975,4263,504,-6.0,200,1,1,1079.96,1,1,735929.656233696,26_11_2014 level23_spatial_Magnum 15_27 log_BCooled.txt,9.0,9.0,1311,2014-11-26,9.0,True,63.0,-4.0,colocated,right
63,929.5131,1,437,2761,2975,4263,511,-6.0,200,1,0,933.4556,0,1,735929.654508254,26_11_2014 level23_spatial_Magnum 15_27 log_BCooled.txt,9.0,9.0,1311,2014-11-26,9.0,True,63.0,-4.0,colocated,right
52,987.9242,0,437,2761,2975,4263,510,-6.0,200,1,0,988.9157,0,1,735928.569073197,25_11_2014 level23_spatial_Magnum 13_23 log.txt,9.0,9.0,1311,2014-11-25,9.0,True,63.0,-4.0,colocated,right
78,1030.1024,0,936,1551,2975,4263,509,-6.0,200,0,0,1031.0173,1,1,735929.655672482,26_11_2014 level23_spatial_Magnum 15_27 log.txt,9.0,9.0,1311,2014-11-26,9.0,True,63.0,-4.0,colocated,right
14,723.6077,1,936,1551,2975,4263,508,-6.0,200,0,0,728.6657,1,1,735928.566013978,25_11_2014 level23_spatial_Magnum 13_23 log_BCooled.txt,9.0,8.0,1311,2014-11-25,8.5,True,63.0,-4.0,colocated,right
14,723.6077,1,936,1551,2975,4263,508,-6.0,200,0,0,728.6657,1,1,735928.566013978,25_11_2014 level23_spatial_Magnum 13_23 log.txt,9.0,8.0,1311,2014-11-25,8.5,True,63.0,-4.0,colocated,right
20,581.0405,1,936,1551,2975,4263,503,-6.0,200,0,0,584.2026,1,1,735930.616447228,27_11_2014 level23_spatial_Magnum 14_38 log.txt,8.0,8.0,1311,2014-11-27,8.0,True,63.0,-4.0,colocated,right
78,1030.1024,0,936,1551,2975,4263,509,-6.0,200,0,0,1031.0173,1,1,735929.655672482,26_11_2014 level23_spatial_Magnum 15_27 log_BCooled.txt,9.0,9.0,1311,2014-11-26,9.0,True,63.0,-4.0,colocated,right
78,1030.1024,0,936,1551,2975,4263,509,-6.0,200,0,0,1031.0173,1,1,735929.655672482,26_11_2014 level23_spatial_Magnum 15_27 log_BCooled.txt,9.0,9.0,1311,2014-11-26,9.0,True,63.0,-4.0,colocated,right
78,1030.1024,0,936,1551,2975,4263,509,-6.0,200,0,0,1031.0173,1,1,735929.655672482,26_11_2014 level23_spatial_Magnum 15_27 log_BCooled.txt,9.0,9.0,1311,2014-11-26,9.0,True,63.0,-4.0,colocated,right
78,1030.1024,0,936,1551,2975,4263,509,-6.0,200,0,0,1031.0173,1,1,735929.655672482,26_11_2014 level23_spatial_Magnum 15_27 log.txt,9.0,9.0,1311,2014-11-26,9.0,True,63.0,-4.0,colocated,right
78,1030.1024,0,936,1551,2975,4263,509,-6.0,200,0,0,1031.0173,1,1,735929.655672482,26_11_2014 level23_spatial_Magnum 15_27 log.txt,9.0,9.0,1311,2014-11-26,9.0,True,63.0,-4.0,colocated,right
14,723.6077,1,936,1551,2975,4263,508,-6.0,200,0,0,728.6657,1,1,735928.566013978,25_11_2014 level23_spatial_Magnum 13_23 log.txt,9.0,8.0,1311,2014-11-25,8.5,True,63.0,-4.0,colocated,right
20,581.0405,1,936,1551,2975,4263,503,-6.0,200,0,0,584.2026,1,1,735930.616447228,27_11_2014 level23_spatial_Magnum 14_38 log.txt,8.0,8.0,1311,2014-11-27,8.0,True,63.0,-4.0,colocated,right
14,723.6077,1,936,1551,2975,4263,508,-6.0,200,0,0,728.6657,1,1,735928.566013978,25_11_2014 level23_spatial_Magnum 13_23 log.txt,9.0,8.0,1311,2014-11-25,8.5,True,63.0,-4.0,colocated,right
14,723.6077,1,936,1551,2975,4263,508,-6.0,200,0,0,728.6657,1,1,735928.566013978,25_11_2014 level23_spatial_Magnum 13_23 log_BCooled.txt,9.0,8.0,1311,2014-11-25,8.5,True,63.0,-4.0,colocated,right
78,1030.1024,0,936,1551,2975,4263,509,-6.0,200,0,0,1031.0173,1,1,735929.655672482,26_11_2014 level23_spatial_Magnum 15_27 log.txt,9.0,9.0,1311,2014-11-26,9.0,True,63.0,-4.0,colocated,right
14,723.6077,1,936,1551,2975,4263,508,-6.0,200,0,0,728.6657,1,1,735928.566013978,25_11_2014 level23_spatial_Magnum 13_23 log.txt,9.0,8.0,1311,2014-11-25,8.5,True,63.0,-4.0,colocated,right
14,723.6077,1,936,1551,2975,4263,508,-6.0,200,0,0,728.6657,1,1,735928.566013978,25_11_2014 level23_spatial_Magnum 13_23 log_BCooled.txt,9.0,8.0,1311,2014-11-25,8.5,True,63.0,-4.0,colocated,right
78,1030.1024,0,936,1551,2975,4263,509,-6.0,200,0,0,1031.0173,1,1,735929.655672482,26_11_2014 level23_spatial_Magnum 15_27 log.txt,9.0,9.0,1311,2014-11-26,9.0,True,63.0,-4.0,colocated,right
20,581.0405,1,936,1551,2975,4263,503,-6.0,200,0,0,584.2026,1,1,735930.616447228,27_11_2014 level23_spatial_Magnum 14_38 log.txt,8.0,8.0,1311,2014-11-27,8.0,True,63.0,-4.0,colocated,right
78,1030.1024,0,936,1551,2975,4263,509,-6.0,200,0,0,1031.0173,1,1,735929.655672482,26_11_2014 level23_spatial_Magnum 15_27 log.txt,9.0,9.0,1311,2014-11-26,9.0,True,63.0,-4.0,colocated,right
78,1030.1024,0,936,1551,2975,4263,509,-6.0,200,0,0,1031.0173,1,1,735929.655672482,26_11_2014 level23_spatial_Magnum 15_27 log.txt,9.0,9.0,1311,2014-11-26,9.0,True,63.0,-4.0,colocated,right
78,1030.1024,0,936,1551,2975,4263,509,-6.0,200,0,0,1031.0173,1,1,735929.655672482,26_11_2014 level23_spatial_Magnum 15_27 log_BCooled.txt,9.0,9.0,1311,2014-11-26,9.0,True,63.0,-4.0,colocated,right
20,581.0405,1,936,1551,2975,4263,503,-6.0,200,0,0,584.2026,1,1,735930.616447228,27_11_2014 level23_spatial_Magnum 14_38 log.txt,8.0,8.0,1311,2014-11-27,8.0,True,63.0,-4.0,colocated,right
14,723.6077,1,936,1551,2975,4263,508,-6.0,200,0,0,728.6657,1,1,735928.566013978,25_11_2014 level23_spatial_Magnum 13_23 log.txt,9.0,8.0,1311,2014-11-25,8.5,True,63.0,-4.0,colocated,right
18,752.993,1,437,2761,2975,4263,508,-9.0,200,1,0,753.5158,0,0,735928.566354086,25_11_2014 level23_spatial_Magnum 13_23 log.txt,10.0,8.0,1311,2014-11-25,9.0,True,66.0,-1.0,colocated,left
18,752.993,1,437,2761,2975,4263,508,-9.0,200,1,0,753.5158,0,0,735928.566354086,25_11_2014 level23_spatial_Magnum 13_23 log.txt,10.0,8.0,1311,2014-11-25,9.0,True,66.0,-1.0,colocated,left
72,990.5621,1,437,2761,2975,4263,510,-9.0,200,1,0,993.532,0,0,735929.655214839,26_11_2014 level23_spatial_Magnum 15_27 log.txt,8.0,9.0,1311,2014-11-26,8.5,True,66.0,-1.0,colocated,left
18,752.993,1,437,2761,2975,4263,508,-9.0,200,1,0,753.5158,0,0,735928.566354086,25_11_2014 level23_spatial_Magnum 13_23 log_BCooled.txt,10.0,8.0,1311,2014-11-25,9.0,True,66.0,-1.0,colocated,left
18,752.993,1,437,2761,2975,4263,508,-9.0,200,1,0,753.5158,0,0,735928.566354086,25_11_2014 level23_spatial_Magnum 13_23 log_BCooled.txt,10.0,8.0,1311,2014-11-25,9.0,True,66.0,-1.0,colocated,left
33,662.6926,0,437,2761,2975,4263,503,-9.0,200,1,1,663.7646,1,0,735930.617392275,27_11_2014 level23_spatial_Magnum 14_38 log.txt,8.0,8.0,1311,2014-11-27,8.0,True,66.0,-1.0,colocated,left
72,990.5621,1,437,2761,2975,4263,510,-9.0,200,1,0,993.532,0,0,735929.655214839,26_11_2014 level23_spatial_Magnum 15_27 log_BCooled.txt,8.0,9.0,1311,2014-11-26,8.5,True,66.0,-1.0,colocated,left
33,662.6926,0,437,2761,2975,4263,503,-9.0,200,1,1,663.7646,1,0,735930.617392275,27_11_2014 level23_spatial_Magnum 14_38 log.txt,8.0,8.0,1311,2014-11-27,8.0,True,66.0,-1.0,colocated,left
18,752.993,1,437,2761,2975,4263,508,-9.0,200,1,0,753.5158,0,0,735928.566354086,25_11_2014 level23_spatial_Magnum 13_23 log_BCooled.txt,10.0,8.0,1311,2014-11-25,9.0,True,66.0,-1.0,colocated,left
33,662.6926,0,437,2761,2975,4263,503,-9.0,200,1,1,663.7646,1,0,735930.617392275,27_11_2014 level23_spatial_Magnum 14_38 log.txt,8.0,8.0,1311,2014-11-27,8.0,True,66.0,-1.0,colocated,left
33,662.6926,0,437,2761,2975,4263,503,-9.0,200,1,1,663.7646,1,0,735930.617392275,27_11_2014 level23_spatial_Magnum 14_38 log.txt,8.0,8.0,1311,2014-11-27,8.0,True,66.0,-1.0,colocated,left
33,662.6926,0,437,2761,2975,4263,503,-9.0,200,1,1,663.7646,1,0,735930.617392275,27_11_2014 level23_spatial_Magnum 14_38 log.txt,8.0,8.0,1311,2014-11-27,8.0,True,66.0,-1.0,colocated,left
18,752.993,1,437,2761,2975,4263,508,-9.0,200,1,0,753.5158,0,0,735928.566354086,25_11_2014 level23_spatial_Magnum 13_23 log_BCooled.txt,10.0,8.0,1311,2014-11-25,9.0,True,66.0,-1.0,colocated,left
18,752.993,1,437,2761,2975,4263,508,-9.0,200,1,0,753.5158,0,0,735928.566354086,25_11_2014 level23_spatial_Magnum 13_23 log_BCooled.txt,10.0,8.0,1311,2014-11-25,9.0,True,66.0,-1.0,colocated,left
18,752.993,1,437,2761,2975,4263,508,-9.0,200,1,0,753.5158,0,0,735928.566354086,25_11_2014 level23_spatial_Magnum 13_23 log_BCooled.txt,10.0,8.0,1311,2014-11-25,9.0,True,66.0,-1.0,colocated,left
33,662.6926,0,437,2761,2975,4263,503,-9.0,200,1,1,663.7646,1,0,735930.617392275,27_11_2014 level23_spatial_Magnum 14_38 log.txt,8.0,8.0,1311,2014-11-27,8.0,True,66.0,-1.0,colocated,left
18,752.993,1,437,2761,2975,4263,508,-9.0,200,1,0,753.5158,0,0,735928.566354086,25_11_2014 level23_spatial_Magnum 13_23 log_BCooled.txt,10.0,8.0,1311,2014-11-25,9.0,True,66.0,-1.0,colocated,left
18,752.993,1,437,2761,2975,4263,508,-9.0,200,1,0,753.5158,0,0,735928.566354086,25_11_2014 level23_spatial_Magnum 13_23 log_BCooled.txt,10.0,8.0,1311,2014-11-25,9.0,True,66.0,-1.0,colocated,left
18,752.993,1,437,2761,2975,4263,508,-9.0,200,1,0,753.5158,0,0,735928.566354086,25_11_2014 level23_spatial_Magnum 13_23 log.txt,10.0,8.0,1311,2014-11-25,9.0,True,66.0,-1.0,colocated,left
72,990.5621,1,437,2761,2975,4263,510,-9.0,200,1,0,993.532,0,0,735929.655214839,26_11_2014 level23_spatial_Magnum 15_27 log.txt,8.0,9.0,1311,2014-11-26,8.5,True,66.0,-1.0,colocated,left
18,752.993,1,437,2761,2975,4263,508,-9.0,200,1,0,753.5158,0,0,735928.566354086,25_11_2014 level23_spatial_Magnum 13_23 log.txt,10.0,8.0,1311,2014-11-25,9.0,True,66.0,-1.0,colocated,left
18,752.993,1,437,2761,2975,4263,508,-9.0,200,1,0,753.5158,0,0,735928.566354086,25_11_2014 level23_spatial_Magnum 13_23 log.txt,10.0,8.0,1311,2014-11-25,9.0,True,66.0,-1.0,colocated,left
18,752.993,1,437,2761,2975,4263,508,-9.0,200,1,0,753.5158,0,0,735928.566354086,25_11_2014 level23_spatial_Magnum 13_23 log_BCooled.txt,10.0,8.0,1311,2014-11-25,9.0,True,66.0,-1.0,colocated,left
21,769.7197,1,936,1551,2975,4263,511,-9.0,200,0,1,770.4299,0,0,735928.566547682,25_11_2014 level23_spatial_Magnum 13_23 log.txt,10.0,9.0,1311,2014-11-25,9.5,True,66.0,-1.0,colocated,left
104,1223.9316,1,936,1551,2975,4263,503,-9.0,200,0,0,1227.481,1,0,735929.657915875,26_11_2014 level23_spatial_Magnum 15_27 log.txt,9.0,9.0,1311,2014-11-26,9.0,True,66.0,-1.0,colocated,left
104,1223.9316,1,936,1551,2975,4263,503,-9.0,200,0,0,1227.481,1,0,735929.657915875,26_11_2014 level23_spatial_Magnum 15_27 log.txt,9.0,9.0,1311,2014-11-26,9.0,True,66.0,-1.0,colocated,left
104,1223.9316,1,936,1551,2975,4263,503,-9.0,200,0,0,1227.481,1,0,735929.657915875,26_11_2014 level23_spatial_Magnum 15_27 log.txt,9.0,9.0,1311,2014-11-26,9.0,True,66.0,-1.0,colocated,left
21,769.7197,1,936,1551,2975,4263,511,-9.0,200,0,1,770.4299,0,0,735928.566547682,25_11_2014 level23_spatial_Magnum 13_23 log.txt,10.0,9.0,1311,2014-11-25,9.5,True,66.0,-1.0,colocated,left
2,455.7012,0,936,1551,2975,4263,505,-9.0,200,0,0,456.7456,1,0,735930.614996542,27_11_2014 level23_spatial_Magnum 14_38 log.txt,11.0,10.0,1311,2014-11-27,10.5,True,66.0,-1.0,colocated,left
37,740.3307,0,936,1551,2975,4263,501,-9.0,200,0,0,741.2121,1,0,735929.652318642,26_11_2014 level23_spatial_Magnum 15_27 log.txt,9.0,9.0,1311,2014-11-26,9.0,True,66.0,-1.0,colocated,left
104,1223.9316,1,936,1551,2975,4263,503,-9.0,200,0,0,1227.481,1,0,735929.657915875,26_11_2014 level23_spatial_Magnum 15_27 log.txt,9.0,9.0,1311,2014-11-26,9.0,True,66.0,-1.0,colocated,left
104,1223.9316,1,936,1551,2975,4263,503,-9.0,200,0,0,1227.481,1,0,735929.657915875,26_11_2014 level23_spatial_Magnum 15_27 log_BCooled.txt,9.0,9.0,1311,2014-11-26,9.0,True,66.0,-1.0,colocated,left
21,769.7197,1,936,1551,2975,4263,511,-9.0,200,0,1,770.4299,0,0,735928.566547682,25_11_2014 level23_spatial_Magnum 13_23 log_BCooled.txt,10.0,9.0,1311,2014-11-25,9.5,True,66.0,-1.0,colocated,left
21,769.7197,1,936,1551,2975,4263,511,-9.0,200,0,1,770.4299,0,0,735928.566547682,25_11_2014 level23_spatial_Magnum 13_23 log_BCooled.txt,10.0,9.0,1311,2014-11-25,9.5,True,66.0,-1.0,colocated,left
37,740.3307,0,936,1551,2975,4263,501,-9.0,200,0,0,741.2121,1,0,735929.652318642,26_11_2014 level23_spatial_Magnum 15_27 log.txt,9.0,9.0,1311,2014-11-26,9.0,True,66.0,-1.0,colocated,left
104,1223.9316,1,936,1551,2975,4263,503,-9.0,200,0,0,1227.481,1,0,735929.657915875,26_11_2014 level23_spatial_Magnum 15_27 log_BCooled.txt,9.0,9.0,1311,2014-11-26,9.0,True,66.0,-1.0,colocated,left
104,1223.9316,1,936,1551,2975,4263,503,-9.0,200,0,0,1227.481,1,0,735929.657915875,26_11_2014 level23_spatial_Magnum 15_27 log_BCooled.txt,9.0,9.0,1311,2014-11-26,9.0,True,66.0,-1.0,colocated,left
2,455.7012,0,936,1551,2975,4263,505,-9.0,200,0,0,456.7456,1,0,735930.614996542,27_11_2014 level23_spatial_Magnum 14_38 log.txt,11.0,10.0,1311,2014-11-27,10.5,True,66.0,-1.0,colocated,left
21,769.7197,1,936,1551,2975,4263,511,-9.0,200,0,1,770.4299,0,0,735928.566547682,25_11_2014 level23_spatial_Magnum 13_23 log_BCooled.txt,10.0,9.0,1311,2014-11-25,9.5,True,66.0,-1.0,colocated,left
104,1223.9316,1,936,1551,2975,4263,503,-9.0,200,0,0,1227.481,1,0,735929.657915875,26_11_2014 level23_spatial_Magnum 15_27 log.txt,9.0,9.0,1311,2014-11-26,9.0,True,66.0,-1.0,colocated,left
2,455.7012,0,936,1551,2975,4263,505,-9.0,200,0,0,456.7456,1,0,735930.614996542,27_11_2014 level23_spatial_Magnum 14_38 log.txt,11.0,10.0,1311,2014-11-27,10.5,True,66.0,-1.0,colocated,left
37,740.3307,0,936,1551,2975,4263,501,-9.0,200,0,0,741.2121,1,0,735929.652318642,26_11_2014 level23_spatial_Magnum 15_27 log_BCooled.txt,9.0,9.0,1311,2014-11-26,9.0,True,66.0,-1.0,colocated,left
21,769.7197,1,936,1551,2975,4263,511,-9.0,200,0,1,770.4299,0,0,735928.566547682,25_11_2014 level23_spatial_Magnum 13_23 log_BCooled.txt,10.0,9.0,1311,2014-11-25,9.5,True,66.0,-1.0,colocated,left
37,740.3307,0,936,1551,2975,4263,501,-9.0,200,0,0,741.2121,1,0,735929.652318642,26_11_2014 level23_spatial_Magnum 15_27 log.txt,9.0,9.0,1311,2014-11-26,9.0,True,66.0,-1.0,colocated,left
21,769.7197,1,936,1551,2975,4263,511,-9.0,200,0,1,770.4299,0,0,735928.566547682,25_11_2014 level23_spatial_Magnum 13_23 log.txt,10.0,9.0,1311,2014-11-25,9.5,True,66.0,-1.0,colocated,left
104,1223.9316,1,936,1551,2975,4263,503,-9.0,200,0,0,1227.481,1,0,735929.657915875,26_11_2014 level23_spatial_Magnum 15_27 log.txt,9.0,9.0,1311,2014-11-26,9.0,True,66.0,-1.0,colocated,left
8,507.6873,1,437,2761,2975,4263,511,-9.0,200,1,0,513.5575,0,1,735929.64962601,26_11_2014 level23_spatial_Magnum 15_27 log.txt,12.0,9.0,1311,2014-11-26,10.5,True,66.0,-1.0,colocated,right
51,974.7488,0,437,2761,2975,4263,503,-9.0,200,1,1,976.0111,1,1,735928.568920704,25_11_2014 level23_spatial_Magnum 13_23 log_BCooled.txt,9.0,9.0,1311,2014-11-25,9.0,True,66.0,-1.0,colocated,right
85,1086.2954,1,437,2761,2975,4263,511,-9.0,200,1,1,1089.109,1,1,735929.656322863,26_11_2014 level23_spatial_Magnum 15_27 log.txt,9.0,9.0,1311,2014-11-26,9.0,True,66.0,-1.0,colocated,right
51,974.7488,0,437,2761,2975,4263,503,-9.0,200,1,1,976.0111,1,1,735928.568920704,25_11_2014 level23_spatial_Magnum 13_23 log_BCooled.txt,9.0,9.0,1311,2014-11-25,9.0,True,66.0,-1.0,colocated,right
85,1086.2954,1,437,2761,2975,4263,511,-9.0,200,1,1,1089.109,1,1,735929.656322863,26_11_2014 level23_spatial_Magnum 15_27 log.txt,9.0,9.0,1311,2014-11-26,9.0,True,66.0,-1.0,colocated,right
8,507.6873,1,437,2761,2975,4263,511,-9.0,200,1,0,513.5575,0,1,735929.64962601,26_11_2014 level23_spatial_Magnum 15_27 log.txt,12.0,9.0,1311,2014-11-26,10.5,True,66.0,-1.0,colocated,right
8,507.6873,1,437,2761,2975,4263,511,-9.0,200,1,0,513.5575,0,1,735929.64962601,26_11_2014 level23_spatial_Magnum 15_27 log_BCooled.txt,12.0,9.0,1311,2014-11-26,10.5,True,66.0,-1.0,colocated,right
85,1086.2954,1,437,2761,2975,4263,511,-9.0,200,1,1,1089.109,1,1,735929.656322863,26_11_2014 level23_spatial_Magnum 15_27 log.txt,9.0,9.0,1311,2014-11-26,9.0,True,66.0,-1.0,colocated,right
8,507.6873,1,437,2761,2975,4263,511,-9.0,200,1,0,513.5575,0,1,735929.64962601,26_11_2014 level23_spatial_Magnum 15_27 log.txt,12.0,9.0,1311,2014-11-26,10.5,True,66.0,-1.0,colocated,right
3,461.1765,1,437,2761,2975,4263,501,-9.0,200,1,0,463.5968,0,1,735930.615059913,27_11_2014 level23_spatial_Magnum 14_38 log.txt,11.0,10.0,1311,2014-11-27,10.5,True,66.0,-1.0,colocated,right
51,974.7488,0,437,2761,2975,4263,503,-9.0,200,1,1,976.0111,1,1,735928.568920704,25_11_2014 level23_spatial_Magnum 13_23 log_BCooled.txt,9.0,9.0,1311,2014-11-25,9.0,True,66.0,-1.0,colocated,right
85,1086.2954,1,437,2761,2975,4263,511,-9.0,200,1,1,1089.109,1,1,735929.656322863,26_11_2014 level23_spatial_Magnum 15_27 log.txt,9.0,9.0,1311,2014-11-26,9.0,True,66.0,-1.0,colocated,right
85,1086.2954,1,437,2761,2975,4263,511,-9.0,200,1,1,1089.109,1,1,735929.656322863,26_11_2014 level23_spatial_Magnum 15_27 log_BCooled.txt,9.0,9.0,1311,2014-11-26,9.0,True,66.0,-1.0,colocated,right
51,974.7488,0,437,2761,2975,4263,503,-9.0,200,1,1,976.0111,1,1,735928.568920704,25_11_2014 level23_spatial_Magnum 13_23 log_BCooled.txt,9.0,9.0,1311,2014-11-25,9.0,True,66.0,-1.0,colocated,right
85,1086.2954,1,437,2761,2975,4263,511,-9.0,200,1,1,1089.109,1,1,735929.656322863,26_11_2014 level23_spatial_Magnum 15_27 log_BCooled.txt,9.0,9.0,1311,2014-11-26,9.0,True,66.0,-1.0,colocated,right
85,1086.2954,1,437,2761,2975,4263,511,-9.0,200,1,1,1089.109,1,1,735929.656322863,26_11_2014 level23_spatial_Magnum 15_27 log.txt,9.0,9.0,1311,2014-11-26,9.0,True,66.0,-1.0,colocated,right
