Trial,StartTime,CenterReward,F1,F2,F3,F4,HoldTime,Atten,Pitch,Side,Response,RespTime,Correct,SpatialMask,UniversalStartTime,originalFile,LeftTemperature,RightTemperature,fNum,day,meanTemp,treatment,vowel_level,SNR,SpatialCondition,VowelLocation
16,292.4609,0,460,1105,2857,4205,504,8.5,200,0,1,293.7325,0,0,736414.371403633,25_03_2016 level23_spatial_Robin 08_49_56.813 log.txt,37.0,37.0,1509,2016-03-25,37.0,False,48.5,-18.5,colocated,left
46,543.9354,1,460,1105,2857,4205,508,8.5,200,0,1,547.705,0,0,736412.365958431,23_03_2016 level23_spatial_Robin 08_37_54.873 log.txt,37.0,37.0,1509,2016-03-23,37.0,False,48.5,-18.5,colocated,left
18,319.0686,0,460,1105,2857,4205,504,8.5,200,0,0,320.4983,1,0,736413.351651581,24_03_2016 level23_spatial_Robin 08_21_03.628 log.txt,37.0,37.0,1509,2016-03-24,37.0,False,48.5,-18.5,colocated,left
46,543.9354,1,460,1105,2857,4205,508,8.5,200,0,1,547.705,0,0,736412.365958431,23_03_2016 level23_spatial_Robin 08_37_54.873 log.txt,37.0,37.0,1509,2016-03-23,37.0,False,48.5,-18.5,colocated,left
46,543.9354,1,460,1105,2857,4205,508,8.5,200,0,1,547.705,0,0,736412.365958431,23_03_2016 level23_spatial_Robin 08_37_54.873 log.txt,37.0,37.0,1509,2016-03-23,37.0,False,48.5,-18.5,colocated,left
47,473.8687,0,460,1105,2857,4205,501,8.5,200,0,1,475.0219,0,0,736406.35475348,17_03_2016 level23_spatial_Robin 08_22_56.832 log.txt,37.0,37.0,1509,2016-03-17,37.0,False,48.5,-18.5,colocated,left
16,292.4609,0,460,1105,2857,4205,504,8.5,200,0,1,293.7325,0,0,736414.371403633,25_03_2016 level23_spatial_Robin 08_49_56.813 log.txt,37.0,37.0,1509,2016-03-25,37.0,False,48.5,-18.5,colocated,left
60,453.2844,1,730,2058,2857,4205,508,8.5,200,1,1,457.4537,1,0,736379.372310363,19_02_2016 level23_spatial_Robin 08_48_34.331 log.txt,37.0,37.0,1509,2016-02-19,37.0,False,48.5,-18.5,colocated,left
60,453.2844,1,730,2058,2857,4205,508,8.5,200,1,1,457.4537,1,0,736379.372310363,19_02_2016 level23_spatial_Robin 08_48_34.331 log.txt,37.0,37.0,1509,2016-02-19,37.0,False,48.5,-18.5,colocated,left
60,453.2844,1,730,2058,2857,4205,508,8.5,200,1,1,457.4537,1,0,736379.372310363,19_02_2016 level23_spatial_Robin 08_48_34.331 log.txt,37.0,37.0,1509,2016-02-19,37.0,False,48.5,-18.5,colocated,left
73,693.6447,1,730,2058,2857,4205,509,8.5,200,1,1,697.9254,1,0,736413.355986953,24_03_2016 level23_spatial_Robin 08_21_03.628 log.txt,37.0,37.0,1509,2016-03-24,37.0,False,48.5,-18.5,colocated,left
73,693.6447,1,730,2058,2857,4205,509,8.5,200,1,1,697.9254,1,0,736413.355986953,24_03_2016 level23_spatial_Robin 08_21_03.628 log.txt,37.0,37.0,1509,2016-03-24,37.0,False,48.5,-18.5,colocated,left
60,453.2844,1,730,2058,2857,4205,508,8.5,200,1,1,457.4537,1,0,736379.372310363,19_02_2016 level23_spatial_Robin 08_48_34.331 log.txt,37.0,37.0,1509,2016-02-19,37.0,False,48.5,-18.5,colocated,left
45,498.0432,0,730,2058,2857,4205,507,8.5,200,1,1,500.2323,1,0,736414.373783058,25_03_2016 level23_spatial_Robin 08_49_56.813 log.txt,37.0,37.0,1509,2016-03-25,37.0,False,48.5,-18.5,colocated,left
6,210.8684,1,460,1105,2857,4205,509,8.5,200,0,1,214.6896,0,1,736414.370459275,25_03_2016 level23_spatial_Robin 08_49_56.813 log.txt,37.0,37.0,1509,2016-03-25,37.0,False,48.5,-18.5,colocated,right
12,236.9892,0,460,1105,2857,4205,510,8.5,200,0,0,237.9303,1,1,736406.352011819,17_03_2016 level23_spatial_Robin 08_22_56.832 log.txt,37.0,37.0,1509,2016-03-17,37.0,False,48.5,-18.5,colocated,right
44,532.5852,0,460,1105,2857,4205,510,8.5,200,0,1,534.7374,0,1,736412.365827063,23_03_2016 level23_spatial_Robin 08_37_54.873 log.txt,37.0,37.0,1509,2016-03-23,37.0,False,48.5,-18.5,colocated,right
14,284.8302,0,460,1105,2857,4205,506,8.5,200,0,0,285.9358,1,1,736413.351255303,24_03_2016 level23_spatial_Robin 08_21_03.628 log.txt,37.0,37.0,1509,2016-03-24,37.0,False,48.5,-18.5,colocated,right
12,236.9892,0,460,1105,2857,4205,510,8.5,200,0,0,237.9303,1,1,736406.352011819,17_03_2016 level23_spatial_Robin 08_22_56.832 log.txt,37.0,37.0,1509,2016-03-17,37.0,False,48.5,-18.5,colocated,right
44,532.5852,0,460,1105,2857,4205,510,8.5,200,0,1,534.7374,0,1,736412.365827063,23_03_2016 level23_spatial_Robin 08_37_54.873 log.txt,37.0,37.0,1509,2016-03-23,37.0,False,48.5,-18.5,colocated,right
14,284.8302,0,460,1105,2857,4205,506,8.5,200,0,0,285.9358,1,1,736413.351255303,24_03_2016 level23_spatial_Robin 08_21_03.628 log.txt,37.0,37.0,1509,2016-03-24,37.0,False,48.5,-18.5,colocated,right
26,392.2843,1,730,2058,2857,4205,506,8.5,200,1,1,396.7658,1,1,736412.36420321,23_03_2016 level23_spatial_Robin 08_37_54.873 log.txt,37.0,37.0,1509,2016-03-23,37.0,False,48.5,-18.5,colocated,right
14,253.4223,0,730,2058,2857,4205,503,8.5,200,1,0,254.117,0,1,736406.352202017,17_03_2016 level23_spatial_Robin 08_22_56.832 log.txt,37.0,37.0,1509,2016-03-17,37.0,False,48.5,-18.5,colocated,right
26,392.2843,1,730,2058,2857,4205,506,8.5,200,1,1,396.7658,1,1,736412.36420321,23_03_2016 level23_spatial_Robin 08_37_54.873 log.txt,37.0,37.0,1509,2016-03-23,37.0,False,48.5,-18.5,colocated,right
14,253.4223,0,730,2058,2857,4205,503,8.5,200,1,0,254.117,0,1,736406.352202017,17_03_2016 level23_spatial_Robin 08_22_56.832 log.txt,37.0,37.0,1509,2016-03-17,37.0,False,48.5,-18.5,colocated,right
14,253.4223,0,730,2058,2857,4205,503,8.5,200,1,0,254.117,0,1,736406.352202017,17_03_2016 level23_spatial_Robin 08_22_56.832 log.txt,37.0,37.0,1509,2016-03-17,37.0,False,48.5,-18.5,colocated,right
14,253.4223,0,730,2058,2857,4205,503,8.5,200,1,0,254.117,0,1,736406.352202017,17_03_2016 level23_spatial_Robin 08_22_56.832 log.txt,37.0,37.0,1509,2016-03-17,37.0,False,48.5,-18.5,colocated,right
26,392.2843,1,730,2058,2857,4205,506,8.5,200,1,1,396.7658,1,1,736412.36420321,23_03_2016 level23_spatial_Robin 08_37_54.873 log.txt,37.0,37.0,1509,2016-03-23,37.0,False,48.5,-18.5,colocated,right
65,650.6662,0,460,1105,2857,4205,505,5.5,200,0,1,652.1965,0,0,736414.375549528,25_03_2016 level23_spatial_Robin 08_49_56.813 log.txt,37.0,37.0,1509,2016-03-25,37.0,False,51.5,-15.5,colocated,left
65,650.6662,0,460,1105,2857,4205,505,5.5,200,0,1,652.1965,0,0,736414.375549528,25_03_2016 level23_spatial_Robin 08_49_56.813 log.txt,37.0,37.0,1509,2016-03-25,37.0,False,51.5,-15.5,colocated,left
37,476.2332,0,460,1105,2857,4205,511,5.5,200,0,0,477.2587,1,0,736412.36517484,23_03_2016 level23_spatial_Robin 08_37_54.873 log.txt,37.0,37.0,1509,2016-03-23,37.0,False,51.5,-15.5,colocated,left
65,650.6662,0,460,1105,2857,4205,505,5.5,200,0,1,652.1965,0,0,736414.375549528,25_03_2016 level23_spatial_Robin 08_49_56.813 log.txt,37.0,37.0,1509,2016-03-25,37.0,False,51.5,-15.5,colocated,left
16,122.6568,0,460,1105,2857,4205,503,5.5,200,0,0,124.5757,1,0,736379.368483655,19_02_2016 level23_spatial_Robin 08_48_34.331 log.txt,37.0,37.0,1509,2016-02-19,37.0,False,51.5,-15.5,colocated,left
80,745.827,1,460,1105,2857,4205,511,5.5,200,0,1,751.1016,0,0,736413.356590914,24_03_2016 level23_spatial_Robin 08_21_03.628 log.txt,37.0,37.0,1509,2016-03-24,37.0,False,51.5,-15.5,colocated,left
40,428.9526,0,460,1105,2857,4205,507,5.5,200,0,1,430.0524,0,0,736406.354233618,17_03_2016 level23_spatial_Robin 08_22_56.832 log.txt,37.0,37.0,1509,2016-03-17,37.0,False,51.5,-15.5,colocated,left
30,399.4708,0,730,2058,2857,4205,502,5.5,200,1,1,400.8211,1,0,736413.352582162,24_03_2016 level23_spatial_Robin 08_21_03.628 log.txt,37.0,37.0,1509,2016-03-24,37.0,False,51.5,-15.5,colocated,left
30,399.4708,0,730,2058,2857,4205,502,5.5,200,1,1,400.8211,1,0,736413.352582162,24_03_2016 level23_spatial_Robin 08_21_03.628 log.txt,37.0,37.0,1509,2016-03-24,37.0,False,51.5,-15.5,colocated,left
30,399.4708,0,730,2058,2857,4205,502,5.5,200,1,1,400.8211,1,0,736413.352582162,24_03_2016 level23_spatial_Robin 08_21_03.628 log.txt,37.0,37.0,1509,2016-03-24,37.0,False,51.5,-15.5,colocated,left
30,232.3343,0,730,2058,2857,4205,502,5.5,200,1,1,234.1127,1,0,736379.369753071,19_02_2016 level23_spatial_Robin 08_48_34.331 log.txt,37.0,37.0,1509,2016-02-19,37.0,False,51.5,-15.5,colocated,left
27,400.4385,0,730,2058,2857,4205,507,5.5,200,1,0,401.6484,0,0,736412.364297587,23_03_2016 level23_spatial_Robin 08_37_54.873 log.txt,37.0,37.0,1509,2016-03-23,37.0,False,51.5,-15.5,colocated,left
10,217.822,0,730,2058,2857,4205,502,5.5,200,1,0,218.7436,0,0,736406.351789977,17_03_2016 level23_spatial_Robin 08_22_56.832 log.txt,37.0,37.0,1509,2016-03-17,37.0,False,51.5,-15.5,colocated,left
30,399.4708,0,730,2058,2857,4205,502,5.5,200,1,1,400.8211,1,0,736413.352582162,24_03_2016 level23_spatial_Robin 08_21_03.628 log.txt,37.0,37.0,1509,2016-03-24,37.0,False,51.5,-15.5,colocated,left
11,250.4377,0,460,1105,2857,4205,505,5.5,200,0,1,251.792,0,1,736414.370917253,25_03_2016 level23_spatial_Robin 08_49_56.813 log.txt,37.0,37.0,1509,2016-03-25,37.0,False,51.5,-15.5,colocated,right
38,290.8723,0,460,1105,2857,4205,504,5.5,200,0,1,292.5763,0,1,736379.370430594,19_02_2016 level23_spatial_Robin 08_48_34.331 log.txt,37.0,37.0,1509,2016-02-19,37.0,False,51.5,-15.5,colocated,right
11,250.4377,0,460,1105,2857,4205,505,5.5,200,0,1,251.792,0,1,736414.370917253,25_03_2016 level23_spatial_Robin 08_49_56.813 log.txt,37.0,37.0,1509,2016-03-25,37.0,False,51.5,-15.5,colocated,right
18,145.0005,0,460,1105,2857,4205,501,5.5,200,0,0,146.0469,1,1,736411.366267031,22_03_2016 level23_spatial_Robin 08_45_00.471 log.txt,37.0,37.0,1509,2016-03-22,37.0,False,51.5,-15.5,colocated,right
18,145.0005,0,460,1105,2857,4205,501,5.5,200,0,0,146.0469,1,1,736411.366267031,22_03_2016 level23_spatial_Robin 08_45_00.471 log.txt,37.0,37.0,1509,2016-03-22,37.0,False,51.5,-15.5,colocated,right
38,290.8723,0,460,1105,2857,4205,504,5.5,200,0,1,292.5763,0,1,736379.370430594,19_02_2016 level23_spatial_Robin 08_48_34.331 log.txt,37.0,37.0,1509,2016-02-19,37.0,False,51.5,-15.5,colocated,right
11,250.4377,0,460,1105,2857,4205,505,5.5,200,0,1,251.792,0,1,736414.370917253,25_03_2016 level23_spatial_Robin 08_49_56.813 log.txt,37.0,37.0,1509,2016-03-25,37.0,False,51.5,-15.5,colocated,right
20,303.7394,1,730,2058,2857,4205,507,5.5,200,1,1,307.9153,1,1,736406.352784391,17_03_2016 level23_spatial_Robin 08_22_56.832 log.txt,37.0,37.0,1509,2016-03-17,37.0,False,51.5,-15.5,colocated,right
20,303.7394,1,730,2058,2857,4205,507,5.5,200,1,1,307.9153,1,1,736406.352784391,17_03_2016 level23_spatial_Robin 08_22_56.832 log.txt,37.0,37.0,1509,2016-03-17,37.0,False,51.5,-15.5,colocated,right
19,315.6004,1,730,2058,2857,4205,502,5.5,200,1,1,319.9816,1,1,736414.371671451,25_03_2016 level23_spatial_Robin 08_49_56.813 log.txt,37.0,37.0,1509,2016-03-25,37.0,False,51.5,-15.5,colocated,right
20,303.7394,1,730,2058,2857,4205,507,5.5,200,1,1,307.9153,1,1,736406.352784391,17_03_2016 level23_spatial_Robin 08_22_56.832 log.txt,37.0,37.0,1509,2016-03-17,37.0,False,51.5,-15.5,colocated,right
7,47.6888,1,730,2058,2857,4205,502,5.5,200,1,1,50.8818,1,1,736379.36761597,19_02_2016 level23_spatial_Robin 08_48_34.331 log.txt,37.0,37.0,1509,2016-02-19,37.0,False,51.5,-15.5,colocated,right
65,634.8072,0,730,2058,2857,4205,505,5.5,200,1,1,636.6765,1,1,736413.355305963,24_03_2016 level23_spatial_Robin 08_21_03.628 log.txt,37.0,37.0,1509,2016-03-24,37.0,False,51.5,-15.5,colocated,right
24,182.2429,0,730,2058,2857,4205,503,5.5,200,1,1,183.4886,1,1,736411.366698078,22_03_2016 level23_spatial_Robin 08_45_00.471 log.txt,37.0,37.0,1509,2016-03-22,37.0,False,51.5,-15.5,colocated,right
1,11.1754,0,460,1105,2857,4205,510,2.5,200,0,0,11.2266,1,0,736364.350532065,04_02_2016 level23_spatial_Robin 08_24_34.795 log.txt,37.0,37.0,1509,2016-02-04,37.0,False,54.5,-12.5,colocated,left
34,393.0442,1,460,1105,2857,4205,502,2.5,200,0,1,396.8147,0,0,736406.353818012,17_03_2016 level23_spatial_Robin 08_22_56.832 log.txt,37.0,37.0,1509,2016-03-17,37.0,False,54.5,-12.5,colocated,left
75,909.3575,0,460,1105,2857,4205,510,2.5,200,0,1,911.1538,0,0,736355.362544392,26_01_2016 level23_spatial_Robin 08_26_54.478 log.txt,37.0,37.0,1509,2016-01-26,37.0,False,54.5,-12.5,colocated,left
51,431.7619,1,460,1105,2857,4205,504,2.5,200,0,1,435.6346,0,0,736350.354942013,21_01_2016 level23_spatial_Robin 08_23_55.228 log.txt,37.0,37.0,1509,2016-01-21,37.0,False,54.5,-12.5,colocated,left
1,11.1754,0,460,1105,2857,4205,510,2.5,200,0,0,11.2266,1,0,736364.350532065,04_02_2016 level23_spatial_Robin 08_24_34.795 log.txt,37.0,37.0,1509,2016-02-04,37.0,False,54.5,-12.5,colocated,left
28,216.1014,1,460,1105,2857,4205,503,2.5,200,0,0,219.8684,1,0,736379.36956519,19_02_2016 level23_spatial_Robin 08_48_34.331 log.txt,37.0,37.0,1509,2016-02-19,37.0,False,54.5,-12.5,colocated,left
98,695.6197,0,460,1105,2857,4205,503,2.5,200,0,1,696.9722,0,0,736405.441077636,16_03_2016 level23_spatial_Robin 10_23_33.488 log.txt,37.0,37.0,1509,2016-03-16,37.0,False,54.5,-12.5,colocated,left
79,740.3431,0,730,2058,2857,4205,505,2.5,200,1,1,741.8686,1,0,736413.356527443,24_03_2016 level23_spatial_Robin 08_21_03.628 log.txt,37.0,37.0,1509,2016-03-24,37.0,False,54.5,-12.5,colocated,left
71,605.9045,1,730,2058,2857,4205,502,2.5,200,1,1,609.4665,1,0,736350.356957552,21_01_2016 level23_spatial_Robin 08_23_55.228 log.txt,37.0,37.0,1509,2016-01-21,37.0,False,54.5,-12.5,colocated,left
9,402.4736,0,730,2058,2857,4205,501,2.5,200,1,0,404.1334,0,0,736355.356677681,26_01_2016 level23_spatial_Robin 08_26_54.478 log.txt,37.0,37.0,1509,2016-01-26,37.0,False,54.5,-12.5,colocated,left
98,738.0775,0,730,2058,2857,4205,503,2.5,200,1,1,739.3525,1,0,736379.37560658,19_02_2016 level23_spatial_Robin 08_48_34.331 log.txt,37.0,37.0,1509,2016-02-19,37.0,False,54.5,-12.5,colocated,left
71,605.9045,1,730,2058,2857,4205,502,2.5,200,1,1,609.4665,1,0,736350.356957552,21_01_2016 level23_spatial_Robin 08_23_55.228 log.txt,37.0,37.0,1509,2016-01-21,37.0,False,54.5,-12.5,colocated,left
62,475.6658,0,730,2058,2857,4205,506,2.5,200,1,1,476.9753,1,0,736405.438531873,16_03_2016 level23_spatial_Robin 10_23_33.488 log.txt,37.0,37.0,1509,2016-03-16,37.0,False,54.5,-12.5,colocated,left
15,99.2138,1,730,2058,2857,4205,505,2.5,200,1,0,99.2488,0,0,736364.351551028,04_02_2016 level23_spatial_Robin 08_24_34.795 log.txt,37.0,37.0,1509,2016-02-04,37.0,False,54.5,-12.5,colocated,left
67,606.0089,0,460,1105,2857,4205,503,2.5,200,0,0,607.3816,1,1,736406.356282881,17_03_2016 level23_spatial_Robin 08_22_56.832 log.txt,37.0,37.0,1509,2016-03-17,37.0,False,54.5,-12.5,colocated,right
103,731.6879,0,460,1105,2857,4205,508,2.5,200,0,0,733.1046,1,1,736405.441495092,16_03_2016 level23_spatial_Robin 10_23_33.488 log.txt,37.0,37.0,1509,2016-03-16,37.0,False,54.5,-12.5,colocated,right
72,708.0719,0,460,1105,2857,4205,510,2.5,200,0,1,711.7613,0,1,736414.376213946,25_03_2016 level23_spatial_Robin 08_49_56.813 log.txt,37.0,37.0,1509,2016-03-25,37.0,False,54.5,-12.5,colocated,right
53,598.882,0,460,1105,2857,4205,505,2.5,200,0,0,600.177,1,1,736412.366594387,23_03_2016 level23_spatial_Robin 08_37_54.873 log.txt,37.0,37.0,1509,2016-03-23,37.0,False,54.5,-12.5,colocated,right
70,585.4515,0,460,1105,2857,4205,503,2.5,200,0,0,586.5958,1,1,736364.357178779,04_02_2016 level23_spatial_Robin 08_24_34.795 log.txt,37.0,37.0,1509,2016-02-04,37.0,False,54.5,-12.5,colocated,right
38,630.0289,1,460,1105,2857,4205,506,2.5,200,0,1,633.1532,0,1,736355.359311422,26_01_2016 level23_spatial_Robin 08_26_54.478 log.txt,37.0,37.0,1509,2016-01-26,37.0,False,54.5,-12.5,colocated,right
1,153.2987,0,460,1105,2857,4205,503,2.5,200,0,0,155.2914,1,1,736413.349732948,24_03_2016 level23_spatial_Robin 08_21_03.628 log.txt,37.0,37.0,1509,2016-03-24,37.0,False,54.5,-12.5,colocated,right
19,164.8371,0,730,2058,2857,4205,509,2.5,200,1,1,166.5428,1,1,736350.351852605,21_01_2016 level23_spatial_Robin 08_23_55.228 log.txt,37.0,37.0,1509,2016-01-21,37.0,False,54.5,-12.5,colocated,right
3,165.3593,0,730,2058,2857,4205,505,2.5,200,1,1,166.3256,1,1,736406.35118277,17_03_2016 level23_spatial_Robin 08_22_56.832 log.txt,37.0,37.0,1509,2016-03-17,37.0,False,54.5,-12.5,colocated,right
24,522.1603,1,730,2058,2857,4205,506,2.5,200,1,1,525.8654,1,1,736355.358062943,26_01_2016 level23_spatial_Robin 08_26_54.478 log.txt,37.0,37.0,1509,2016-01-26,37.0,False,54.5,-12.5,colocated,right
24,522.1603,1,730,2058,2857,4205,506,2.5,200,1,1,525.8654,1,1,736355.358062943,26_01_2016 level23_spatial_Robin 08_26_54.478 log.txt,37.0,37.0,1509,2016-01-26,37.0,False,54.5,-12.5,colocated,right
24,522.1603,1,730,2058,2857,4205,506,2.5,200,1,1,525.8654,1,1,736355.358062943,26_01_2016 level23_spatial_Robin 08_26_54.478 log.txt,37.0,37.0,1509,2016-01-26,37.0,False,54.5,-12.5,colocated,right
3,165.3593,0,730,2058,2857,4205,505,2.5,200,1,1,166.3256,1,1,736406.35118277,17_03_2016 level23_spatial_Robin 08_22_56.832 log.txt,37.0,37.0,1509,2016-03-17,37.0,False,54.5,-12.5,colocated,right
85,779.2443,0,730,2058,2857,4205,505,2.5,200,1,1,780.4108,1,1,736413.356977689,24_03_2016 level23_spatial_Robin 08_21_03.628 log.txt,37.0,37.0,1509,2016-03-24,37.0,False,54.5,-12.5,colocated,right
53,511.2043,0,460,1105,2857,4205,508,-0.5,200,0,1,512.6994,0,0,736406.355185605,17_03_2016 level23_spatial_Robin 08_22_56.832 log.txt,37.0,37.0,1509,2016-03-17,37.0,False,57.5,-9.5,colocated,left
28,384.9132,0,460,1105,2857,4205,506,-0.5,200,0,1,386.2437,0,0,736413.352413671,24_03_2016 level23_spatial_Robin 08_21_03.628 log.txt,37.0,37.0,1509,2016-03-24,37.0,False,57.5,-9.5,colocated,left
53,511.2043,0,460,1105,2857,4205,508,-0.5,200,0,1,512.6994,0,0,736406.355185605,17_03_2016 level23_spatial_Robin 08_22_56.832 log.txt,37.0,37.0,1509,2016-03-17,37.0,False,57.5,-9.5,colocated,left
18,176.5574,0,460,1105,2857,4205,509,-0.5,200,0,1,177.8386,0,0,736405.43506997,16_03_2016 level23_spatial_Robin 10_23_33.488 log.txt,37.0,37.0,1509,2016-03-16,37.0,False,57.5,-9.5,colocated,left
19,122.7154,0,460,1105,2857,4205,501,-0.5,200,0,1,123.9789,0,0,736364.351823037,04_02_2016 level23_spatial_Robin 08_24_34.795 log.txt,37.0,37.0,1509,2016-02-04,37.0,False,57.5,-9.5,colocated,left
56,480.4076,1,460,1105,2857,4205,507,-0.5,200,0,1,484.3739,0,0,736350.355505042,21_01_2016 level23_spatial_Robin 08_23_55.228 log.txt,37.0,37.0,1509,2016-01-21,37.0,False,57.5,-9.5,colocated,left
33,406.3771,0,460,1105,2857,4205,502,-0.5,200,0,1,407.9064,0,0,736414.372722108,25_03_2016 level23_spatial_Robin 08_49_56.813 log.txt,37.0,37.0,1509,2016-03-25,37.0,False,57.5,-9.5,colocated,left
102,722.828,1,730,2058,2857,4205,501,-0.5,200,1,1,727.759,1,0,736405.441392546,16_03_2016 level23_spatial_Robin 10_23_33.488 log.txt,37.0,37.0,1509,2016-03-16,37.0,False,57.5,-9.5,colocated,left
56,532.0888,1,730,2058,2857,4205,501,-0.5,200,1,1,535.7502,1,0,736406.355427324,17_03_2016 level23_spatial_Robin 08_22_56.832 log.txt,37.0,37.0,1509,2016-03-17,37.0,False,57.5,-9.5,colocated,left
22,168.3008,0,730,2058,2857,4205,506,-0.5,200,1,1,169.4753,1,0,736411.366536711,22_03_2016 level23_spatial_Robin 08_45_00.471 log.txt,37.0,37.0,1509,2016-03-22,37.0,False,57.5,-9.5,colocated,left
23,347.9912,0,730,2058,2857,4205,510,-0.5,200,1,1,349.4121,1,0,736413.351986333,24_03_2016 level23_spatial_Robin 08_21_03.628 log.txt,37.0,37.0,1509,2016-03-24,37.0,False,57.5,-9.5,colocated,left
88,664.2525,0,730,2058,2857,4205,508,-0.5,200,1,1,665.8162,1,0,736379.374752124,19_02_2016 level23_spatial_Robin 08_48_34.331 log.txt,37.0,37.0,1509,2016-02-19,37.0,False,57.5,-9.5,colocated,left
6,61.755,0,730,2058,2857,4205,505,-0.5,200,1,1,62.9428,1,0,736405.433741238,16_03_2016 level23_spatial_Robin 10_23_33.488 log.txt,37.0,37.0,1509,2016-03-16,37.0,False,57.5,-9.5,colocated,left
17,469.2303,0,730,2058,2857,4205,511,-0.5,200,1,1,471.0442,1,0,736355.357450327,26_01_2016 level23_spatial_Robin 08_26_54.478 log.txt,37.0,37.0,1509,2016-01-26,37.0,False,57.5,-9.5,colocated,left
11,124.4271,0,460,1105,2857,4205,508,-0.5,200,0,0,125.6786,1,1,736404.393292918,15_03_2016 level23_spatial_Robin 09_24_16.081 log.txt,37.0,37.0,1509,2016-03-15,37.0,False,57.5,-9.5,colocated,right
15,301.3226,1,460,1105,2857,4205,510,-0.5,200,0,1,303.2452,0,1,736351.373995968,22_01_2016 level23_spatial_Robin 08_53_31.929 log.txt,37.0,37.0,1509,2016-01-22,37.0,False,57.5,-9.5,colocated,right
33,280.4023,1,460,1105,2857,4205,510,-0.5,200,0,1,283.7482,0,1,736350.353190165,21_01_2016 level23_spatial_Robin 08_23_55.228 log.txt,37.0,37.0,1509,2016-01-21,37.0,False,57.5,-9.5,colocated,right
22,316.5593,0,460,1105,2857,4205,509,-0.5,200,0,0,317.7028,1,1,736406.35293277,17_03_2016 level23_spatial_Robin 08_22_56.832 log.txt,37.0,37.0,1509,2016-03-17,37.0,False,57.5,-9.5,colocated,right
38,289.2088,0,460,1105,2857,4205,504,-0.5,200,0,0,289.2494,1,1,736364.353750044,04_02_2016 level23_spatial_Robin 08_24_34.795 log.txt,37.0,37.0,1509,2016-02-04,37.0,False,57.5,-9.5,colocated,right
57,589.1069,0,460,1105,2857,4205,511,-0.5,200,0,1,590.7024,0,1,736414.374837036,25_03_2016 level23_spatial_Robin 08_49_56.813 log.txt,37.0,37.0,1509,2016-03-25,37.0,False,57.5,-9.5,colocated,right
57,589.1069,0,460,1105,2857,4205,511,-0.5,200,0,1,590.7024,0,1,736414.374837036,25_03_2016 level23_spatial_Robin 08_49_56.813 log.txt,37.0,37.0,1509,2016-03-25,37.0,False,57.5,-9.5,colocated,right
64,499.5892,0,730,2058,2857,4205,509,-0.5,200,1,1,501.2072,1,1,736357.383661727,28_01_2016 level23_spatial_Robin 09_04_08.784 log.txt,37.0,37.0,1509,2016-01-28,37.0,False,57.5,-9.5,colocated,right
88,1034.1851,1,730,2058,2857,4205,505,-0.5,200,1,0,1038.6142,0,1,736355.363989156,26_01_2016 level23_spatial_Robin 08_26_54.478 log.txt,37.0,37.0,1509,2016-01-26,37.0,False,57.5,-9.5,colocated,right
3,189.4334,1,730,2058,2857,4205,505,-0.5,200,1,0,194.2113,0,1,736351.372700954,22_01_2016 level23_spatial_Robin 08_53_31.929 log.txt,37.0,37.0,1509,2016-01-22,37.0,False,57.5,-9.5,colocated,right
86,805.9397,0,730,2058,2857,4205,511,-0.5,200,1,0,806.945,0,1,736413.357286663,24_03_2016 level23_spatial_Robin 08_21_03.628 log.txt,37.0,37.0,1509,2016-03-24,37.0,False,57.5,-9.5,colocated,right
29,251.4704,0,730,2058,2857,4205,502,-0.5,200,1,1,253.1375,1,1,736404.394763326,15_03_2016 level23_spatial_Robin 09_24_16.081 log.txt,37.0,37.0,1509,2016-03-15,37.0,False,57.5,-9.5,colocated,right
3,189.4334,1,730,2058,2857,4205,505,-0.5,200,1,0,194.2113,0,1,736351.372700954,22_01_2016 level23_spatial_Robin 08_53_31.929 log.txt,37.0,37.0,1509,2016-01-22,37.0,False,57.5,-9.5,colocated,right
9,106.2517,1,730,2058,2857,4205,506,-0.5,200,1,1,110.452,1,1,736405.434256247,16_03_2016 level23_spatial_Robin 10_23_33.488 log.txt,37.0,37.0,1509,2016-03-16,37.0,False,57.5,-9.5,colocated,right
41,469.6925,0,460,1105,2857,4205,507,-3.5,200,0,1,470.8579,0,0,736413.353394913,24_03_2016 level23_spatial_Robin 08_21_03.628 log.txt,37.0,37.0,1509,2016-03-24,37.0,False,60.5,-6.5,colocated,left
41,469.6925,0,460,1105,2857,4205,507,-3.5,200,0,1,470.8579,0,0,736413.353394913,24_03_2016 level23_spatial_Robin 08_21_03.628 log.txt,37.0,37.0,1509,2016-03-24,37.0,False,60.5,-6.5,colocated,left
7,268.9967,0,460,1105,2857,4205,502,-3.5,200,0,1,270.4426,0,0,736412.36277627,23_03_2016 level23_spatial_Robin 08_37_54.873 log.txt,37.0,37.0,1509,2016-03-23,37.0,False,60.5,-6.5,colocated,left
54,442.8767,1,460,1105,2857,4205,502,-3.5,200,0,0,447.3217,1,0,736364.355528608,04_02_2016 level23_spatial_Robin 08_24_34.795 log.txt,37.0,37.0,1509,2016-02-04,37.0,False,60.5,-6.5,colocated,left
43,484.7381,0,460,1105,2857,4205,503,-3.5,200,0,1,486.569,0,0,736414.373629064,25_03_2016 level23_spatial_Robin 08_49_56.813 log.txt,37.0,37.0,1509,2016-03-25,37.0,False,60.5,-6.5,colocated,left
73,893.7508,1,460,1105,2857,4205,502,-3.5,200,0,1,898.1077,0,0,736355.362363759,26_01_2016 level23_spatial_Robin 08_26_54.478 log.txt,37.0,37.0,1509,2016-01-26,37.0,False,60.5,-6.5,colocated,left
7,268.9967,0,460,1105,2857,4205,502,-3.5,200,0,1,270.4426,0,0,736412.36277627,23_03_2016 level23_spatial_Robin 08_37_54.873 log.txt,37.0,37.0,1509,2016-03-23,37.0,False,60.5,-6.5,colocated,left
83,608.8271,0,730,2058,2857,4205,502,-3.5,200,1,1,610.2828,1,0,736405.440073092,16_03_2016 level23_spatial_Robin 10_23_33.488 log.txt,37.0,37.0,1509,2016-03-16,37.0,False,60.5,-6.5,colocated,left
51,408.8341,1,730,2058,2857,4205,511,-3.5,200,1,1,413.3239,1,0,736364.355134596,04_02_2016 level23_spatial_Robin 08_24_34.795 log.txt,37.0,37.0,1509,2016-02-04,37.0,False,60.5,-6.5,colocated,left
70,540.1113,0,730,2058,2857,4205,501,-3.5,200,1,1,541.719,1,0,736357.384130733,28_01_2016 level23_spatial_Robin 09_04_08.784 log.txt,37.0,37.0,1509,2016-01-28,37.0,False,60.5,-6.5,colocated,left
51,408.8341,1,730,2058,2857,4205,511,-3.5,200,1,1,413.3239,1,0,736364.355134596,04_02_2016 level23_spatial_Robin 08_24_34.795 log.txt,37.0,37.0,1509,2016-02-04,37.0,False,60.5,-6.5,colocated,left
52,546.6427,0,730,2058,2857,4205,510,-3.5,200,1,1,547.9221,1,0,736413.354285541,24_03_2016 level23_spatial_Robin 08_21_03.628 log.txt,37.0,37.0,1509,2016-03-24,37.0,False,60.5,-6.5,colocated,left
51,408.8341,1,730,2058,2857,4205,511,-3.5,200,1,1,413.3239,1,0,736364.355134596,04_02_2016 level23_spatial_Robin 08_24_34.795 log.txt,37.0,37.0,1509,2016-02-04,37.0,False,60.5,-6.5,colocated,left
83,608.8271,0,730,2058,2857,4205,502,-3.5,200,1,1,610.2828,1,0,736405.440073092,16_03_2016 level23_spatial_Robin 10_23_33.488 log.txt,37.0,37.0,1509,2016-03-16,37.0,False,60.5,-6.5,colocated,left
12,91.8629,0,460,1105,2857,4205,510,-3.5,200,0,0,93.143,1,1,736379.368127244,19_02_2016 level23_spatial_Robin 08_48_34.331 log.txt,37.0,37.0,1509,2016-02-19,37.0,False,60.5,-6.5,colocated,right
69,520.6706,0,460,1105,2857,4205,506,-3.5,200,0,0,521.8847,1,1,736405.439052762,16_03_2016 level23_spatial_Robin 10_23_33.488 log.txt,37.0,37.0,1509,2016-03-16,37.0,False,60.5,-6.5,colocated,right
24,353.669,1,460,1105,2857,4205,503,-3.5,200,0,1,357.66,0,1,736413.352052049,24_03_2016 level23_spatial_Robin 08_21_03.628 log.txt,37.0,37.0,1509,2016-03-24,37.0,False,60.5,-6.5,colocated,right
24,353.669,1,460,1105,2857,4205,503,-3.5,200,0,1,357.66,0,1,736413.352052049,24_03_2016 level23_spatial_Robin 08_21_03.628 log.txt,37.0,37.0,1509,2016-03-24,37.0,False,60.5,-6.5,colocated,right
30,388.0679,0,460,1105,2857,4205,504,-3.5,200,0,1,389.3083,0,1,736414.372510196,25_03_2016 level23_spatial_Robin 08_49_56.813 log.txt,37.0,37.0,1509,2016-03-25,37.0,False,60.5,-6.5,colocated,right
34,263.5754,0,460,1105,2857,4205,509,-3.5,200,0,0,264.4592,1,1,736364.353453361,04_02_2016 level23_spatial_Robin 08_24_34.795 log.txt,37.0,37.0,1509,2016-02-04,37.0,False,60.5,-6.5,colocated,right
30,388.0679,0,460,1105,2857,4205,504,-3.5,200,0,1,389.3083,0,1,736414.372510196,25_03_2016 level23_spatial_Robin 08_49_56.813 log.txt,37.0,37.0,1509,2016-03-25,37.0,False,60.5,-6.5,colocated,right
40,501.6972,0,730,2058,2857,4205,508,-3.5,200,1,0,502.743,0,1,736412.365469562,23_03_2016 level23_spatial_Robin 08_37_54.873 log.txt,37.0,37.0,1509,2016-03-23,37.0,False,60.5,-6.5,colocated,right
36,428.6736,1,730,2058,2857,4205,501,-3.5,200,1,1,433.3903,1,1,736414.372980169,25_03_2016 level23_spatial_Robin 08_49_56.813 log.txt,37.0,37.0,1509,2016-03-25,37.0,False,60.5,-6.5,colocated,right
40,501.6972,0,730,2058,2857,4205,508,-3.5,200,1,0,502.743,0,1,736412.365469562,23_03_2016 level23_spatial_Robin 08_37_54.873 log.txt,37.0,37.0,1509,2016-03-23,37.0,False,60.5,-6.5,colocated,right
70,852.3525,0,730,2058,2857,4205,502,-3.5,200,1,1,853.7512,1,1,736377.360694693,17_02_2016 level23_spatial_Robin 08_25_11.669 log.txt,37.0,37.0,1509,2016-02-17,37.0,False,60.5,-6.5,colocated,right
16,303.9959,1,730,2058,2857,4205,508,-3.5,200,1,0,308.5509,0,1,736413.351477128,24_03_2016 level23_spatial_Robin 08_21_03.628 log.txt,37.0,37.0,1509,2016-03-24,37.0,False,60.5,-6.5,colocated,right
70,852.3525,0,730,2058,2857,4205,502,-3.5,200,1,1,853.7512,1,1,736377.360694693,17_02_2016 level23_spatial_Robin 08_25_11.669 log.txt,37.0,37.0,1509,2016-02-17,37.0,False,60.5,-6.5,colocated,right
69,519.6166,1,730,2058,2857,4205,503,-3.5,200,1,1,523.3257,1,1,736379.373078097,19_02_2016 level23_spatial_Robin 08_48_34.331 log.txt,37.0,37.0,1509,2016-02-19,37.0,False,60.5,-6.5,colocated,right
82,660.9378,0,460,1105,2857,4205,503,-6.5,200,0,1,662.3411,0,0,736364.358052463,04_02_2016 level23_spatial_Robin 08_24_34.795 log.txt,37.0,37.0,1509,2016-02-04,37.0,False,63.5,-3.5,colocated,left
82,660.9378,0,460,1105,2857,4205,503,-6.5,200,0,1,662.3411,0,0,736364.358052463,04_02_2016 level23_spatial_Robin 08_24_34.795 log.txt,37.0,37.0,1509,2016-02-04,37.0,False,63.5,-3.5,colocated,left
82,660.9378,0,460,1105,2857,4205,503,-6.5,200,0,1,662.3411,0,0,736364.358052463,04_02_2016 level23_spatial_Robin 08_24_34.795 log.txt,37.0,37.0,1509,2016-02-04,37.0,False,63.5,-3.5,colocated,left
67,503.0454,0,460,1105,2857,4205,507,-6.5,200,0,1,504.3794,0,0,736405.438848766,16_03_2016 level23_spatial_Robin 10_23_33.488 log.txt,37.0,37.0,1509,2016-03-16,37.0,False,63.5,-3.5,colocated,left
9,316.3469,0,460,1105,2857,4205,505,-6.5,200,0,0,317.4862,1,0,736377.354490925,17_02_2016 level23_spatial_Robin 08_25_11.669 log.txt,37.0,37.0,1509,2016-02-17,37.0,False,63.5,-3.5,colocated,left
84,622.3922,1,460,1105,2857,4205,507,-6.5,200,0,0,626.9933,1,0,736404.399056403,15_03_2016 level23_spatial_Robin 09_24_16.081 log.txt,37.0,37.0,1509,2016-03-15,37.0,False,63.5,-3.5,colocated,left
84,622.3922,1,460,1105,2857,4205,507,-6.5,200,0,0,626.9933,1,0,736404.399056403,15_03_2016 level23_spatial_Robin 09_24_16.081 log.txt,37.0,37.0,1509,2016-03-15,37.0,False,63.5,-3.5,colocated,left
79,914.9417,1,730,2058,2857,4205,501,-6.5,200,1,1,918.5922,1,0,736377.361419105,17_02_2016 level23_spatial_Robin 08_25_11.669 log.txt,37.0,37.0,1509,2016-02-17,37.0,False,63.5,-3.5,colocated,left
33,233.4025,0,730,2058,2857,4205,509,-6.5,200,1,1,234.8153,1,0,736411.367290203,22_03_2016 level23_spatial_Robin 08_45_00.471 log.txt,37.0,37.0,1509,2016-03-22,37.0,False,63.5,-3.5,colocated,left
41,472.0897,0,730,2058,2857,4205,506,-6.5,200,1,1,473.6372,1,0,736414.37348267,25_03_2016 level23_spatial_Robin 08_49_56.813 log.txt,37.0,37.0,1509,2016-03-25,37.0,False,63.5,-3.5,colocated,left
53,407.9361,0,730,2058,2857,4205,508,-6.5,200,1,1,409.5058,1,0,736404.396574272,15_03_2016 level23_spatial_Robin 09_24_16.081 log.txt,37.0,37.0,1509,2016-03-15,37.0,False,63.5,-3.5,colocated,left
59,553.395,1,730,2058,2857,4205,509,-6.5,200,1,1,556.7672,1,0,736406.355673924,17_03_2016 level23_spatial_Robin 08_22_56.832 log.txt,37.0,37.0,1509,2016-03-17,37.0,False,63.5,-3.5,colocated,left
65,839.7494,0,730,2058,2857,4205,508,-6.5,200,1,1,841.2429,1,0,736355.361738743,26_01_2016 level23_spatial_Robin 08_26_54.478 log.txt,37.0,37.0,1509,2016-01-26,37.0,False,63.5,-3.5,colocated,left
50,376.4652,0,730,2058,2857,4205,502,-6.5,200,1,0,378.3064,0,0,736379.371421252,19_02_2016 level23_spatial_Robin 08_48_34.331 log.txt,37.0,37.0,1509,2016-02-19,37.0,False,63.5,-3.5,colocated,left
22,351.2729,0,460,1105,2857,4205,507,-6.5,200,0,0,352.7812,1,1,736351.374574096,22_01_2016 level23_spatial_Robin 08_53_31.929 log.txt,37.0,37.0,1509,2016-01-22,37.0,False,63.5,-3.5,colocated,right
62,623.8957,0,460,1105,2857,4205,501,-6.5,200,0,1,625.5439,0,1,736414.375239684,25_03_2016 level23_spatial_Robin 08_49_56.813 log.txt,37.0,37.0,1509,2016-03-25,37.0,False,63.5,-3.5,colocated,right
67,555.9438,1,460,1105,2857,4205,508,-6.5,200,0,0,560.0416,1,1,736364.356837255,04_02_2016 level23_spatial_Robin 08_24_34.795 log.txt,37.0,37.0,1509,2016-02-04,37.0,False,63.5,-3.5,colocated,right
62,623.8957,0,460,1105,2857,4205,501,-6.5,200,0,1,625.5439,0,1,736414.375239684,25_03_2016 level23_spatial_Robin 08_49_56.813 log.txt,37.0,37.0,1509,2016-03-25,37.0,False,63.5,-3.5,colocated,right
94,1020.4214,0,460,1105,2857,4205,507,-6.5,200,0,1,1022.7909,0,1,736377.362639935,17_02_2016 level23_spatial_Robin 08_25_11.669 log.txt,37.0,37.0,1509,2016-02-17,37.0,False,63.5,-3.5,colocated,right
86,653.4673,0,460,1105,2857,4205,511,-6.5,200,0,0,655.1146,1,1,736379.374627295,19_02_2016 level23_spatial_Robin 08_48_34.331 log.txt,37.0,37.0,1509,2016-02-19,37.0,False,63.5,-3.5,colocated,right
38,317.7858,1,460,1105,2857,4205,506,-6.5,200,0,0,320.9208,1,1,736405.436704558,16_03_2016 level23_spatial_Robin 10_23_33.488 log.txt,37.0,37.0,1509,2016-03-16,37.0,False,63.5,-3.5,colocated,right
75,557.5744,0,730,2058,2857,4205,504,-6.5,200,1,1,558.9275,1,1,736405.439479889,16_03_2016 level23_spatial_Robin 10_23_33.488 log.txt,37.0,37.0,1509,2016-03-16,37.0,False,63.5,-3.5,colocated,right
22,150.8068,1,730,2058,2857,4205,504,-6.5,200,1,0,154.8899,0,1,736364.352148169,04_02_2016 level23_spatial_Robin 08_24_34.795 log.txt,37.0,37.0,1509,2016-02-04,37.0,False,63.5,-3.5,colocated,right
55,411.2857,1,730,2058,2857,4205,505,-6.5,200,1,1,416.2798,1,1,736379.371824267,19_02_2016 level23_spatial_Robin 08_48_34.331 log.txt,37.0,37.0,1509,2016-02-19,37.0,False,63.5,-3.5,colocated,right
41,616.8651,1,730,2058,2857,4205,507,-6.5,200,1,0,621.0187,0,1,736377.357969145,17_02_2016 level23_spatial_Robin 08_25_11.669 log.txt,37.0,37.0,1509,2016-02-17,37.0,False,63.5,-3.5,colocated,right
91,831.4579,0,730,2058,2857,4205,507,-6.5,200,1,1,833.3251,1,1,736351.380131793,22_01_2016 level23_spatial_Robin 08_53_31.929 log.txt,37.0,37.0,1509,2016-01-22,37.0,False,63.5,-3.5,colocated,right
22,369.901,0,730,2058,2857,4205,504,-6.5,200,1,0,370.8083,0,1,736412.363944144,23_03_2016 level23_spatial_Robin 08_37_54.873 log.txt,37.0,37.0,1509,2016-03-23,37.0,False,63.5,-3.5,colocated,right
116,816.817,0,730,2058,2857,4205,501,-6.5,200,1,1,818.1488,1,1,736405.442480382,16_03_2016 level23_spatial_Robin 10_23_33.488 log.txt,37.0,37.0,1509,2016-03-16,37.0,False,63.5,-3.5,colocated,right
19,426.3793,1,460,1105,2857,4205,504,-9.5,200,0,0,431.8673,1,0,736377.355764448,17_02_2016 level23_spatial_Robin 08_25_11.669 log.txt,37.0,37.0,1509,2016-02-17,37.0,False,66.5,-0.5,colocated,left
51,395.0678,0,460,1105,2857,4205,501,-9.5,200,0,1,396.7056,0,0,736404.396425333,15_03_2016 level23_spatial_Robin 09_24_16.081 log.txt,37.0,37.0,1509,2016-03-15,37.0,False,66.5,-0.5,colocated,left
51,395.0678,0,460,1105,2857,4205,501,-9.5,200,0,1,396.7056,0,0,736404.396425333,15_03_2016 level23_spatial_Robin 09_24_16.081 log.txt,37.0,37.0,1509,2016-03-15,37.0,False,66.5,-0.5,colocated,left
37,284.1459,0,460,1105,2857,4205,511,-9.5,200,0,0,284.948,1,0,736364.353691446,04_02_2016 level23_spatial_Robin 08_24_34.795 log.txt,37.0,37.0,1509,2016-02-04,37.0,False,66.5,-0.5,colocated,left
4,37.378,0,460,1105,2857,4205,507,-9.5,200,0,0,38.7512,1,0,736350.350377384,21_01_2016 level23_spatial_Robin 08_23_55.228 log.txt,37.0,37.0,1509,2016-01-21,37.0,False,66.5,-0.5,colocated,left
29,562.6506,1,460,1105,2857,4205,504,-9.5,200,0,1,566.5582,0,0,736355.358531581,26_01_2016 level23_spatial_Robin 08_26_54.478 log.txt,37.0,37.0,1509,2016-01-26,37.0,False,66.5,-0.5,colocated,left
4,37.378,0,460,1105,2857,4205,507,-9.5,200,0,0,38.7512,1,0,736350.350377384,21_01_2016 level23_spatial_Robin 08_23_55.228 log.txt,37.0,37.0,1509,2016-01-21,37.0,False,66.5,-0.5,colocated,left
96,704.3686,0,730,2058,2857,4205,507,-9.5,200,1,1,706.9006,1,0,736404.400005204,15_03_2016 level23_spatial_Robin 09_24_16.081 log.txt,37.0,37.0,1509,2016-03-15,37.0,False,66.5,-0.5,colocated,left
37,298.5658,0,730,2058,2857,4205,511,-9.5,200,1,1,300.1416,1,0,736404.395308412,15_03_2016 level23_spatial_Robin 09_24_16.081 log.txt,37.0,37.0,1509,2016-03-15,37.0,False,66.5,-0.5,colocated,left
87,702.2858,0,730,2058,2857,4205,509,-9.5,200,1,1,703.9477,1,0,736364.358531028,04_02_2016 level23_spatial_Robin 08_24_34.795 log.txt,37.0,37.0,1509,2016-02-04,37.0,False,66.5,-0.5,colocated,left
78,908.8865,0,730,2058,2857,4205,506,-9.5,200,1,1,910.0307,1,0,736377.361349022,17_02_2016 level23_spatial_Robin 08_25_11.669 log.txt,37.0,37.0,1509,2016-02-17,37.0,False,66.5,-0.5,colocated,left
78,908.8865,0,730,2058,2857,4205,506,-9.5,200,1,1,910.0307,1,0,736377.361349022,17_02_2016 level23_spatial_Robin 08_25_11.669 log.txt,37.0,37.0,1509,2016-02-17,37.0,False,66.5,-0.5,colocated,left
96,704.3686,0,730,2058,2857,4205,507,-9.5,200,1,1,706.9006,1,0,736404.400005204,15_03_2016 level23_spatial_Robin 09_24_16.081 log.txt,37.0,37.0,1509,2016-03-15,37.0,False,66.5,-0.5,colocated,left
87,702.2858,0,730,2058,2857,4205,509,-9.5,200,1,1,703.9477,1,0,736364.358531028,04_02_2016 level23_spatial_Robin 08_24_34.795 log.txt,37.0,37.0,1509,2016-02-04,37.0,False,66.5,-0.5,colocated,left
17,151.5035,1,460,1105,2857,4205,507,-9.5,200,0,1,155.6292,0,1,736357.379632957,28_01_2016 level23_spatial_Robin 09_04_08.784 log.txt,37.0,37.0,1509,2016-01-28,37.0,False,66.5,-0.5,colocated,right
20,171.1025,1,460,1105,2857,4205,508,-9.5,200,0,1,174.9826,0,1,736350.351925122,21_01_2016 level23_spatial_Robin 08_23_55.228 log.txt,37.0,37.0,1509,2016-01-21,37.0,False,66.5,-0.5,colocated,right
56,778.5311,0,460,1105,2857,4205,510,-9.5,200,0,1,780.2237,0,1,736355.361030198,26_01_2016 level23_spatial_Robin 08_26_54.478 log.txt,37.0,37.0,1509,2016-01-26,37.0,False,66.5,-0.5,colocated,right
39,313.6746,0,460,1105,2857,4205,508,-9.5,200,0,0,315.0509,1,1,736404.395483282,15_03_2016 level23_spatial_Robin 09_24_16.081 log.txt,37.0,37.0,1509,2016-03-15,37.0,False,66.5,-0.5,colocated,right
20,171.1025,1,460,1105,2857,4205,508,-9.5,200,0,1,174.9826,0,1,736350.351925122,21_01_2016 level23_spatial_Robin 08_23_55.228 log.txt,37.0,37.0,1509,2016-01-21,37.0,False,66.5,-0.5,colocated,right
17,151.5035,1,460,1105,2857,4205,507,-9.5,200,0,1,155.6292,0,1,736357.379632957,28_01_2016 level23_spatial_Robin 09_04_08.784 log.txt,37.0,37.0,1509,2016-01-28,37.0,False,66.5,-0.5,colocated,right
56,778.5311,0,460,1105,2857,4205,510,-9.5,200,0,1,780.2237,0,1,736355.361030198,26_01_2016 level23_spatial_Robin 08_26_54.478 log.txt,37.0,37.0,1509,2016-01-26,37.0,False,66.5,-0.5,colocated,right
69,844.9479,0,730,2058,2857,4205,503,-9.5,200,1,1,846.4868,1,1,736377.360608992,17_02_2016 level23_spatial_Robin 08_25_11.669 log.txt,37.0,37.0,1509,2016-02-17,37.0,False,66.5,-0.5,colocated,right
9,98.2372,1,730,2058,2857,4205,511,-9.5,200,1,1,102.284,1,1,736404.392989794,15_03_2016 level23_spatial_Robin 09_24_16.081 log.txt,37.0,37.0,1509,2016-03-15,37.0,False,66.5,-0.5,colocated,right
69,844.9479,0,730,2058,2857,4205,503,-9.5,200,1,1,846.4868,1,1,736377.360608992,17_02_2016 level23_spatial_Robin 08_25_11.669 log.txt,37.0,37.0,1509,2016-02-17,37.0,False,66.5,-0.5,colocated,right
31,577.1569,1,730,2058,2857,4205,509,-9.5,200,1,0,581.4641,0,1,736355.358699478,26_01_2016 level23_spatial_Robin 08_26_54.478 log.txt,37.0,37.0,1509,2016-01-26,37.0,False,66.5,-0.5,colocated,right
31,577.1569,1,730,2058,2857,4205,509,-9.5,200,1,0,581.4641,0,1,736355.358699478,26_01_2016 level23_spatial_Robin 08_26_54.478 log.txt,37.0,37.0,1509,2016-01-26,37.0,False,66.5,-0.5,colocated,right
29,245.1694,1,730,2058,2857,4205,509,-9.5,200,1,1,249.5599,1,1,736357.380717053,28_01_2016 level23_spatial_Robin 09_04_08.784 log.txt,37.0,37.0,1509,2016-01-28,37.0,False,66.5,-0.5,colocated,right
28,239.0597,1,730,2058,2857,4205,511,-9.5,200,1,1,244.2146,1,1,736350.352711663,21_01_2016 level23_spatial_Robin 08_23_55.228 log.txt,37.0,37.0,1509,2016-01-21,37.0,False,66.5,-0.5,colocated,right
75,550.7929,1,460,1105,2857,4205,505,-12.5,200,0,0,554.7652,1,0,736404.398227707,15_03_2016 level23_spatial_Robin 09_24_16.081 log.txt,37.0,37.0,1509,2016-03-15,37.0,False,69.5,2.5,colocated,left
45,382.4891,1,460,1105,2857,4205,502,-12.5,200,0,1,385.9608,0,0,736350.354371726,21_01_2016 level23_spatial_Robin 08_23_55.228 log.txt,37.0,37.0,1509,2016-01-21,37.0,False,69.5,2.5,colocated,left
45,382.4891,1,460,1105,2857,4205,502,-12.5,200,0,1,385.9608,0,0,736350.354371726,21_01_2016 level23_spatial_Robin 08_23_55.228 log.txt,37.0,37.0,1509,2016-01-21,37.0,False,69.5,2.5,colocated,left
51,538.7525,1,460,1105,2857,4205,509,-12.5,200,0,0,539.9036,1,0,736351.376743999,22_01_2016 level23_spatial_Robin 08_53_31.929 log.txt,37.0,37.0,1509,2016-01-22,37.0,False,69.5,2.5,colocated,left
75,550.7929,1,460,1105,2857,4205,505,-12.5,200,0,0,554.7652,1,0,736404.398227707,15_03_2016 level23_spatial_Robin 09_24_16.081 log.txt,37.0,37.0,1509,2016-03-15,37.0,False,69.5,2.5,colocated,left
75,550.7929,1,460,1105,2857,4205,505,-12.5,200,0,0,554.7652,1,0,736404.398227707,15_03_2016 level23_spatial_Robin 09_24_16.081 log.txt,37.0,37.0,1509,2016-03-15,37.0,False,69.5,2.5,colocated,left
45,382.4891,1,460,1105,2857,4205,502,-12.5,200,0,1,385.9608,0,0,736350.354371726,21_01_2016 level23_spatial_Robin 08_23_55.228 log.txt,37.0,37.0,1509,2016-01-21,37.0,False,69.5,2.5,colocated,left
35,606.3976,0,730,2058,2857,4205,501,-12.5,200,1,0,607.7076,0,0,736355.359037912,26_01_2016 level23_spatial_Robin 08_26_54.478 log.txt,37.0,37.0,1509,2016-01-26,37.0,False,69.5,2.5,colocated,left
35,606.3976,0,730,2058,2857,4205,501,-12.5,200,1,0,607.7076,0,0,736355.359037912,26_01_2016 level23_spatial_Robin 08_26_54.478 log.txt,37.0,37.0,1509,2016-01-26,37.0,False,69.5,2.5,colocated,left
35,606.3976,0,730,2058,2857,4205,501,-12.5,200,1,0,607.7076,0,0,736355.359037912,26_01_2016 level23_spatial_Robin 08_26_54.478 log.txt,37.0,37.0,1509,2016-01-26,37.0,False,69.5,2.5,colocated,left
115,817.8102,0,730,2058,2857,4205,511,-12.5,200,1,1,819.4662,1,0,736404.401318185,15_03_2016 level23_spatial_Robin 09_24_16.081 log.txt,37.0,37.0,1509,2016-03-15,37.0,False,69.5,2.5,colocated,left
8,79.1409,0,730,2058,2857,4205,511,-12.5,200,1,1,80.5448,1,0,736357.378795427,28_01_2016 level23_spatial_Robin 09_04_08.784 log.txt,37.0,37.0,1509,2016-01-28,37.0,False,69.5,2.5,colocated,left
115,817.8102,0,730,2058,2857,4205,511,-12.5,200,1,1,819.4662,1,0,736404.401318185,15_03_2016 level23_spatial_Robin 09_24_16.081 log.txt,37.0,37.0,1509,2016-03-15,37.0,False,69.5,2.5,colocated,left
92,678.7472,0,730,2058,2857,4205,505,-12.5,200,1,1,680.2938,1,0,736404.39970866,15_03_2016 level23_spatial_Robin 09_24_16.081 log.txt,37.0,37.0,1509,2016-03-15,37.0,False,69.5,2.5,colocated,left
43,367.1937,0,460,1105,2857,4205,506,-12.5,200,0,1,369.4726,0,1,736350.354194696,21_01_2016 level23_spatial_Robin 08_23_55.228 log.txt,37.0,37.0,1509,2016-01-21,37.0,False,69.5,2.5,colocated,right
50,388.0391,0,460,1105,2857,4205,509,-12.5,200,0,0,389.3071,1,1,736404.396343983,15_03_2016 level23_spatial_Robin 09_24_16.081 log.txt,37.0,37.0,1509,2016-03-15,37.0,False,69.5,2.5,colocated,right
43,367.1937,0,460,1105,2857,4205,506,-12.5,200,0,1,369.4726,0,1,736350.354194696,21_01_2016 level23_spatial_Robin 08_23_55.228 log.txt,37.0,37.0,1509,2016-01-21,37.0,False,69.5,2.5,colocated,right
52,420.849,1,460,1105,2857,4205,502,-12.5,200,0,0,423.6171,1,1,736357.382750382,28_01_2016 level23_spatial_Robin 09_04_08.784 log.txt,37.0,37.0,1509,2016-01-28,37.0,False,69.5,2.5,colocated,right
75,621.0861,0,460,1105,2857,4205,502,-12.5,200,0,0,622.0975,1,1,736364.357591216,04_02_2016 level23_spatial_Robin 08_24_34.795 log.txt,37.0,37.0,1509,2016-02-04,37.0,False,69.5,2.5,colocated,right
84,761.1453,0,460,1105,2857,4205,508,-12.5,200,0,1,763.8905,0,1,736351.37931799,22_01_2016 level23_spatial_Robin 08_53_31.929 log.txt,37.0,37.0,1509,2016-01-22,37.0,False,69.5,2.5,colocated,right
52,420.849,1,460,1105,2857,4205,502,-12.5,200,0,0,423.6171,1,1,736357.382750382,28_01_2016 level23_spatial_Robin 09_04_08.784 log.txt,37.0,37.0,1509,2016-01-28,37.0,False,69.5,2.5,colocated,right
53,452.8234,1,730,2058,2857,4205,506,-12.5,200,1,1,456.6165,1,1,736350.35518578,21_01_2016 level23_spatial_Robin 08_23_55.228 log.txt,37.0,37.0,1509,2016-01-21,37.0,False,69.5,2.5,colocated,right
53,452.8234,1,730,2058,2857,4205,506,-12.5,200,1,1,456.6165,1,1,736350.35518578,21_01_2016 level23_spatial_Robin 08_23_55.228 log.txt,37.0,37.0,1509,2016-01-21,37.0,False,69.5,2.5,colocated,right
23,198.4564,1,730,2058,2857,4205,509,-12.5,200,1,1,202.6182,1,1,736357.380176393,28_01_2016 level23_spatial_Robin 09_04_08.784 log.txt,37.0,37.0,1509,2016-01-28,37.0,False,69.5,2.5,colocated,right
110,788.8758,0,730,2058,2857,4205,503,-12.5,200,1,1,790.7418,1,1,736404.400983296,15_03_2016 level23_spatial_Robin 09_24_16.081 log.txt,37.0,37.0,1509,2016-03-15,37.0,False,69.5,2.5,colocated,right
53,452.8234,1,730,2058,2857,4205,506,-12.5,200,1,1,456.6165,1,1,736350.35518578,21_01_2016 level23_spatial_Robin 08_23_55.228 log.txt,37.0,37.0,1509,2016-01-21,37.0,False,69.5,2.5,colocated,right
93,760.5743,1,730,2058,2857,4205,502,-12.5,200,1,0,764.0037,0,1,736364.359205663,04_02_2016 level23_spatial_Robin 08_24_34.795 log.txt,37.0,37.0,1509,2016-02-04,37.0,False,69.5,2.5,colocated,right
24,363.0637,0,730,2058,2857,4205,504,-12.5,200,1,1,364.6406,1,1,736351.374710564,22_01_2016 level23_spatial_Robin 08_53_31.929 log.txt,37.0,37.0,1509,2016-01-22,37.0,False,69.5,2.5,colocated,right
50,1267.293,0,460,1105,2857,4205,511,8.5,200,0,1,1269.0873,0,0,736406.735615706,17_03_2016 level23_spatial_Robin_cooling 17_18_09.904 log.txt,10.0,10.0,1509,2016-03-17,10.0,True,48.5,-18.5,colocated,left
35,1463.0892,1,460,1105,2857,4205,505,8.5,200,0,1,1468.7807,0,0,736379.693465245,19_02_2016 level23_spatial_Robin_cooling 16_14_12.308 log.txt,8.0,8.0,1509,2016-02-19,8.0,True,48.5,-18.5,colocated,left
35,1517.1084,0,460,1105,2857,4205,511,8.5,200,0,1,1518.5692,0,0,736413.726720363,24_03_2016 level23_spatial_Robin_cooling 17_01_11.531 log.txt,10.0,10.0,1509,2016-03-24,10.0,True,48.5,-18.5,colocated,left
20,1733.3178,0,460,1105,2857,4205,501,8.5,200,0,1,1735.061,0,0,736412.598926074,23_03_2016 level23_spatial_Robin_cooling 13_53_33.895 log.txt,12.0,12.0,1509,2016-03-23,12.0,True,48.5,-18.5,colocated,left
20,1733.3178,0,460,1105,2857,4205,501,8.5,200,0,1,1735.061,0,0,736412.598926074,23_03_2016 level23_spatial_Robin_cooling 13_53_33.895 log.txt,12.0,12.0,1509,2016-03-23,12.0,True,48.5,-18.5,colocated,left
20,1733.3178,0,460,1105,2857,4205,501,8.5,200,0,1,1735.061,0,0,736412.598926074,23_03_2016 level23_spatial_Robin_cooling 13_53_33.895 log.txt,12.0,12.0,1509,2016-03-23,12.0,True,48.5,-18.5,colocated,left
35,1463.0892,1,460,1105,2857,4205,505,8.5,200,0,1,1468.7807,0,0,736379.693465245,19_02_2016 level23_spatial_Robin_cooling 16_14_12.308 log.txt,8.0,8.0,1509,2016-02-19,8.0,True,48.5,-18.5,colocated,left
49,1509.4034,0,730,2058,2857,4205,508,8.5,200,1,0,1510.7901,0,0,736414.726754484,25_03_2016 level23_spatial_Robin_cooling 17_01_22.184 log.txt,9.0,9.0,1509,2016-03-25,9.0,True,48.5,-18.5,colocated,left
52,1594.9781,0,730,2058,2857,4205,505,8.5,200,1,1,1596.6747,1,0,736379.694991737,19_02_2016 level23_spatial_Robin_cooling 16_14_12.308 log.txt,8.0,8.0,1509,2016-02-19,8.0,True,48.5,-18.5,colocated,left
52,1594.9781,0,730,2058,2857,4205,505,8.5,200,1,1,1596.6747,1,0,736379.694991737,19_02_2016 level23_spatial_Robin_cooling 16_14_12.308 log.txt,8.0,8.0,1509,2016-02-19,8.0,True,48.5,-18.5,colocated,left
49,1509.4034,0,730,2058,2857,4205,508,8.5,200,1,0,1510.7901,0,0,736414.726754484,25_03_2016 level23_spatial_Robin_cooling 17_01_22.184 log.txt,9.0,9.0,1509,2016-03-25,9.0,True,48.5,-18.5,colocated,left
52,1594.9781,0,730,2058,2857,4205,505,8.5,200,1,1,1596.6747,1,0,736379.694991737,19_02_2016 level23_spatial_Robin_cooling 16_14_12.308 log.txt,8.0,8.0,1509,2016-02-19,8.0,True,48.5,-18.5,colocated,left
88,2043.4013,0,730,2058,2857,4205,508,8.5,200,1,1,2045.0517,1,0,736413.732811716,24_03_2016 level23_spatial_Robin_cooling 17_01_11.531 log.txt,10.0,10.0,1509,2016-03-24,10.0,True,48.5,-18.5,colocated,left
88,2043.4013,0,730,2058,2857,4205,508,8.5,200,1,1,2045.0517,1,0,736413.732811716,24_03_2016 level23_spatial_Robin_cooling 17_01_11.531 log.txt,10.0,10.0,1509,2016-03-24,10.0,True,48.5,-18.5,colocated,left
3,1144.4608,0,460,1105,2857,4205,507,8.5,200,0,0,1147.0158,1,1,736379.689777417,19_02_2016 level23_spatial_Robin_cooling 16_14_12.308 log.txt,16.0,16.0,1509,2016-02-19,16.0,True,48.5,-18.5,colocated,right
18,1714.5974,0,460,1105,2857,4205,506,8.5,200,0,0,1716.019,1,1,736412.598709403,23_03_2016 level23_spatial_Robin_cooling 13_53_33.895 log.txt,12.0,12.0,1509,2016-03-23,12.0,True,48.5,-18.5,colocated,right
18,1714.5974,0,460,1105,2857,4205,506,8.5,200,0,0,1716.019,1,1,736412.598709403,23_03_2016 level23_spatial_Robin_cooling 13_53_33.895 log.txt,12.0,12.0,1509,2016-03-23,12.0,True,48.5,-18.5,colocated,right
18,1714.5974,0,460,1105,2857,4205,506,8.5,200,0,0,1716.019,1,1,736412.598709403,23_03_2016 level23_spatial_Robin_cooling 13_53_33.895 log.txt,12.0,12.0,1509,2016-03-23,12.0,True,48.5,-18.5,colocated,right
41,1398.2753,0,460,1105,2857,4205,510,8.5,200,0,1,1400.1214,0,1,736414.725468279,25_03_2016 level23_spatial_Robin_cooling 17_01_22.184 log.txt,10.0,10.0,1509,2016-03-25,10.0,True,48.5,-18.5,colocated,right
3,1144.4608,0,460,1105,2857,4205,507,8.5,200,0,0,1147.0158,1,1,736379.689777417,19_02_2016 level23_spatial_Robin_cooling 16_14_12.308 log.txt,16.0,16.0,1509,2016-02-19,16.0,True,48.5,-18.5,colocated,right
22,1396.1562,1,460,1105,2857,4205,504,8.5,200,0,0,1400.5815,1,1,736413.725320454,24_03_2016 level23_spatial_Robin_cooling 17_01_11.531 log.txt,10.0,10.0,1509,2016-03-24,10.0,True,48.5,-18.5,colocated,right
79,1499.1286,0,730,2058,2857,4205,509,8.5,200,1,0,1501.302,0,1,736406.738298988,17_03_2016 level23_spatial_Robin_cooling 17_18_09.904 log.txt,11.0,11.0,1509,2016-03-17,11.0,True,48.5,-18.5,colocated,right
79,1499.1286,0,730,2058,2857,4205,509,8.5,200,1,0,1501.302,0,1,736406.738298988,17_03_2016 level23_spatial_Robin_cooling 17_18_09.904 log.txt,11.0,11.0,1509,2016-03-17,11.0,True,48.5,-18.5,colocated,right
38,1541.6764,0,730,2058,2857,4205,505,8.5,200,1,1,1543.2465,1,1,736413.727004715,24_03_2016 level23_spatial_Robin_cooling 17_01_11.531 log.txt,10.0,10.0,1509,2016-03-24,10.0,True,48.5,-18.5,colocated,right
43,1524.8749,1,730,2058,2857,4205,504,8.5,200,1,1,1530.2258,1,1,736379.694180358,19_02_2016 level23_spatial_Robin_cooling 16_14_12.308 log.txt,8.0,8.0,1509,2016-02-19,8.0,True,48.5,-18.5,colocated,right
43,1524.8749,1,730,2058,2857,4205,504,8.5,200,1,1,1530.2258,1,1,736379.694180358,19_02_2016 level23_spatial_Robin_cooling 16_14_12.308 log.txt,8.0,8.0,1509,2016-02-19,8.0,True,48.5,-18.5,colocated,right
79,1499.1286,0,730,2058,2857,4205,509,8.5,200,1,0,1501.302,0,1,736406.738298988,17_03_2016 level23_spatial_Robin_cooling 17_18_09.904 log.txt,11.0,11.0,1509,2016-03-17,11.0,True,48.5,-18.5,colocated,right
38,1541.6764,0,730,2058,2857,4205,505,8.5,200,1,1,1543.2465,1,1,736413.727004715,24_03_2016 level23_spatial_Robin_cooling 17_01_11.531 log.txt,10.0,10.0,1509,2016-03-24,10.0,True,48.5,-18.5,colocated,right
52,1279.3115,0,460,1105,2857,4205,504,5.5,200,0,1,1280.9487,0,0,736406.735754809,17_03_2016 level23_spatial_Robin_cooling 17_18_09.904 log.txt,11.0,11.0,1509,2016-03-17,11.0,True,51.5,-15.5,colocated,left
13,1294.5655,1,460,1105,2857,4205,504,5.5,200,0,1,1300.0686,0,0,736413.724144635,24_03_2016 level23_spatial_Robin_cooling 17_01_11.531 log.txt,11.0,11.0,1509,2016-03-24,11.0,True,51.5,-15.5,colocated,left
26,1390.2178,0,460,1105,2857,4205,511,5.5,200,0,1,1391.8429,0,0,736379.692621826,19_02_2016 level23_spatial_Robin_cooling 16_14_12.308 log.txt,9.0,9.0,1509,2016-02-19,9.0,True,51.5,-15.5,colocated,left
44,444.6086,0,460,1105,2857,4205,503,5.5,200,0,0,445.7426,1,0,736411.707450435,22_03_2016 level23_spatial_Robin_cooling 16_51_19.109 log.txt,10.0,10.0,1509,2016-03-22,10.0,True,51.5,-15.5,colocated,left
26,1390.2178,0,460,1105,2857,4205,511,5.5,200,0,1,1391.8429,0,0,736379.692621826,19_02_2016 level23_spatial_Robin_cooling 16_14_12.308 log.txt,9.0,9.0,1509,2016-02-19,9.0,True,51.5,-15.5,colocated,left
13,1294.5655,1,460,1105,2857,4205,504,5.5,200,0,1,1300.0686,0,0,736413.724144635,24_03_2016 level23_spatial_Robin_cooling 17_01_11.531 log.txt,11.0,11.0,1509,2016-03-24,11.0,True,51.5,-15.5,colocated,left
13,1294.5655,1,460,1105,2857,4205,504,5.5,200,0,1,1300.0686,0,0,736413.724144635,24_03_2016 level23_spatial_Robin_cooling 17_01_11.531 log.txt,11.0,11.0,1509,2016-03-24,11.0,True,51.5,-15.5,colocated,left
56,543.7811,0,730,2058,2857,4205,501,5.5,200,1,0,545.2201,0,0,736411.708598265,22_03_2016 level23_spatial_Robin_cooling 16_51_19.109 log.txt,9.0,9.0,1509,2016-03-22,9.0,True,51.5,-15.5,colocated,left
98,2128.5388,1,730,2058,2857,4205,503,5.5,200,1,0,2131.9864,0,0,736413.733797104,24_03_2016 level23_spatial_Robin_cooling 17_01_11.531 log.txt,10.0,10.0,1509,2016-03-24,10.0,True,51.5,-15.5,colocated,left
98,2128.5388,1,730,2058,2857,4205,503,5.5,200,1,0,2131.9864,0,0,736413.733797104,24_03_2016 level23_spatial_Robin_cooling 17_01_11.531 log.txt,10.0,10.0,1509,2016-03-24,10.0,True,51.5,-15.5,colocated,left
89,1903.2647,0,730,2058,2857,4205,506,5.5,200,1,1,1904.6828,1,0,736379.698559869,19_02_2016 level23_spatial_Robin_cooling 16_14_12.308 log.txt,9.0,9.0,1509,2016-02-19,9.0,True,51.5,-15.5,colocated,left
89,1903.2647,0,730,2058,2857,4205,506,5.5,200,1,1,1904.6828,1,0,736379.698559869,19_02_2016 level23_spatial_Robin_cooling 16_14_12.308 log.txt,9.0,9.0,1509,2016-02-19,9.0,True,51.5,-15.5,colocated,left
56,543.7811,0,730,2058,2857,4205,501,5.5,200,1,0,545.2201,0,0,736411.708598265,22_03_2016 level23_spatial_Robin_cooling 16_51_19.109 log.txt,9.0,9.0,1509,2016-03-22,9.0,True,51.5,-15.5,colocated,left
33,1133.0217,1,730,2058,2857,4205,503,5.5,200,1,1,1136.7983,1,0,736406.73406164,17_03_2016 level23_spatial_Robin_cooling 17_18_09.904 log.txt,10.0,10.0,1509,2016-03-17,10.0,True,51.5,-15.5,colocated,left
71,783.2386,0,460,1105,2857,4205,506,5.5,200,0,1,786.7195,0,1,736411.711369764,22_03_2016 level23_spatial_Robin_cooling 16_51_19.109 log.txt,10.0,10.0,1509,2016-03-22,10.0,True,51.5,-15.5,colocated,right
100,2150.3212,0,460,1105,2857,4205,501,5.5,200,0,0,2152.0132,1,1,736413.734049215,24_03_2016 level23_spatial_Robin_cooling 17_01_11.531 log.txt,10.0,10.0,1509,2016-03-24,10.0,True,51.5,-15.5,colocated,right
8,958.0556,0,460,1105,2857,4205,509,5.5,200,0,0,959.2884,1,1,736406.732036569,17_03_2016 level23_spatial_Robin_cooling 17_18_09.904 log.txt,10.0,10.0,1509,2016-03-17,10.0,True,51.5,-15.5,colocated,right
77,1910.6736,1,460,1105,2857,4205,501,5.5,200,0,0,1915.5347,1,1,736413.731275516,24_03_2016 level23_spatial_Robin_cooling 17_01_11.531 log.txt,10.0,10.0,1509,2016-03-24,10.0,True,51.5,-15.5,colocated,right
8,958.0556,0,460,1105,2857,4205,509,5.5,200,0,0,959.2884,1,1,736406.732036569,17_03_2016 level23_spatial_Robin_cooling 17_18_09.904 log.txt,10.0,10.0,1509,2016-03-17,10.0,True,51.5,-15.5,colocated,right
77,1910.6736,1,460,1105,2857,4205,501,5.5,200,0,0,1915.5347,1,1,736413.731275516,24_03_2016 level23_spatial_Robin_cooling 17_01_11.531 log.txt,10.0,10.0,1509,2016-03-24,10.0,True,51.5,-15.5,colocated,right
8,958.0556,0,460,1105,2857,4205,509,5.5,200,0,0,959.2884,1,1,736406.732036569,17_03_2016 level23_spatial_Robin_cooling 17_18_09.904 log.txt,10.0,10.0,1509,2016-03-17,10.0,True,51.5,-15.5,colocated,right
42,423.2461,0,730,2058,2857,4205,505,5.5,200,1,1,429.0591,1,1,736411.707203184,22_03_2016 level23_spatial_Robin_cooling 16_51_19.109 log.txt,10.0,10.0,1509,2016-03-22,10.0,True,51.5,-15.5,colocated,right
34,1333.7639,1,730,2058,2857,4205,505,5.5,200,1,1,1339.9666,1,1,736414.724721619,25_03_2016 level23_spatial_Robin_cooling 17_01_22.184 log.txt,10.0,10.0,1509,2016-03-25,10.0,True,51.5,-15.5,colocated,right
34,1333.7639,1,730,2058,2857,4205,505,5.5,200,1,1,1339.9666,1,1,736414.724721619,25_03_2016 level23_spatial_Robin_cooling 17_01_22.184 log.txt,10.0,10.0,1509,2016-03-25,10.0,True,51.5,-15.5,colocated,right
2,1162.3018,0,730,2058,2857,4205,505,5.5,200,1,1,1168.1609,1,1,736413.722613806,24_03_2016 level23_spatial_Robin_cooling 17_01_11.531 log.txt,12.0,12.0,1509,2016-03-24,12.0,True,51.5,-15.5,colocated,right
2,1162.3018,0,730,2058,2857,4205,505,5.5,200,1,1,1168.1609,1,1,736413.722613806,24_03_2016 level23_spatial_Robin_cooling 17_01_11.531 log.txt,12.0,12.0,1509,2016-03-24,12.0,True,51.5,-15.5,colocated,right
42,423.2461,0,730,2058,2857,4205,505,5.5,200,1,1,429.0591,1,1,736411.707203184,22_03_2016 level23_spatial_Robin_cooling 16_51_19.109 log.txt,10.0,10.0,1509,2016-03-22,10.0,True,51.5,-15.5,colocated,right
34,1333.7639,1,730,2058,2857,4205,505,5.5,200,1,1,1339.9666,1,1,736414.724721619,25_03_2016 level23_spatial_Robin_cooling 17_01_22.184 log.txt,10.0,10.0,1509,2016-03-25,10.0,True,51.5,-15.5,colocated,right
43,1420.8131,0,460,1105,2857,4205,506,2.5,200,0,0,1422.2392,1,0,736357.702809642,28_01_2016 level23_spatial_Robin_cooling 16_28_21.940 log.txt,11.0,11.0,1509,2016-01-28,11.0,True,54.5,-12.5,colocated,left
35,1497.1301,1,460,1105,2857,4205,509,2.5,200,0,0,1501.8467,1,0,736350.702127964,21_01_2016 level23_spatial_Robin_cooling 16_26_06.726 log.txt,15.0,15.0,1509,2016-01-21,15.0,True,54.5,-12.5,colocated,left
35,1497.1301,1,460,1105,2857,4205,509,2.5,200,0,0,1501.8467,1,0,736350.702127964,21_01_2016 level23_spatial_Robin_cooling 16_26_06.726 log.txt,15.0,15.0,1509,2016-01-21,15.0,True,54.5,-12.5,colocated,left
43,1420.8131,0,460,1105,2857,4205,506,2.5,200,0,0,1422.2392,1,0,736357.702809642,28_01_2016 level23_spatial_Robin_cooling 16_28_21.940 log.txt,11.0,11.0,1509,2016-01-28,11.0,True,54.5,-12.5,colocated,left
82,1952.9053,1,460,1105,2857,4205,507,2.5,200,0,0,1957.4461,1,0,736413.731764309,24_03_2016 level23_spatial_Robin_cooling 17_01_11.531 log.txt,10.0,10.0,1509,2016-03-24,10.0,True,54.5,-12.5,colocated,left
19,1193.7783,1,460,1105,2857,4205,502,2.5,200,0,1,1199.2356,0,0,736414.723101415,25_03_2016 level23_spatial_Robin_cooling 17_01_22.184 log.txt,11.0,11.0,1509,2016-03-25,11.0,True,54.5,-12.5,colocated,left
42,1942.4885,0,460,1105,2857,4205,503,2.5,200,0,1,1944.5575,0,0,736412.601347031,23_03_2016 level23_spatial_Robin_cooling 13_53_33.895 log.txt,12.0,12.0,1509,2016-03-23,12.0,True,54.5,-12.5,colocated,left
42,1413.111,0,730,2058,2857,4205,504,2.5,200,1,1,1414.571,1,0,736357.702720498,28_01_2016 level23_spatial_Robin_cooling 16_28_21.940 log.txt,11.0,11.0,1509,2016-01-28,11.0,True,54.5,-12.5,colocated,left
22,168.5034,1,730,2058,2857,4205,506,2.5,200,1,1,199.0982,1,0,736405.669357401,16_03_2016 level23_spatial_Robin_cooling 16_01_03.976 log.txt,12.0,12.0,1509,2016-03-16,12.0,True,54.5,-12.5,colocated,left
42,1413.111,0,730,2058,2857,4205,504,2.5,200,1,1,1414.571,1,0,736357.702720498,28_01_2016 level23_spatial_Robin_cooling 16_28_21.940 log.txt,11.0,11.0,1509,2016-01-28,11.0,True,54.5,-12.5,colocated,left
93,2082.0133,0,730,2058,2857,4205,511,2.5,200,1,1,2083.6131,1,0,736413.733258615,24_03_2016 level23_spatial_Robin_cooling 17_01_11.531 log.txt,10.0,10.0,1509,2016-03-24,10.0,True,54.5,-12.5,colocated,left
33,1843.9766,0,730,2058,2857,4205,509,2.5,200,1,0,1845.1815,0,0,736412.600206847,23_03_2016 level23_spatial_Robin_cooling 13_53_33.895 log.txt,11.0,11.0,1509,2016-03-23,11.0,True,54.5,-12.5,colocated,left
66,1353.8859,1,730,2058,2857,4205,508,2.5,200,1,0,1358.9607,0,0,736355.722433946,26_01_2016 level23_spatial_Robin_cooling 16_57_44.407 log.txt,11.0,11.0,1509,2016-01-26,11.0,True,54.5,-12.5,colocated,left
33,1843.9766,0,730,2058,2857,4205,509,2.5,200,1,0,1845.1815,0,0,736412.600206847,23_03_2016 level23_spatial_Robin_cooling 13_53_33.895 log.txt,11.0,11.0,1509,2016-03-23,11.0,True,54.5,-12.5,colocated,left
63,1700.3699,0,460,1105,2857,4205,511,2.5,200,0,1,1702.1824,0,1,736414.728964744,25_03_2016 level23_spatial_Robin_cooling 17_01_22.184 log.txt,9.0,9.0,1509,2016-03-25,9.0,True,54.5,-12.5,colocated,right
63,1700.3699,0,460,1105,2857,4205,511,2.5,200,0,1,1702.1824,0,1,736414.728964744,25_03_2016 level23_spatial_Robin_cooling 17_01_22.184 log.txt,9.0,9.0,1509,2016-03-25,9.0,True,54.5,-12.5,colocated,right
63,1700.3699,0,460,1105,2857,4205,511,2.5,200,0,1,1702.1824,0,1,736414.728964744,25_03_2016 level23_spatial_Robin_cooling 17_01_22.184 log.txt,9.0,9.0,1509,2016-03-25,9.0,True,54.5,-12.5,colocated,right
69,1733.544,0,460,1105,2857,4205,502,2.5,200,0,0,1734.8359,1,1,736379.696595509,19_02_2016 level23_spatial_Robin_cooling 16_14_12.308 log.txt,8.0,8.0,1509,2016-02-19,8.0,True,54.5,-12.5,colocated,right
37,1898.9588,0,460,1105,2857,4205,502,2.5,200,0,1,1900.4812,0,1,736412.600843215,23_03_2016 level23_spatial_Robin_cooling 13_53_33.895 log.txt,12.0,12.0,1509,2016-03-23,12.0,True,54.5,-12.5,colocated,right
37,1898.9588,0,460,1105,2857,4205,502,2.5,200,0,1,1900.4812,0,1,736412.600843215,23_03_2016 level23_spatial_Robin_cooling 13_53_33.895 log.txt,12.0,12.0,1509,2016-03-23,12.0,True,54.5,-12.5,colocated,right
47,1613.9554,0,460,1105,2857,4205,501,2.5,200,0,1,1616.0509,0,1,736350.703480109,21_01_2016 level23_spatial_Robin_cooling 16_26_06.726 log.txt,13.0,13.0,1509,2016-01-21,13.0,True,54.5,-12.5,colocated,right
24,1003.3706,1,730,2058,2857,4205,509,2.5,200,1,0,1008.0041,0,1,736355.718377055,26_01_2016 level23_spatial_Robin_cooling 16_57_44.407 log.txt,18.1112044296699,18.1112044296699,1509,2016-01-26,18.1112044296699,True,54.5,-12.5,colocated,right
28,1097.9127,1,730,2058,2857,4205,505,2.5,200,1,1,1102.5802,1,1,736406.733655286,17_03_2016 level23_spatial_Robin_cooling 17_18_09.904 log.txt,10.0,10.0,1509,2016-03-17,10.0,True,54.5,-12.5,colocated,right
15,1292.3179,0,730,2058,2857,4205,503,2.5,200,1,1,1293.8007,1,1,736379.691488726,19_02_2016 level23_spatial_Robin_cooling 16_14_12.308 log.txt,10.3740997787166,10.3740997787166,1509,2016-02-19,10.3740997787166,True,54.5,-12.5,colocated,right
59,578.1242,0,730,2058,2857,4205,511,2.5,200,1,0,579.2783,0,1,736411.708995755,22_03_2016 level23_spatial_Robin_cooling 16_51_19.109 log.txt,9.0,9.0,1509,2016-03-22,9.0,True,54.5,-12.5,colocated,right
33,1339.4546,0,730,2058,2857,4205,509,2.5,200,1,1,1341.0638,1,1,736357.701867993,28_01_2016 level23_spatial_Robin_cooling 16_28_21.940 log.txt,12.0,12.0,1509,2016-01-28,12.0,True,54.5,-12.5,colocated,right
33,1339.4546,0,730,2058,2857,4205,509,2.5,200,1,1,1341.0638,1,1,736357.701867993,28_01_2016 level23_spatial_Robin_cooling 16_28_21.940 log.txt,12.0,12.0,1509,2016-01-28,12.0,True,54.5,-12.5,colocated,right
56,1703.3209,0,730,2058,2857,4205,502,2.5,200,1,1,1704.7044,1,1,736413.728875601,24_03_2016 level23_spatial_Robin_cooling 17_01_11.531 log.txt,10.0,10.0,1509,2016-03-24,10.0,True,54.5,-12.5,colocated,right
29,303.3821,0,460,1105,2857,4205,511,-0.5,200,0,1,305.0868,0,0,736411.705815869,22_03_2016 level23_spatial_Robin_cooling 16_51_19.109 log.txt,10.0,10.0,1509,2016-03-22,10.0,True,57.5,-9.5,colocated,left
73,1435.456,0,460,1105,2857,4205,511,-0.5,200,0,0,1438.1012,1,0,736406.737562037,17_03_2016 level23_spatial_Robin_cooling 17_18_09.904 log.txt,11.0,11.0,1509,2016-03-17,11.0,True,57.5,-9.5,colocated,left
19,1322.9578,0,460,1105,2857,4205,507,-0.5,200,0,1,1324.4042,0,0,736379.691843354,19_02_2016 level23_spatial_Robin_cooling 16_14_12.308 log.txt,10.0,10.0,1509,2016-02-19,10.0,True,57.5,-9.5,colocated,left
20,524.4035,0,460,1105,2857,4205,508,-0.5,200,0,0,525.8265,1,0,736404.682780492,15_03_2016 level23_spatial_Robin_cooling 16_14_27.831 log.txt,9.0,9.0,1509,2016-03-15,9.0,True,57.5,-9.5,colocated,left
26,1439.5146,0,460,1105,2857,4205,505,-0.5,200,0,1,1441.4396,0,0,736413.725822287,24_03_2016 level23_spatial_Robin_cooling 17_01_11.531 log.txt,10.0,10.0,1509,2016-03-24,10.0,True,57.5,-9.5,colocated,left
20,524.4035,0,460,1105,2857,4205,508,-0.5,200,0,0,525.8265,1,0,736404.682780492,15_03_2016 level23_spatial_Robin_cooling 16_14_27.831 log.txt,9.0,9.0,1509,2016-03-15,9.0,True,57.5,-9.5,colocated,left
38,1376.758,1,460,1105,2857,4205,504,-0.5,200,0,0,1380.7303,1,0,736357.702299745,28_01_2016 level23_spatial_Robin_cooling 16_28_21.940 log.txt,12.0,12.0,1509,2016-01-28,12.0,True,57.5,-9.5,colocated,left
44,1584.1067,1,730,2058,2857,4205,502,-0.5,200,1,0,1589.3404,0,0,736350.703134638,21_01_2016 level23_spatial_Robin_cooling 16_26_06.726 log.txt,14.0,14.0,1509,2016-01-21,14.0,True,57.5,-9.5,colocated,left
36,658.4922,0,730,2058,2857,4205,502,-0.5,200,1,1,660.4018,1,0,736404.684332444,15_03_2016 level23_spatial_Robin_cooling 16_14_27.831 log.txt,9.0,9.0,1509,2016-03-15,9.0,True,57.5,-9.5,colocated,left
13,909.0741,0,730,2058,2857,4205,501,-0.5,200,1,0,910.9558,0,0,736364.696620973,04_02_2016 level23_spatial_Robin_cooling 16_27_58.978 log.txt,20.0,20.0,1509,2016-02-04,20.0,True,57.5,-9.5,colocated,left
5,936.9782,0,730,2058,2857,4205,506,-0.5,200,1,0,938.5266,0,0,736406.731792618,17_03_2016 level23_spatial_Robin_cooling 17_18_09.904 log.txt,10.0,10.0,1509,2016-03-17,10.0,True,57.5,-9.5,colocated,left
64,1330.5507,1,730,2058,2857,4205,510,-0.5,200,1,0,1335.1739,0,0,736355.722163862,26_01_2016 level23_spatial_Robin_cooling 16_57_44.407 log.txt,11.0,11.0,1509,2016-01-26,11.0,True,57.5,-9.5,colocated,left
32,1837.3422,0,730,2058,2857,4205,510,-0.5,200,1,1,1838.9623,1,0,736412.60013006,23_03_2016 level23_spatial_Robin_cooling 13_53_33.895 log.txt,11.0,11.0,1509,2016-03-23,11.0,True,57.5,-9.5,colocated,left
6,1187.0947,0,730,2058,2857,4205,502,-0.5,200,1,0,1188.8302,0,0,736379.690270865,19_02_2016 level23_spatial_Robin_cooling 16_14_12.308 log.txt,15.0,15.0,1509,2016-02-19,15.0,True,57.5,-9.5,colocated,left
2,981.4697,0,460,1105,2857,4205,502,-0.5,200,0,0,982.9238,1,1,736414.72064414,25_03_2016 level23_spatial_Robin_cooling 17_01_22.184 log.txt,11.0,11.0,1509,2016-03-25,11.0,True,57.5,-9.5,colocated,right
2,981.4697,0,460,1105,2857,4205,502,-0.5,200,0,0,982.9238,1,1,736414.72064414,25_03_2016 level23_spatial_Robin_cooling 17_01_22.184 log.txt,11.0,11.0,1509,2016-03-25,11.0,True,57.5,-9.5,colocated,right
59,1732.0713,0,460,1105,2857,4205,507,-0.5,200,0,1,1734.2736,0,1,736413.72920836,24_03_2016 level23_spatial_Robin_cooling 17_01_11.531 log.txt,10.0,10.0,1509,2016-03-24,10.0,True,57.5,-9.5,colocated,right
67,1402.1131,0,460,1105,2857,4205,504,-0.5,200,0,1,1403.9738,0,1,736351.723065024,22_01_2016 level23_spatial_Robin_cooling 16_57_50.705 log.txt,10.0,10.0,1509,2016-01-22,10.0,True,57.5,-9.5,colocated,right
67,1402.1131,0,460,1105,2857,4205,504,-0.5,200,0,1,1403.9738,0,1,736351.723065024,22_01_2016 level23_spatial_Robin_cooling 16_57_50.705 log.txt,10.0,10.0,1509,2016-01-22,10.0,True,57.5,-9.5,colocated,right
59,860.4635,0,460,1105,2857,4205,510,-0.5,200,0,0,861.8261,1,1,736404.686670075,15_03_2016 level23_spatial_Robin_cooling 16_14_27.831 log.txt,10.0,10.0,1509,2016-03-15,10.0,True,57.5,-9.5,colocated,right
59,860.4635,0,460,1105,2857,4205,510,-0.5,200,0,0,861.8261,1,1,736404.686670075,15_03_2016 level23_spatial_Robin_cooling 16_14_27.831 log.txt,10.0,10.0,1509,2016-03-15,10.0,True,57.5,-9.5,colocated,right
25,1433.2348,0,730,2058,2857,4205,503,-0.5,200,1,1,1434.8616,1,1,736413.725749604,24_03_2016 level23_spatial_Robin_cooling 17_01_11.531 log.txt,10.0,10.0,1509,2016-03-24,10.0,True,57.5,-9.5,colocated,right
25,1433.2348,0,730,2058,2857,4205,503,-0.5,200,1,1,1434.8616,1,1,736413.725749604,24_03_2016 level23_spatial_Robin_cooling 17_01_11.531 log.txt,10.0,10.0,1509,2016-03-24,10.0,True,57.5,-9.5,colocated,right
94,1661.515,0,730,2058,2857,4205,511,-0.5,200,1,1,1663.2458,1,1,736355.725994468,26_01_2016 level23_spatial_Robin_cooling 16_57_44.407 log.txt,10.0,10.0,1509,2016-01-26,10.0,True,57.5,-9.5,colocated,right
2,349.2419,0,730,2058,2857,4205,508,-0.5,200,1,1,351.3985,1,1,736404.680753159,15_03_2016 level23_spatial_Robin_cooling 16_14_27.831 log.txt,11.0,11.0,1509,2016-03-15,11.0,True,57.5,-9.5,colocated,right
2,349.2419,0,730,2058,2857,4205,508,-0.5,200,1,1,351.3985,1,1,736404.680753159,15_03_2016 level23_spatial_Robin_cooling 16_14_27.831 log.txt,11.0,11.0,1509,2016-03-15,11.0,True,57.5,-9.5,colocated,right
60,1675.0082,0,730,2058,2857,4205,508,-0.5,200,1,1,1677.1319,1,1,736414.728671206,25_03_2016 level23_spatial_Robin_cooling 17_01_22.184 log.txt,9.0,9.0,1509,2016-03-25,9.0,True,57.5,-9.5,colocated,right
96,1950.6522,0,730,2058,2857,4205,505,-0.5,200,1,0,1952.8135,0,1,736379.699108336,19_02_2016 level23_spatial_Robin_cooling 16_14_12.308 log.txt,9.0,9.0,1509,2016-02-19,9.0,True,57.5,-9.5,colocated,right
40,1188.7803,0,460,1105,2857,4205,502,-3.5,200,0,0,1189.9852,1,0,736406.734706994,17_03_2016 level23_spatial_Robin_cooling 17_18_09.904 log.txt,10.0,10.0,1509,2016-03-17,10.0,True,60.5,-6.5,colocated,left
40,1188.7803,0,460,1105,2857,4205,502,-3.5,200,0,0,1189.9852,1,0,736406.734706994,17_03_2016 level23_spatial_Robin_cooling 17_18_09.904 log.txt,10.0,10.0,1509,2016-03-17,10.0,True,60.5,-6.5,colocated,left
40,1188.7803,0,460,1105,2857,4205,502,-3.5,200,0,0,1189.9852,1,0,736406.734706994,17_03_2016 level23_spatial_Robin_cooling 17_18_09.904 log.txt,10.0,10.0,1509,2016-03-17,10.0,True,60.5,-6.5,colocated,left
31,1483.2379,0,460,1105,2857,4205,501,-3.5,200,0,1,1484.9311,0,0,736413.726328344,24_03_2016 level23_spatial_Robin_cooling 17_01_11.531 log.txt,10.0,10.0,1509,2016-03-24,10.0,True,60.5,-6.5,colocated,left
31,1483.2379,0,460,1105,2857,4205,501,-3.5,200,0,1,1484.9311,0,0,736413.726328344,24_03_2016 level23_spatial_Robin_cooling 17_01_11.531 log.txt,10.0,10.0,1509,2016-03-24,10.0,True,60.5,-6.5,colocated,left
1,1130.0483,0,460,1105,2857,4205,506,-3.5,200,0,1,1131.7465,0,0,736379.689610605,19_02_2016 level23_spatial_Robin_cooling 16_14_12.308 log.txt,17.0,17.0,1509,2016-02-19,17.0,True,60.5,-6.5,colocated,left
31,1483.2379,0,460,1105,2857,4205,501,-3.5,200,0,1,1484.9311,0,0,736413.726328344,24_03_2016 level23_spatial_Robin_cooling 17_01_11.531 log.txt,10.0,10.0,1509,2016-03-24,10.0,True,60.5,-6.5,colocated,left
47,1480.6581,0,730,2058,2857,4205,509,-3.5,200,1,1,1492.4294,1,0,736414.726421784,25_03_2016 level23_spatial_Robin_cooling 17_01_22.184 log.txt,10.0,10.0,1509,2016-03-25,10.0,True,60.5,-6.5,colocated,left
47,1480.6581,0,730,2058,2857,4205,509,-3.5,200,1,1,1492.4294,1,0,736414.726421784,25_03_2016 level23_spatial_Robin_cooling 17_01_22.184 log.txt,10.0,10.0,1509,2016-03-25,10.0,True,60.5,-6.5,colocated,left
28,1296.4983,1,730,2058,2857,4205,502,-3.5,200,1,1,1300.308,1,0,736357.701370814,28_01_2016 level23_spatial_Robin_cooling 16_28_21.940 log.txt,13.0,13.0,1509,2016-01-28,13.0,True,60.5,-6.5,colocated,left
77,1795.4616,0,730,2058,2857,4205,506,-3.5,200,1,1,1797.4257,1,0,736379.697312148,19_02_2016 level23_spatial_Robin_cooling 16_14_12.308 log.txt,8.0,8.0,1509,2016-02-19,8.0,True,60.5,-6.5,colocated,left
64,1768.5912,0,730,2058,2857,4205,510,-3.5,200,1,1,1770.6017,1,0,736350.705269875,21_01_2016 level23_spatial_Robin_cooling 16_26_06.726 log.txt,11.0,11.0,1509,2016-01-21,11.0,True,60.5,-6.5,colocated,left
77,1795.4616,0,730,2058,2857,4205,506,-3.5,200,1,1,1797.4257,1,0,736379.697312148,19_02_2016 level23_spatial_Robin_cooling 16_14_12.308 log.txt,8.0,8.0,1509,2016-02-19,8.0,True,60.5,-6.5,colocated,left
77,1795.4616,0,730,2058,2857,4205,506,-3.5,200,1,1,1797.4257,1,0,736379.697312148,19_02_2016 level23_spatial_Robin_cooling 16_14_12.308 log.txt,8.0,8.0,1509,2016-02-19,8.0,True,60.5,-6.5,colocated,left
4,1190.8516,0,460,1105,2857,4205,503,-3.5,200,0,0,1195.7402,1,1,736413.722944243,24_03_2016 level23_spatial_Robin_cooling 17_01_11.531 log.txt,11.0,11.0,1509,2016-03-24,11.0,True,60.5,-6.5,colocated,right
60,512.4968,0,460,1105,2857,4205,503,-3.5,200,0,1,514.8134,0,1,736377.670363736,17_02_2016 level23_spatial_Robin_cooling 15_56_46.930 log.txt,11.0,11.0,1509,2016-02-17,11.0,True,60.5,-6.5,colocated,right
60,512.4968,0,460,1105,2857,4205,503,-3.5,200,0,1,514.8134,0,1,736377.670363736,17_02_2016 level23_spatial_Robin_cooling 15_56_46.930 log.txt,11.0,11.0,1509,2016-02-17,11.0,True,60.5,-6.5,colocated,right
35,1878.8286,1,460,1105,2857,4205,505,-3.5,200,0,1,1883.6378,0,1,736412.600610227,23_03_2016 level23_spatial_Robin_cooling 13_53_33.895 log.txt,11.0,11.0,1509,2016-03-23,11.0,True,60.5,-6.5,colocated,right
60,512.4968,0,460,1105,2857,4205,503,-3.5,200,0,1,514.8134,0,1,736377.670363736,17_02_2016 level23_spatial_Robin_cooling 15_56_46.930 log.txt,11.0,11.0,1509,2016-02-17,11.0,True,60.5,-6.5,colocated,right
34,1344.7529,0,460,1105,2857,4205,505,-3.5,200,0,0,1346.4398,1,1,736357.701929316,28_01_2016 level23_spatial_Robin_cooling 16_28_21.940 log.txt,12.0,12.0,1509,2016-01-28,12.0,True,60.5,-6.5,colocated,right
4,1190.8516,0,460,1105,2857,4205,503,-3.5,200,0,0,1195.7402,1,1,736413.722944243,24_03_2016 level23_spatial_Robin_cooling 17_01_11.531 log.txt,11.0,11.0,1509,2016-03-24,11.0,True,60.5,-6.5,colocated,right
76,1437.6408,0,730,2058,2857,4205,509,-3.5,200,1,0,1439.0329,0,1,736355.723403331,26_01_2016 level23_spatial_Robin_cooling 16_57_44.407 log.txt,11.0,11.0,1509,2016-01-26,11.0,True,60.5,-6.5,colocated,right
79,1930.9462,0,730,2058,2857,4205,503,-3.5,200,1,1,1932.3352,1,1,736413.731510153,24_03_2016 level23_spatial_Robin_cooling 17_01_11.531 log.txt,10.0,10.0,1509,2016-03-24,10.0,True,60.5,-6.5,colocated,right
76,1437.6408,0,730,2058,2857,4205,509,-3.5,200,1,0,1439.0329,0,1,736355.723403331,26_01_2016 level23_spatial_Robin_cooling 16_57_44.407 log.txt,11.0,11.0,1509,2016-01-26,11.0,True,60.5,-6.5,colocated,right
42,1518.6115,0,730,2058,2857,4205,509,-3.5,200,1,1,1520.2402,1,1,736379.694107865,19_02_2016 level23_spatial_Robin_cooling 16_14_12.308 log.txt,8.0,8.0,1509,2016-02-19,8.0,True,60.5,-6.5,colocated,right
79,1930.9462,0,730,2058,2857,4205,503,-3.5,200,1,1,1932.3352,1,1,736413.731510153,24_03_2016 level23_spatial_Robin_cooling 17_01_11.531 log.txt,10.0,10.0,1509,2016-03-24,10.0,True,60.5,-6.5,colocated,right
17,1204.3695,0,730,2058,2857,4205,501,-3.5,200,1,0,1206.1612,0,1,736357.700304508,28_01_2016 level23_spatial_Robin_cooling 16_28_21.940 log.txt,16.0,16.0,1509,2016-01-28,16.0,True,60.5,-6.5,colocated,right
15,1686.7947,0,730,2058,2857,4205,501,-3.5,200,1,1,1688.7056,1,1,736412.598387612,23_03_2016 level23_spatial_Robin_cooling 13_53_33.895 log.txt,12.0,12.0,1509,2016-03-23,12.0,True,60.5,-6.5,colocated,right
62,1693.1072,0,460,1105,2857,4205,510,-6.5,200,0,0,1694.4995,1,0,736414.728880685,25_03_2016 level23_spatial_Robin_cooling 17_01_22.184 log.txt,9.0,9.0,1509,2016-03-25,9.0,True,63.5,-3.5,colocated,left
33,1442.9533,1,460,1105,2857,4205,510,-6.5,200,0,0,1448.2901,1,0,736379.693232191,19_02_2016 level23_spatial_Robin_cooling 16_14_12.308 log.txt,8.0,8.0,1509,2016-02-19,8.0,True,63.5,-3.5,colocated,left
31,285.5994,1,460,1105,2857,4205,511,-6.5,200,0,0,289.7673,1,0,736377.667737609,17_02_2016 level23_spatial_Robin_cooling 15_56_46.930 log.txt,11.0,11.0,1509,2016-02-17,11.0,True,63.5,-3.5,colocated,left
67,1375.803,0,460,1105,2857,4205,506,-6.5,200,0,0,1377.026,1,0,736406.736871609,17_03_2016 level23_spatial_Robin_cooling 17_18_09.904 log.txt,11.0,11.0,1509,2016-03-17,11.0,True,63.5,-3.5,colocated,left
41,1177.458,1,460,1105,2857,4205,503,-6.5,200,0,0,1181.7898,1,0,736351.720464849,22_01_2016 level23_spatial_Robin_cooling 16_57_50.705 log.txt,13.0,13.0,1509,2016-01-22,13.0,True,63.5,-3.5,colocated,left
33,1442.9533,1,460,1105,2857,4205,510,-6.5,200,0,0,1448.2901,1,0,736379.693232191,19_02_2016 level23_spatial_Robin_cooling 16_14_12.308 log.txt,8.0,8.0,1509,2016-02-19,8.0,True,63.5,-3.5,colocated,left
67,1795.7023,1,460,1105,2857,4205,508,-6.5,200,0,1,1801.1362,0,0,736350.705583661,21_01_2016 level23_spatial_Robin_cooling 16_26_06.726 log.txt,11.0,11.0,1509,2016-01-21,11.0,True,63.5,-3.5,colocated,left
23,1410.4007,0,730,2058,2857,4205,502,-6.5,200,1,1,1412.5477,1,0,736413.725485321,24_03_2016 level23_spatial_Robin_cooling 17_01_11.531 log.txt,10.0,10.0,1509,2016-03-24,10.0,True,63.5,-3.5,colocated,left
32,1089.2024,0,730,2058,2857,4205,501,-6.5,200,1,1,1090.7942,1,0,736351.719443373,22_01_2016 level23_spatial_Robin_cooling 16_57_50.705 log.txt,14.0,14.0,1509,2016-01-22,14.0,True,63.5,-3.5,colocated,left
14,1002.7005,0,730,2058,2857,4205,510,-6.5,200,1,1,1004.2188,1,0,736406.732553293,17_03_2016 level23_spatial_Robin_cooling 17_18_09.904 log.txt,10.0,10.0,1509,2016-03-17,10.0,True,63.5,-3.5,colocated,left
32,1084.1459,0,730,2058,2857,4205,504,-6.5,200,1,1,1085.9174,1,0,736364.698647267,04_02_2016 level23_spatial_Robin_cooling 16_27_58.978 log.txt,16.0,16.0,1509,2016-02-04,16.0,True,63.5,-3.5,colocated,left
40,1538.5233,1,730,2058,2857,4205,503,-6.5,200,1,0,1542.7451,0,0,736350.702607052,21_01_2016 level23_spatial_Robin_cooling 16_26_06.726 log.txt,14.0,14.0,1509,2016-01-21,14.0,True,63.5,-3.5,colocated,left
40,1538.5233,1,730,2058,2857,4205,503,-6.5,200,1,0,1542.7451,0,0,736350.702607052,21_01_2016 level23_spatial_Robin_cooling 16_26_06.726 log.txt,14.0,14.0,1509,2016-01-21,14.0,True,63.5,-3.5,colocated,left
32,1089.2024,0,730,2058,2857,4205,501,-6.5,200,1,1,1090.7942,1,0,736351.719443373,22_01_2016 level23_spatial_Robin_cooling 16_57_50.705 log.txt,14.0,14.0,1509,2016-01-22,14.0,True,63.5,-3.5,colocated,left
27,1286.3147,1,460,1105,2857,4205,509,-6.5,200,0,0,1290.3664,1,1,736357.701252948,28_01_2016 level23_spatial_Robin_cooling 16_28_21.940 log.txt,13.0,13.0,1509,2016-01-28,13.0,True,63.5,-3.5,colocated,right
14,478.3097,0,460,1105,2857,4205,507,-6.5,200,0,0,479.5857,1,1,736404.682246999,15_03_2016 level23_spatial_Robin_cooling 16_14_27.831 log.txt,10.0,10.0,1509,2016-03-15,10.0,True,63.5,-3.5,colocated,right
42,1146.7106,0,460,1105,2857,4205,511,-6.5,200,0,1,1148.5247,0,1,736355.720036083,26_01_2016 level23_spatial_Robin_cooling 16_57_44.407 log.txt,14.0,14.0,1509,2016-01-26,14.0,True,63.5,-3.5,colocated,right
54,1295.4406,0,460,1105,2857,4205,505,-6.5,200,0,0,1296.7709,1,1,736406.735941488,17_03_2016 level23_spatial_Robin_cooling 17_18_09.904 log.txt,11.0,11.0,1509,2016-03-17,11.0,True,63.5,-3.5,colocated,right
73,812.6217,0,460,1105,2857,4205,509,-6.5,200,0,1,814.6335,0,1,736411.711709846,22_03_2016 level23_spatial_Robin_cooling 16_51_19.109 log.txt,10.0,10.0,1509,2016-03-22,10.0,True,63.5,-3.5,colocated,right
34,1452.9071,1,460,1105,2857,4205,511,-6.5,200,0,0,1458.6318,1,1,736379.693347397,19_02_2016 level23_spatial_Robin_cooling 16_14_12.308 log.txt,8.0,8.0,1509,2016-02-19,8.0,True,63.5,-3.5,colocated,right
34,1452.9071,1,460,1105,2857,4205,511,-6.5,200,0,0,1458.6318,1,1,736379.693347397,19_02_2016 level23_spatial_Robin_cooling 16_14_12.308 log.txt,8.0,8.0,1509,2016-02-19,8.0,True,63.5,-3.5,colocated,right
23,1353.3301,1,730,2058,2857,4205,508,-6.5,200,1,0,1359.3702,0,1,736379.692194885,19_02_2016 level23_spatial_Robin_cooling 16_14_12.308 log.txt,9.0,9.0,1509,2016-02-19,9.0,True,63.5,-3.5,colocated,right
15,1315.2791,1,730,2058,2857,4205,506,-6.5,200,1,0,1320.0607,0,1,736413.724384376,24_03_2016 level23_spatial_Robin_cooling 17_01_11.531 log.txt,11.0,11.0,1509,2016-03-24,11.0,True,63.5,-3.5,colocated,right
99,802.0112,0,730,2058,2857,4205,511,-6.5,200,1,1,803.5167,1,1,736377.673714597,17_02_2016 level23_spatial_Robin_cooling 15_56_46.930 log.txt,11.0,11.0,1509,2016-02-17,11.0,True,63.5,-3.5,colocated,right
22,994.0043,0,730,2058,2857,4205,502,-6.5,200,1,1,995.8478,1,1,736364.697603962,04_02_2016 level23_spatial_Robin_cooling 16_27_58.978 log.txt,17.0,17.0,1509,2016-02-04,17.0,True,63.5,-3.5,colocated,right
99,802.0112,0,730,2058,2857,4205,511,-6.5,200,1,1,803.5167,1,1,736377.673714597,17_02_2016 level23_spatial_Robin_cooling 15_56_46.930 log.txt,11.0,11.0,1509,2016-02-17,11.0,True,63.5,-3.5,colocated,right
15,1315.2791,1,730,2058,2857,4205,506,-6.5,200,1,0,1320.0607,0,1,736413.724384376,24_03_2016 level23_spatial_Robin_cooling 17_01_11.531 log.txt,11.0,11.0,1509,2016-03-24,11.0,True,63.5,-3.5,colocated,right
45,1444.0015,0,730,2058,2857,4205,505,-6.5,200,1,1,1445.5112,1,1,736357.703078027,28_01_2016 level23_spatial_Robin_cooling 16_28_21.940 log.txt,10.0,10.0,1509,2016-01-28,10.0,True,63.5,-3.5,colocated,right
25,242.7454,0,460,1105,2857,4205,511,-9.5,200,0,1,245.0277,0,0,736377.667241613,17_02_2016 level23_spatial_Robin_cooling 15_56_46.930 log.txt,11.0,11.0,1509,2016-02-17,11.0,True,66.5,-0.5,colocated,left
11,1150.3154,0,460,1105,2857,4205,507,-9.5,200,0,0,1151.8275,1,0,736357.699678882,28_01_2016 level23_spatial_Robin_cooling 16_28_21.940 log.txt,20.0,20.0,1509,2016-01-28,20.0,True,66.5,-0.5,colocated,left
25,242.7454,0,460,1105,2857,4205,511,-9.5,200,0,1,245.0277,0,0,736377.667241613,17_02_2016 level23_spatial_Robin_cooling 15_56_46.930 log.txt,11.0,11.0,1509,2016-02-17,11.0,True,66.5,-0.5,colocated,left
7,402.7617,0,460,1105,2857,4205,509,-9.5,200,0,1,405.7571,0,0,736404.681372601,15_03_2016 level23_spatial_Robin_cooling 16_14_27.831 log.txt,10.0,10.0,1509,2016-03-15,10.0,True,66.5,-0.5,colocated,left
25,242.7454,0,460,1105,2857,4205,511,-9.5,200,0,1,245.0277,0,0,736377.667241613,17_02_2016 level23_spatial_Robin_cooling 15_56_46.930 log.txt,11.0,11.0,1509,2016-02-17,11.0,True,66.5,-0.5,colocated,left
7,402.7617,0,460,1105,2857,4205,509,-9.5,200,0,1,405.7571,0,0,736404.681372601,15_03_2016 level23_spatial_Robin_cooling 16_14_27.831 log.txt,10.0,10.0,1509,2016-03-15,10.0,True,66.5,-0.5,colocated,left
7,402.7617,0,460,1105,2857,4205,509,-9.5,200,0,1,405.7571,0,0,736404.681372601,15_03_2016 level23_spatial_Robin_cooling 16_14_27.831 log.txt,10.0,10.0,1509,2016-03-15,10.0,True,66.5,-0.5,colocated,left
83,1516.708,0,730,2058,2857,4205,507,-9.5,200,1,1,1518.4044,1,0,736355.724318461,26_01_2016 level23_spatial_Robin_cooling 16_57_44.407 log.txt,10.0,10.0,1509,2016-01-26,10.0,True,66.5,-0.5,colocated,left
58,1718.8984,0,730,2058,2857,4205,502,-9.5,200,1,0,1747.4642,0,0,736357.706259704,28_01_2016 level23_spatial_Robin_cooling 16_28_21.940 log.txt,10.0,10.0,1509,2016-01-28,10.0,True,66.5,-0.5,colocated,left
58,1718.8984,0,730,2058,2857,4205,502,-9.5,200,1,0,1747.4642,0,0,736357.706259704,28_01_2016 level23_spatial_Robin_cooling 16_28_21.940 log.txt,10.0,10.0,1509,2016-01-28,10.0,True,66.5,-0.5,colocated,left
19,194.0444,0,730,2058,2857,4205,501,-9.5,200,1,1,195.4464,1,0,736377.666677944,17_02_2016 level23_spatial_Robin_cooling 15_56_46.930 log.txt,12.0,12.0,1509,2016-02-17,12.0,True,66.5,-0.5,colocated,left
19,194.0444,0,730,2058,2857,4205,501,-9.5,200,1,1,195.4464,1,0,736377.666677944,17_02_2016 level23_spatial_Robin_cooling 15_56_46.930 log.txt,12.0,12.0,1509,2016-02-17,12.0,True,66.5,-0.5,colocated,left
83,1516.708,0,730,2058,2857,4205,507,-9.5,200,1,1,1518.4044,1,0,736355.724318461,26_01_2016 level23_spatial_Robin_cooling 16_57_44.407 log.txt,10.0,10.0,1509,2016-01-26,10.0,True,66.5,-0.5,colocated,left
18,507.9205,1,730,2058,2857,4205,505,-9.5,200,1,0,512.4485,0,0,736404.682589716,15_03_2016 level23_spatial_Robin_cooling 16_14_27.831 log.txt,9.24850130758399,9.24850130758399,1509,2016-03-15,9.24850130758399,True,66.5,-0.5,colocated,left
72,1842.2768,0,460,1105,2857,4205,507,-9.5,200,0,0,1844.8004,1,1,736350.706122718,21_01_2016 level23_spatial_Robin_cooling 16_26_06.726 log.txt,11.0,11.0,1509,2016-01-21,11.0,True,66.5,-0.5,colocated,right
20,982.8153,0,460,1105,2857,4205,508,-9.5,200,0,1,983.9196,0,1,736364.697474459,04_02_2016 level23_spatial_Robin_cooling 16_27_58.978 log.txt,17.0,17.0,1509,2016-02-04,17.0,True,66.5,-0.5,colocated,right
11,128.9022,0,460,1105,2857,4205,503,-9.5,200,0,0,129.994,1,1,736377.665923984,17_02_2016 level23_spatial_Robin_cooling 15_56_46.930 log.txt,12.0,12.0,1509,2016-02-17,12.0,True,66.5,-0.5,colocated,right
20,982.8153,0,460,1105,2857,4205,508,-9.5,200,0,1,983.9196,0,1,736364.697474459,04_02_2016 level23_spatial_Robin_cooling 16_27_58.978 log.txt,17.0,17.0,1509,2016-02-04,17.0,True,66.5,-0.5,colocated,right
11,128.9022,0,460,1105,2857,4205,503,-9.5,200,0,0,129.994,1,1,736377.665923984,17_02_2016 level23_spatial_Robin_cooling 15_56_46.930 log.txt,12.0,12.0,1509,2016-02-17,12.0,True,66.5,-0.5,colocated,right
52,792.4208,0,460,1105,2857,4205,511,-9.5,200,0,1,794.2819,0,1,736404.685882544,15_03_2016 level23_spatial_Robin_cooling 16_14_27.831 log.txt,10.0,10.0,1509,2016-03-15,10.0,True,66.5,-0.5,colocated,right
27,1031.3874,1,460,1105,2857,4205,508,-9.5,200,0,0,1036.3308,1,1,736355.718701324,26_01_2016 level23_spatial_Robin_cooling 16_57_44.407 log.txt,18.0,18.0,1509,2016-01-26,18.0,True,66.5,-0.5,colocated,right
49,1198.5827,0,730,2058,2857,4205,509,-9.5,200,1,1,1200.0409,1,1,736355.720636455,26_01_2016 level23_spatial_Robin_cooling 16_57_44.407 log.txt,14.0,14.0,1509,2016-01-26,14.0,True,66.5,-0.5,colocated,right
14,150.5096,0,730,2058,2857,4205,504,-9.5,200,1,1,151.9477,1,1,736377.66617407,17_02_2016 level23_spatial_Robin_cooling 15_56_46.930 log.txt,12.0,12.0,1509,2016-02-17,12.0,True,66.5,-0.5,colocated,right
37,1368.0908,1,730,2058,2857,4205,510,-9.5,200,1,1,1371.9146,1,1,736357.702199431,28_01_2016 level23_spatial_Robin_cooling 16_28_21.940 log.txt,12.0,12.0,1509,2016-01-28,12.0,True,66.5,-0.5,colocated,right
37,1368.0908,1,730,2058,2857,4205,510,-9.5,200,1,1,1371.9146,1,1,736357.702199431,28_01_2016 level23_spatial_Robin_cooling 16_28_21.940 log.txt,12.0,12.0,1509,2016-01-28,12.0,True,66.5,-0.5,colocated,right
14,150.5096,0,730,2058,2857,4205,504,-9.5,200,1,1,151.9477,1,1,736377.66617407,17_02_2016 level23_spatial_Robin_cooling 15_56_46.930 log.txt,12.0,12.0,1509,2016-02-17,12.0,True,66.5,-0.5,colocated,right
49,1198.5827,0,730,2058,2857,4205,509,-9.5,200,1,1,1200.0409,1,1,736355.720636455,26_01_2016 level23_spatial_Robin_cooling 16_57_44.407 log.txt,14.0,14.0,1509,2016-01-26,14.0,True,66.5,-0.5,colocated,right
37,1368.0908,1,730,2058,2857,4205,510,-9.5,200,1,1,1371.9146,1,1,736357.702199431,28_01_2016 level23_spatial_Robin_cooling 16_28_21.940 log.txt,12.0,12.0,1509,2016-01-28,12.0,True,66.5,-0.5,colocated,right
98,2084.6608,0,460,1105,2857,4205,508,-12.5,200,0,1,2086.1128,0,0,736350.708928088,21_01_2016 level23_spatial_Robin_cooling 16_26_06.726 log.txt,11.0,11.0,1509,2016-01-21,11.0,True,69.5,2.5,colocated,left
1,333.397,0,460,1105,2857,4205,505,-12.5,200,0,0,341.1143,1,0,736404.680569769,15_03_2016 level23_spatial_Robin_cooling 16_14_27.831 log.txt,11.0,11.0,1509,2016-03-15,11.0,True,69.5,2.5,colocated,left
72,1397.1613,1,460,1105,2857,4205,508,-12.5,200,0,1,1401.4171,0,0,736355.722934818,26_01_2016 level23_spatial_Robin_cooling 16_57_44.407 log.txt,11.0,11.0,1509,2016-01-26,11.0,True,69.5,2.5,colocated,left
80,1501.9988,0,460,1105,2857,4205,510,-12.5,200,0,1,1504.2712,0,0,736351.724221109,22_01_2016 level23_spatial_Robin_cooling 16_57_50.705 log.txt,10.0,10.0,1509,2016-01-22,10.0,True,69.5,2.5,colocated,left
98,2084.6608,0,460,1105,2857,4205,508,-12.5,200,0,1,2086.1128,0,0,736350.708928088,21_01_2016 level23_spatial_Robin_cooling 16_26_06.726 log.txt,11.0,11.0,1509,2016-01-21,11.0,True,69.5,2.5,colocated,left
72,1397.1613,1,460,1105,2857,4205,508,-12.5,200,0,1,1401.4171,0,0,736355.722934818,26_01_2016 level23_spatial_Robin_cooling 16_57_44.407 log.txt,11.0,11.0,1509,2016-01-26,11.0,True,69.5,2.5,colocated,left
80,1501.9988,0,460,1105,2857,4205,510,-12.5,200,0,1,1504.2712,0,0,736351.724221109,22_01_2016 level23_spatial_Robin_cooling 16_57_50.705 log.txt,10.0,10.0,1509,2016-01-22,10.0,True,69.5,2.5,colocated,left
70,1824.0658,0,730,2058,2857,4205,506,-12.5,200,1,1,1826.6515,1,0,736350.705911942,21_01_2016 level23_spatial_Robin_cooling 16_26_06.726 log.txt,11.0,11.0,1509,2016-01-21,11.0,True,69.5,2.5,colocated,left
70,1824.0658,0,730,2058,2857,4205,506,-12.5,200,1,1,1826.6515,1,0,736350.705911942,21_01_2016 level23_spatial_Robin_cooling 16_26_06.726 log.txt,11.0,11.0,1509,2016-01-21,11.0,True,69.5,2.5,colocated,left
70,1824.0658,0,730,2058,2857,4205,506,-12.5,200,1,1,1826.6515,1,0,736350.705911942,21_01_2016 level23_spatial_Robin_cooling 16_26_06.726 log.txt,11.0,11.0,1509,2016-01-21,11.0,True,69.5,2.5,colocated,left
70,1824.0658,0,730,2058,2857,4205,506,-12.5,200,1,1,1826.6515,1,0,736350.705911942,21_01_2016 level23_spatial_Robin_cooling 16_26_06.726 log.txt,11.0,11.0,1509,2016-01-21,11.0,True,69.5,2.5,colocated,left
96,1691.7977,1,730,2058,2857,4205,504,-12.5,200,1,0,1695.6862,0,0,736355.726344962,26_01_2016 level23_spatial_Robin_cooling 16_57_44.407 log.txt,10.0,10.0,1509,2016-01-26,10.0,True,69.5,2.5,colocated,left
21,1239.7674,1,730,2058,2857,4205,507,-12.5,200,1,1,1245.1246,1,0,736357.700714206,28_01_2016 level23_spatial_Robin_cooling 16_28_21.940 log.txt,15.0,15.0,1509,2016-01-28,15.0,True,69.5,2.5,colocated,left
28,1058.3658,0,730,2058,2857,4205,510,-12.5,200,1,1,1060.577,1,0,736351.719086468,22_01_2016 level23_spatial_Robin_cooling 16_57_50.705 log.txt,15.0,15.0,1509,2016-01-22,15.0,True,69.5,2.5,colocated,left
39,1384.8296,0,460,1105,2857,4205,507,-12.5,200,0,1,1386.4406,0,1,736357.702393167,28_01_2016 level23_spatial_Robin_cooling 16_28_21.940 log.txt,11.0,11.0,1509,2016-01-28,11.0,True,69.5,2.5,colocated,right
98,1731.0317,0,460,1105,2857,4205,510,-12.5,200,0,1,1753.1611,0,1,736355.726799059,26_01_2016 level23_spatial_Robin_cooling 16_57_44.407 log.txt,10.0,10.0,1509,2016-01-26,10.0,True,69.5,2.5,colocated,right
39,1384.8296,0,460,1105,2857,4205,507,-12.5,200,0,1,1386.4406,0,1,736357.702393167,28_01_2016 level23_spatial_Robin_cooling 16_28_21.940 log.txt,11.0,11.0,1509,2016-01-28,11.0,True,69.5,2.5,colocated,right
39,1384.8296,0,460,1105,2857,4205,507,-12.5,200,0,1,1386.4406,0,1,736357.702393167,28_01_2016 level23_spatial_Robin_cooling 16_28_21.940 log.txt,11.0,11.0,1509,2016-01-28,11.0,True,69.5,2.5,colocated,right
39,1384.8296,0,460,1105,2857,4205,507,-12.5,200,0,1,1386.4406,0,1,736357.702393167,28_01_2016 level23_spatial_Robin_cooling 16_28_21.940 log.txt,11.0,11.0,1509,2016-01-28,11.0,True,69.5,2.5,colocated,right
106,2173.9751,1,460,1105,2857,4205,510,-12.5,200,0,0,2177.0188,1,1,736350.709961818,21_01_2016 level23_spatial_Robin_cooling 16_26_06.726 log.txt,10.0,10.0,1509,2016-01-21,10.0,True,69.5,2.5,colocated,right
76,1306.2466,0,460,1105,2857,4205,505,-12.5,200,0,1,1308.9839,0,1,736404.691829602,15_03_2016 level23_spatial_Robin_cooling 16_14_27.831 log.txt,11.0,11.0,1509,2016-03-15,11.0,True,69.5,2.5,colocated,right
19,963.3265,1,730,2058,2857,4205,506,-12.5,200,1,1,976.0667,1,1,736364.697248895,04_02_2016 level23_spatial_Robin_cooling 16_27_58.978 log.txt,18.0,18.0,1509,2016-02-04,18.0,True,69.5,2.5,colocated,right
76,1472.7694,0,730,2058,2857,4205,507,-12.5,200,1,1,1474.5503,1,1,736351.723882806,22_01_2016 level23_spatial_Robin_cooling 16_57_50.705 log.txt,10.0,10.0,1509,2016-01-22,10.0,True,69.5,2.5,colocated,right
29,1305.2428,0,730,2058,2857,4205,506,-12.5,200,1,1,1306.7802,1,1,736357.701472023,28_01_2016 level23_spatial_Robin_cooling 16_28_21.940 log.txt,13.0,13.0,1509,2016-01-28,13.0,True,69.5,2.5,colocated,right
52,1236.0747,0,730,2058,2857,4205,501,-12.5,200,1,1,1237.598,1,1,736355.72107039,26_01_2016 level23_spatial_Robin_cooling 16_57_44.407 log.txt,13.0,13.0,1509,2016-01-26,13.0,True,69.5,2.5,colocated,right
84,1949.7366,0,730,2058,2857,4205,508,-12.5,200,1,1,1951.6809,1,1,736350.707366465,21_01_2016 level23_spatial_Robin_cooling 16_26_06.726 log.txt,10.0,10.0,1509,2016-01-21,10.0,True,69.5,2.5,colocated,right
84,1949.7366,0,730,2058,2857,4205,508,-12.5,200,1,1,1951.6809,1,1,736350.707366465,21_01_2016 level23_spatial_Robin_cooling 16_26_06.726 log.txt,10.0,10.0,1509,2016-01-21,10.0,True,69.5,2.5,colocated,right
52,1236.0747,0,730,2058,2857,4205,501,-12.5,200,1,1,1237.598,1,1,736355.72107039,26_01_2016 level23_spatial_Robin_cooling 16_57_44.407 log.txt,13.0,13.0,1509,2016-01-26,13.0,True,69.5,2.5,colocated,right
37,438.9618,1,460,1105,2857,4205,507,8.5,200,0,1,443.4365,0,2,736414.373099245,25_03_2016 level23_spatial_Robin 08_49_56.813 log.txt,37.0,37.0,1509,2016-03-25,37.0,False,48.5,-18.5,separated,left
1,25.576,0,460,1105,2857,4205,502,8.5,200,0,1,28.0214,0,2,736411.364884803,22_03_2016 level23_spatial_Robin 08_45_00.471 log.txt,37.0,37.0,1509,2016-03-22,37.0,False,48.5,-18.5,separated,left
37,438.9618,1,460,1105,2857,4205,507,8.5,200,0,1,443.4365,0,2,736414.373099245,25_03_2016 level23_spatial_Robin 08_49_56.813 log.txt,37.0,37.0,1509,2016-03-25,37.0,False,48.5,-18.5,separated,left
1,25.576,0,460,1105,2857,4205,502,8.5,200,0,1,28.0214,0,2,736411.364884803,22_03_2016 level23_spatial_Robin 08_45_00.471 log.txt,37.0,37.0,1509,2016-03-22,37.0,False,48.5,-18.5,separated,left
34,260.2933,0,460,1105,2857,4205,506,8.5,200,0,1,261.7528,0,2,736379.37007667,19_02_2016 level23_spatial_Robin 08_48_34.331 log.txt,37.0,37.0,1509,2016-02-19,37.0,False,48.5,-18.5,separated,left
1,25.576,0,460,1105,2857,4205,502,8.5,200,0,1,28.0214,0,2,736411.364884803,22_03_2016 level23_spatial_Robin 08_45_00.471 log.txt,37.0,37.0,1509,2016-03-22,37.0,False,48.5,-18.5,separated,left
37,438.9618,1,460,1105,2857,4205,507,8.5,200,0,1,443.4365,0,2,736414.373099245,25_03_2016 level23_spatial_Robin 08_49_56.813 log.txt,37.0,37.0,1509,2016-03-25,37.0,False,48.5,-18.5,separated,left
70,671.8608,0,730,2058,2857,4205,501,8.5,200,1,1,673.5123,1,2,736413.355734824,24_03_2016 level23_spatial_Robin 08_21_03.628 log.txt,37.0,37.0,1509,2016-03-24,37.0,False,48.5,-18.5,separated,left
51,543.7838,0,730,2058,2857,4205,504,8.5,200,1,0,545.2088,0,2,736414.374312463,25_03_2016 level23_spatial_Robin 08_49_56.813 log.txt,37.0,37.0,1509,2016-03-25,37.0,False,48.5,-18.5,separated,left
90,680.2677,1,730,2058,2857,4205,506,8.5,200,1,0,686.1434,0,2,736379.374937485,19_02_2016 level23_spatial_Robin 08_48_34.331 log.txt,37.0,37.0,1509,2016-02-19,37.0,False,48.5,-18.5,separated,left
27,350.5788,0,730,2058,2857,4205,510,8.5,200,1,1,351.7688,1,2,736406.353326514,17_03_2016 level23_spatial_Robin 08_22_56.832 log.txt,37.0,37.0,1509,2016-03-17,37.0,False,48.5,-18.5,separated,left
90,680.2677,1,730,2058,2857,4205,506,8.5,200,1,0,686.1434,0,2,736379.374937485,19_02_2016 level23_spatial_Robin 08_48_34.331 log.txt,37.0,37.0,1509,2016-02-19,37.0,False,48.5,-18.5,separated,left
30,213.737,1,730,2058,2857,4205,506,8.5,200,1,1,216.8539,1,2,736411.367062593,22_03_2016 level23_spatial_Robin 08_45_00.471 log.txt,37.0,37.0,1509,2016-03-22,37.0,False,48.5,-18.5,separated,left
70,671.8608,0,730,2058,2857,4205,501,8.5,200,1,1,673.5123,1,2,736413.355734824,24_03_2016 level23_spatial_Robin 08_21_03.628 log.txt,37.0,37.0,1509,2016-03-24,37.0,False,48.5,-18.5,separated,left
28,357.001,1,460,1105,2857,4205,504,8.5,200,0,1,360.3622,0,3,736406.353400845,17_03_2016 level23_spatial_Robin 08_22_56.832 log.txt,37.0,37.0,1509,2016-03-17,37.0,False,48.5,-18.5,separated,right
28,357.001,1,460,1105,2857,4205,504,8.5,200,0,1,360.3622,0,3,736406.353400845,17_03_2016 level23_spatial_Robin 08_22_56.832 log.txt,37.0,37.0,1509,2016-03-17,37.0,False,48.5,-18.5,separated,right
28,357.001,1,460,1105,2857,4205,504,8.5,200,0,1,360.3622,0,3,736406.353400845,17_03_2016 level23_spatial_Robin 08_22_56.832 log.txt,37.0,37.0,1509,2016-03-17,37.0,False,48.5,-18.5,separated,right
28,357.001,1,460,1105,2857,4205,504,8.5,200,0,1,360.3622,0,3,736406.353400845,17_03_2016 level23_spatial_Robin 08_22_56.832 log.txt,37.0,37.0,1509,2016-03-17,37.0,False,48.5,-18.5,separated,right
85,647.7058,0,460,1105,2857,4205,509,8.5,200,0,0,648.8682,1,3,736379.374560611,19_02_2016 level23_spatial_Robin 08_48_34.331 log.txt,37.0,37.0,1509,2016-02-19,37.0,False,48.5,-18.5,separated,right
28,357.001,1,460,1105,2857,4205,504,8.5,200,0,1,360.3622,0,3,736406.353400845,17_03_2016 level23_spatial_Robin 08_22_56.832 log.txt,37.0,37.0,1509,2016-03-17,37.0,False,48.5,-18.5,separated,right
76,714.1744,0,460,1105,2857,4205,502,8.5,200,0,1,715.7308,0,3,736413.356224565,24_03_2016 level23_spatial_Robin 08_21_03.628 log.txt,37.0,37.0,1509,2016-03-24,37.0,False,48.5,-18.5,separated,right
36,276.0101,0,730,2058,2857,4205,510,8.5,200,1,1,277.2712,1,3,736379.370258578,19_02_2016 level23_spatial_Robin 08_48_34.331 log.txt,37.0,37.0,1509,2016-02-19,37.0,False,48.5,-18.5,separated,right
29,382.9187,0,730,2058,2857,4205,503,8.5,200,1,1,384.1905,1,3,736414.372450598,25_03_2016 level23_spatial_Robin 08_49_56.813 log.txt,37.0,37.0,1509,2016-03-25,37.0,False,48.5,-18.5,separated,right
36,276.0101,0,730,2058,2857,4205,510,8.5,200,1,1,277.2712,1,3,736379.370258578,19_02_2016 level23_spatial_Robin 08_48_34.331 log.txt,37.0,37.0,1509,2016-02-19,37.0,False,48.5,-18.5,separated,right
23,173.6985,1,730,2058,2857,4205,510,8.5,200,1,1,177.5035,1,3,736411.366599184,22_03_2016 level23_spatial_Robin 08_45_00.471 log.txt,37.0,37.0,1509,2016-03-22,37.0,False,48.5,-18.5,separated,right
36,276.0101,0,730,2058,2857,4205,510,8.5,200,1,1,277.2712,1,3,736379.370258578,19_02_2016 level23_spatial_Robin 08_48_34.331 log.txt,37.0,37.0,1509,2016-02-19,37.0,False,48.5,-18.5,separated,right
59,588.8524,0,730,2058,2857,4205,504,8.5,200,1,1,590.3698,1,3,736413.354774079,24_03_2016 level23_spatial_Robin 08_21_03.628 log.txt,37.0,37.0,1509,2016-03-24,37.0,False,48.5,-18.5,separated,right
23,173.6985,1,730,2058,2857,4205,510,8.5,200,1,1,177.5035,1,3,736411.366599184,22_03_2016 level23_spatial_Robin 08_45_00.471 log.txt,37.0,37.0,1509,2016-03-22,37.0,False,48.5,-18.5,separated,right
45,315.5877,0,460,1105,2857,4205,504,5.5,200,0,1,317.1048,0,2,736411.36824142,22_03_2016 level23_spatial_Robin 08_45_00.471 log.txt,37.0,37.0,1509,2016-03-22,37.0,False,51.5,-15.5,separated,left
75,730.1338,0,460,1105,2857,4205,505,5.5,200,0,1,731.8431,0,2,736414.376469292,25_03_2016 level23_spatial_Robin 08_49_56.813 log.txt,37.0,37.0,1509,2016-03-25,37.0,False,51.5,-15.5,separated,left
45,315.5877,0,460,1105,2857,4205,504,5.5,200,0,1,317.1048,0,2,736411.36824142,22_03_2016 level23_spatial_Robin 08_45_00.471 log.txt,37.0,37.0,1509,2016-03-22,37.0,False,51.5,-15.5,separated,left
75,730.1338,0,460,1105,2857,4205,505,5.5,200,0,1,731.8431,0,2,736414.376469292,25_03_2016 level23_spatial_Robin 08_49_56.813 log.txt,37.0,37.0,1509,2016-03-25,37.0,False,51.5,-15.5,separated,left
44,456.2257,0,460,1105,2857,4205,510,5.5,200,0,1,457.5362,0,2,736406.354549279,17_03_2016 level23_spatial_Robin 08_22_56.832 log.txt,37.0,37.0,1509,2016-03-17,37.0,False,51.5,-15.5,separated,left
45,315.5877,0,460,1105,2857,4205,504,5.5,200,0,1,317.1048,0,2,736411.36824142,22_03_2016 level23_spatial_Robin 08_45_00.471 log.txt,37.0,37.0,1509,2016-03-22,37.0,False,51.5,-15.5,separated,left
75,730.1338,0,460,1105,2857,4205,505,5.5,200,0,1,731.8431,0,2,736414.376469292,25_03_2016 level23_spatial_Robin 08_49_56.813 log.txt,37.0,37.0,1509,2016-03-25,37.0,False,51.5,-15.5,separated,left
32,410.7117,0,730,2058,2857,4205,510,5.5,200,1,1,411.919,1,2,736413.352712265,24_03_2016 level23_spatial_Robin 08_21_03.628 log.txt,37.0,37.0,1509,2016-03-24,37.0,False,51.5,-15.5,separated,left
32,410.7117,0,730,2058,2857,4205,510,5.5,200,1,1,411.919,1,2,736413.352712265,24_03_2016 level23_spatial_Robin 08_21_03.628 log.txt,37.0,37.0,1509,2016-03-24,37.0,False,51.5,-15.5,separated,left
52,505.3126,0,730,2058,2857,4205,502,5.5,200,1,1,506.7796,1,2,736406.355117414,17_03_2016 level23_spatial_Robin 08_22_56.832 log.txt,37.0,37.0,1509,2016-03-17,37.0,False,51.5,-15.5,separated,left
52,505.3126,0,730,2058,2857,4205,502,5.5,200,1,1,506.7796,1,2,736406.355117414,17_03_2016 level23_spatial_Robin 08_22_56.832 log.txt,37.0,37.0,1509,2016-03-17,37.0,False,51.5,-15.5,separated,left
74,724.7302,0,730,2058,2857,4205,509,5.5,200,1,1,726.2381,1,2,736414.37640675,25_03_2016 level23_spatial_Robin 08_49_56.813 log.txt,37.0,37.0,1509,2016-03-25,37.0,False,51.5,-15.5,separated,left
32,410.7117,0,730,2058,2857,4205,510,5.5,200,1,1,411.919,1,2,736413.352712265,24_03_2016 level23_spatial_Robin 08_21_03.628 log.txt,37.0,37.0,1509,2016-03-24,37.0,False,51.5,-15.5,separated,left
52,505.3126,0,730,2058,2857,4205,502,5.5,200,1,1,506.7796,1,2,736406.355117414,17_03_2016 level23_spatial_Robin 08_22_56.832 log.txt,37.0,37.0,1509,2016-03-17,37.0,False,51.5,-15.5,separated,left
71,632.3129,1,460,1105,2857,4205,504,5.5,200,0,1,635.4776,0,3,736406.356587325,17_03_2016 level23_spatial_Robin 08_22_56.832 log.txt,37.0,37.0,1509,2016-03-17,37.0,False,51.5,-15.5,separated,right
20,348.0816,0,460,1105,2857,4205,509,5.5,200,0,1,349.3443,0,3,736412.363691604,23_03_2016 level23_spatial_Robin 08_37_54.873 log.txt,37.0,37.0,1509,2016-03-23,37.0,False,51.5,-15.5,separated,right
39,451.0953,0,460,1105,2857,4205,506,5.5,200,0,1,452.3828,0,3,736413.353179668,24_03_2016 level23_spatial_Robin 08_21_03.628 log.txt,37.0,37.0,1509,2016-03-24,37.0,False,51.5,-15.5,separated,right
39,451.0953,0,460,1105,2857,4205,506,5.5,200,0,1,452.3828,0,3,736413.353179668,24_03_2016 level23_spatial_Robin 08_21_03.628 log.txt,37.0,37.0,1509,2016-03-24,37.0,False,51.5,-15.5,separated,right
39,451.0953,0,460,1105,2857,4205,506,5.5,200,0,1,452.3828,0,3,736413.353179668,24_03_2016 level23_spatial_Robin 08_21_03.628 log.txt,37.0,37.0,1509,2016-03-24,37.0,False,51.5,-15.5,separated,right
20,348.0816,0,460,1105,2857,4205,509,5.5,200,0,1,349.3443,0,3,736412.363691604,23_03_2016 level23_spatial_Robin 08_37_54.873 log.txt,37.0,37.0,1509,2016-03-23,37.0,False,51.5,-15.5,separated,right
39,451.0953,0,460,1105,2857,4205,506,5.5,200,0,1,452.3828,0,3,736413.353179668,24_03_2016 level23_spatial_Robin 08_21_03.628 log.txt,37.0,37.0,1509,2016-03-24,37.0,False,51.5,-15.5,separated,right
54,603.5597,0,730,2058,2857,4205,507,5.5,200,1,1,605.4124,1,3,736412.366648527,23_03_2016 level23_spatial_Robin 08_37_54.873 log.txt,37.0,37.0,1509,2016-03-23,37.0,False,51.5,-15.5,separated,right
