Trial,StartTime,CenterReward,F1,F2,F3,F4,HoldTime,Atten,Pitch,Side,Response,RespTime,Correct,SpatialMask,UniversalStartTime,originalFile,LeftTemperature,RightTemperature,fNum,day,meanTemp,treatment,vowel_level,SNR,SpatialCondition,VowelLocation
18,319.0686,0,460,1105,2857,4205,504,8.5,200,0,0,320.4983,1,0,736413.351651581,24_03_2016 level23_spatial_Robin 08_21_03.628 log.txt,37.0,37.0,1509,2016-03-24,37.0,False,48.5,-18.5,colocated,left
18,319.0686,0,460,1105,2857,4205,504,8.5,200,0,0,320.4983,1,0,736413.351651581,24_03_2016 level23_spatial_Robin 08_21_03.628 log.txt,37.0,37.0,1509,2016-03-24,37.0,False,48.5,-18.5,colocated,left
47,473.8687,0,460,1105,2857,4205,501,8.5,200,0,1,475.0219,0,0,736406.35475348,17_03_2016 level23_spatial_Robin 08_22_56.832 log.txt,37.0,37.0,1509,2016-03-17,37.0,False,48.5,-18.5,colocated,left
17,129.8528,0,460,1105,2857,4205,506,8.5,200,0,1,130.8786,0,0,736379.368566942,19_02_2016 level23_spatial_Robin 08_48_34.331 log.txt,37.0,37.0,1509,2016-02-19,37.0,False,48.5,-18.5,colocated,left
17,129.8528,0,460,1105,2857,4205,506,8.5,200,0,1,130.8786,0,0,736379.368566942,19_02_2016 level23_spatial_Robin 08_48_34.331 log.txt,37.0,37.0,1509,2016-02-19,37.0,False,48.5,-18.5,colocated,left
16,292.4609,0,460,1105,2857,4205,504,8.5,200,0,1,293.7325,0,0,736414.371403633,25_03_2016 level23_spatial_Robin 08_49_56.813 log.txt,37.0,37.0,1509,2016-03-25,37.0,False,48.5,-18.5,colocated,left
17,129.8528,0,460,1105,2857,4205,506,8.5,200,0,1,130.8786,0,0,736379.368566942,19_02_2016 level23_spatial_Robin 08_48_34.331 log.txt,37.0,37.0,1509,2016-02-19,37.0,False,48.5,-18.5,colocated,left
60,453.2844,1,730,2058,2857,4205,508,8.5,200,1,1,457.4537,1,0,736379.372310363,19_02_2016 level23_spatial_Robin 08_48_34.331 log.txt,37.0,37.0,1509,2016-02-19,37.0,False,48.5,-18.5,colocated,left
60,453.2844,1,730,2058,2857,4205,508,8.5,200,1,1,457.4537,1,0,736379.372310363,19_02_2016 level23_spatial_Robin 08_48_34.331 log.txt,37.0,37.0,1509,2016-02-19,37.0,False,48.5,-18.5,colocated,left
60,453.2844,1,730,2058,2857,4205,508,8.5,200,1,1,457.4537,1,0,736379.372310363,19_02_2016 level23_spatial_Robin 08_48_34.331 log.txt,37.0,37.0,1509,2016-02-19,37.0,False,48.5,-18.5,colocated,left
45,498.0432,0,730,2058,2857,4205,507,8.5,200,1,1,500.2323,1,0,736414.373783058,25_03_2016 level23_spatial_Robin 08_49_56.813 log.txt,37.0,37.0,1509,2016-03-25,37.0,False,48.5,-18.5,colocated,left
45,498.0432,0,730,2058,2857,4205,507,8.5,200,1,1,500.2323,1,0,736414.373783058,25_03_2016 level23_spatial_Robin 08_49_56.813 log.txt,37.0,37.0,1509,2016-03-25,37.0,False,48.5,-18.5,colocated,left
73,693.6447,1,730,2058,2857,4205,509,8.5,200,1,1,697.9254,1,0,736413.355986953,24_03_2016 level23_spatial_Robin 08_21_03.628 log.txt,37.0,37.0,1509,2016-03-24,37.0,False,48.5,-18.5,colocated,left
45,498.0432,0,730,2058,2857,4205,507,8.5,200,1,1,500.2323,1,0,736414.373783058,25_03_2016 level23_spatial_Robin 08_49_56.813 log.txt,37.0,37.0,1509,2016-03-25,37.0,False,48.5,-18.5,colocated,left
14,284.8302,0,460,1105,2857,4205,506,8.5,200,0,0,285.9358,1,1,736413.351255303,24_03_2016 level23_spatial_Robin 08_21_03.628 log.txt,37.0,37.0,1509,2016-03-24,37.0,False,48.5,-18.5,colocated,right
14,284.8302,0,460,1105,2857,4205,506,8.5,200,0,0,285.9358,1,1,736413.351255303,24_03_2016 level23_spatial_Robin 08_21_03.628 log.txt,37.0,37.0,1509,2016-03-24,37.0,False,48.5,-18.5,colocated,right
13,97.4595,0,460,1105,2857,4205,511,8.5,200,0,1,98.9453,0,1,736379.36819202,19_02_2016 level23_spatial_Robin 08_48_34.331 log.txt,37.0,37.0,1509,2016-02-19,37.0,False,48.5,-18.5,colocated,right
6,210.8684,1,460,1105,2857,4205,509,8.5,200,0,1,214.6896,0,1,736414.370459275,25_03_2016 level23_spatial_Robin 08_49_56.813 log.txt,37.0,37.0,1509,2016-03-25,37.0,False,48.5,-18.5,colocated,right
12,236.9892,0,460,1105,2857,4205,510,8.5,200,0,0,237.9303,1,1,736406.352011819,17_03_2016 level23_spatial_Robin 08_22_56.832 log.txt,37.0,37.0,1509,2016-03-17,37.0,False,48.5,-18.5,colocated,right
44,532.5852,0,460,1105,2857,4205,510,8.5,200,0,1,534.7374,0,1,736412.365827063,23_03_2016 level23_spatial_Robin 08_37_54.873 log.txt,37.0,37.0,1509,2016-03-23,37.0,False,48.5,-18.5,colocated,right
6,210.8684,1,460,1105,2857,4205,509,8.5,200,0,1,214.6896,0,1,736414.370459275,25_03_2016 level23_spatial_Robin 08_49_56.813 log.txt,37.0,37.0,1509,2016-03-25,37.0,False,48.5,-18.5,colocated,right
14,253.4223,0,730,2058,2857,4205,503,8.5,200,1,0,254.117,0,1,736406.352202017,17_03_2016 level23_spatial_Robin 08_22_56.832 log.txt,37.0,37.0,1509,2016-03-17,37.0,False,48.5,-18.5,colocated,right
58,583.8173,0,730,2058,2857,4205,506,8.5,200,1,1,585.3247,1,1,736413.354715802,24_03_2016 level23_spatial_Robin 08_21_03.628 log.txt,37.0,37.0,1509,2016-03-24,37.0,False,48.5,-18.5,colocated,right
49,370.1743,0,730,2058,2857,4205,509,8.5,200,1,1,371.3302,1,1,736379.371348441,19_02_2016 level23_spatial_Robin 08_48_34.331 log.txt,37.0,37.0,1509,2016-02-19,37.0,False,48.5,-18.5,colocated,right
26,392.2843,1,730,2058,2857,4205,506,8.5,200,1,1,396.7658,1,1,736412.36420321,23_03_2016 level23_spatial_Robin 08_37_54.873 log.txt,37.0,37.0,1509,2016-03-23,37.0,False,48.5,-18.5,colocated,right
49,370.1743,0,730,2058,2857,4205,509,8.5,200,1,1,371.3302,1,1,736379.371348441,19_02_2016 level23_spatial_Robin 08_48_34.331 log.txt,37.0,37.0,1509,2016-02-19,37.0,False,48.5,-18.5,colocated,right
58,583.8173,0,730,2058,2857,4205,506,8.5,200,1,1,585.3247,1,1,736413.354715802,24_03_2016 level23_spatial_Robin 08_21_03.628 log.txt,37.0,37.0,1509,2016-03-24,37.0,False,48.5,-18.5,colocated,right
26,392.2843,1,730,2058,2857,4205,506,8.5,200,1,1,396.7658,1,1,736412.36420321,23_03_2016 level23_spatial_Robin 08_37_54.873 log.txt,37.0,37.0,1509,2016-03-23,37.0,False,48.5,-18.5,colocated,right
37,476.2332,0,460,1105,2857,4205,511,5.5,200,0,0,477.2587,1,0,736412.36517484,23_03_2016 level23_spatial_Robin 08_37_54.873 log.txt,37.0,37.0,1509,2016-03-23,37.0,False,51.5,-15.5,colocated,left
16,122.6568,0,460,1105,2857,4205,503,5.5,200,0,0,124.5757,1,0,736379.368483655,19_02_2016 level23_spatial_Robin 08_48_34.331 log.txt,37.0,37.0,1509,2016-02-19,37.0,False,51.5,-15.5,colocated,left
16,122.6568,0,460,1105,2857,4205,503,5.5,200,0,0,124.5757,1,0,736379.368483655,19_02_2016 level23_spatial_Robin 08_48_34.331 log.txt,37.0,37.0,1509,2016-02-19,37.0,False,51.5,-15.5,colocated,left
80,745.827,1,460,1105,2857,4205,511,5.5,200,0,1,751.1016,0,0,736413.356590914,24_03_2016 level23_spatial_Robin 08_21_03.628 log.txt,37.0,37.0,1509,2016-03-24,37.0,False,51.5,-15.5,colocated,left
80,745.827,1,460,1105,2857,4205,511,5.5,200,0,1,751.1016,0,0,736413.356590914,24_03_2016 level23_spatial_Robin 08_21_03.628 log.txt,37.0,37.0,1509,2016-03-24,37.0,False,51.5,-15.5,colocated,left
40,428.9526,0,460,1105,2857,4205,507,5.5,200,0,1,430.0524,0,0,736406.354233618,17_03_2016 level23_spatial_Robin 08_22_56.832 log.txt,37.0,37.0,1509,2016-03-17,37.0,False,51.5,-15.5,colocated,left
37,476.2332,0,460,1105,2857,4205,511,5.5,200,0,0,477.2587,1,0,736412.36517484,23_03_2016 level23_spatial_Robin 08_37_54.873 log.txt,37.0,37.0,1509,2016-03-23,37.0,False,51.5,-15.5,colocated,left
50,534.5816,1,730,2058,2857,4205,503,5.5,200,1,1,539.7442,1,0,736414.374205956,25_03_2016 level23_spatial_Robin 08_49_56.813 log.txt,37.0,37.0,1509,2016-03-25,37.0,False,51.5,-15.5,colocated,left
27,400.4385,0,730,2058,2857,4205,507,5.5,200,1,0,401.6484,0,0,736412.364297587,23_03_2016 level23_spatial_Robin 08_37_54.873 log.txt,37.0,37.0,1509,2016-03-23,37.0,False,51.5,-15.5,colocated,left
50,534.5816,1,730,2058,2857,4205,503,5.5,200,1,1,539.7442,1,0,736414.374205956,25_03_2016 level23_spatial_Robin 08_49_56.813 log.txt,37.0,37.0,1509,2016-03-25,37.0,False,51.5,-15.5,colocated,left
30,399.4708,0,730,2058,2857,4205,502,5.5,200,1,1,400.8211,1,0,736413.352582162,24_03_2016 level23_spatial_Robin 08_21_03.628 log.txt,37.0,37.0,1509,2016-03-24,37.0,False,51.5,-15.5,colocated,left
30,399.4708,0,730,2058,2857,4205,502,5.5,200,1,1,400.8211,1,0,736413.352582162,24_03_2016 level23_spatial_Robin 08_21_03.628 log.txt,37.0,37.0,1509,2016-03-24,37.0,False,51.5,-15.5,colocated,left
50,534.5816,1,730,2058,2857,4205,503,5.5,200,1,1,539.7442,1,0,736414.374205956,25_03_2016 level23_spatial_Robin 08_49_56.813 log.txt,37.0,37.0,1509,2016-03-25,37.0,False,51.5,-15.5,colocated,left
10,217.822,0,730,2058,2857,4205,502,5.5,200,1,0,218.7436,0,0,736406.351789977,17_03_2016 level23_spatial_Robin 08_22_56.832 log.txt,37.0,37.0,1509,2016-03-17,37.0,False,51.5,-15.5,colocated,left
62,611.5879,1,460,1105,2857,4205,503,5.5,200,0,1,616.6264,0,1,736413.355037221,24_03_2016 level23_spatial_Robin 08_21_03.628 log.txt,37.0,37.0,1509,2016-03-24,37.0,False,51.5,-15.5,colocated,right
18,145.0005,0,460,1105,2857,4205,501,5.5,200,0,0,146.0469,1,1,736411.366267031,22_03_2016 level23_spatial_Robin 08_45_00.471 log.txt,37.0,37.0,1509,2016-03-22,37.0,False,51.5,-15.5,colocated,right
38,290.8723,0,460,1105,2857,4205,504,5.5,200,0,1,292.5763,0,1,736379.370430594,19_02_2016 level23_spatial_Robin 08_48_34.331 log.txt,37.0,37.0,1509,2016-02-19,37.0,False,51.5,-15.5,colocated,right
18,145.0005,0,460,1105,2857,4205,501,5.5,200,0,0,146.0469,1,1,736411.366267031,22_03_2016 level23_spatial_Robin 08_45_00.471 log.txt,37.0,37.0,1509,2016-03-22,37.0,False,51.5,-15.5,colocated,right
38,290.8723,0,460,1105,2857,4205,504,5.5,200,0,1,292.5763,0,1,736379.370430594,19_02_2016 level23_spatial_Robin 08_48_34.331 log.txt,37.0,37.0,1509,2016-02-19,37.0,False,51.5,-15.5,colocated,right
18,145.0005,0,460,1105,2857,4205,501,5.5,200,0,0,146.0469,1,1,736411.366267031,22_03_2016 level23_spatial_Robin 08_45_00.471 log.txt,37.0,37.0,1509,2016-03-22,37.0,False,51.5,-15.5,colocated,right
18,145.0005,0,460,1105,2857,4205,501,5.5,200,0,0,146.0469,1,1,736411.366267031,22_03_2016 level23_spatial_Robin 08_45_00.471 log.txt,37.0,37.0,1509,2016-03-22,37.0,False,51.5,-15.5,colocated,right
65,634.8072,0,730,2058,2857,4205,505,5.5,200,1,1,636.6765,1,1,736413.355305963,24_03_2016 level23_spatial_Robin 08_21_03.628 log.txt,37.0,37.0,1509,2016-03-24,37.0,False,51.5,-15.5,colocated,right
65,634.8072,0,730,2058,2857,4205,505,5.5,200,1,1,636.6765,1,1,736413.355305963,24_03_2016 level23_spatial_Robin 08_21_03.628 log.txt,37.0,37.0,1509,2016-03-24,37.0,False,51.5,-15.5,colocated,right
7,47.6888,1,730,2058,2857,4205,502,5.5,200,1,1,50.8818,1,1,736379.36761597,19_02_2016 level23_spatial_Robin 08_48_34.331 log.txt,37.0,37.0,1509,2016-02-19,37.0,False,51.5,-15.5,colocated,right
65,634.8072,0,730,2058,2857,4205,505,5.5,200,1,1,636.6765,1,1,736413.355305963,24_03_2016 level23_spatial_Robin 08_21_03.628 log.txt,37.0,37.0,1509,2016-03-24,37.0,False,51.5,-15.5,colocated,right
24,182.2429,0,730,2058,2857,4205,503,5.5,200,1,1,183.4886,1,1,736411.366698078,22_03_2016 level23_spatial_Robin 08_45_00.471 log.txt,37.0,37.0,1509,2016-03-22,37.0,False,51.5,-15.5,colocated,right
65,634.8072,0,730,2058,2857,4205,505,5.5,200,1,1,636.6765,1,1,736413.355305963,24_03_2016 level23_spatial_Robin 08_21_03.628 log.txt,37.0,37.0,1509,2016-03-24,37.0,False,51.5,-15.5,colocated,right
7,47.6888,1,730,2058,2857,4205,502,5.5,200,1,1,50.8818,1,1,736379.36761597,19_02_2016 level23_spatial_Robin 08_48_34.331 log.txt,37.0,37.0,1509,2016-02-19,37.0,False,51.5,-15.5,colocated,right
60,596.9901,0,460,1105,2857,4205,509,2.5,200,0,1,598.7607,0,0,736413.354868265,24_03_2016 level23_spatial_Robin 08_21_03.628 log.txt,37.0,37.0,1509,2016-03-24,37.0,False,54.5,-12.5,colocated,left
11,124.2716,0,460,1105,2857,4205,502,2.5,200,0,0,125.4664,1,0,736405.43446481,16_03_2016 level23_spatial_Robin 10_23_33.488 log.txt,37.0,37.0,1509,2016-03-16,37.0,False,54.5,-12.5,colocated,left
35,294.6809,1,460,1105,2857,4205,504,2.5,200,0,1,298.6718,0,0,736357.381290103,28_01_2016 level23_spatial_Robin 09_04_08.784 log.txt,37.0,37.0,1509,2016-01-28,37.0,False,54.5,-12.5,colocated,left
46,504.7828,0,460,1105,2857,4205,505,2.5,200,0,1,506.4667,0,0,736414.373861062,25_03_2016 level23_spatial_Robin 08_49_56.813 log.txt,37.0,37.0,1509,2016-03-25,37.0,False,54.5,-12.5,colocated,left
35,294.6809,1,460,1105,2857,4205,504,2.5,200,0,1,298.6718,0,0,736357.381290103,28_01_2016 level23_spatial_Robin 09_04_08.784 log.txt,37.0,37.0,1509,2016-01-28,37.0,False,54.5,-12.5,colocated,left
11,124.2716,0,460,1105,2857,4205,502,2.5,200,0,0,125.4664,1,0,736405.43446481,16_03_2016 level23_spatial_Robin 10_23_33.488 log.txt,37.0,37.0,1509,2016-03-16,37.0,False,54.5,-12.5,colocated,left
1,11.1754,0,460,1105,2857,4205,510,2.5,200,0,0,11.2266,1,0,736364.350532065,04_02_2016 level23_spatial_Robin 08_24_34.795 log.txt,37.0,37.0,1509,2016-02-04,37.0,False,54.5,-12.5,colocated,left
98,738.0775,0,730,2058,2857,4205,503,2.5,200,1,1,739.3525,1,0,736379.37560658,19_02_2016 level23_spatial_Robin 08_48_34.331 log.txt,37.0,37.0,1509,2016-02-19,37.0,False,54.5,-12.5,colocated,left
71,605.9045,1,730,2058,2857,4205,502,2.5,200,1,1,609.4665,1,0,736350.356957552,21_01_2016 level23_spatial_Robin 08_23_55.228 log.txt,37.0,37.0,1509,2016-01-21,37.0,False,54.5,-12.5,colocated,left
15,99.2138,1,730,2058,2857,4205,505,2.5,200,1,0,99.2488,0,0,736364.351551028,04_02_2016 level23_spatial_Robin 08_24_34.795 log.txt,37.0,37.0,1509,2016-02-04,37.0,False,54.5,-12.5,colocated,left
9,64.6681,0,730,2058,2857,4205,509,2.5,200,1,1,66.7366,1,0,736379.36781249,19_02_2016 level23_spatial_Robin 08_48_34.331 log.txt,37.0,37.0,1509,2016-02-19,37.0,False,54.5,-12.5,colocated,left
13,305.6589,0,730,2058,2857,4205,507,2.5,200,1,1,307.0936,1,0,736412.363200601,23_03_2016 level23_spatial_Robin 08_37_54.873 log.txt,37.0,37.0,1509,2016-03-23,37.0,False,54.5,-12.5,colocated,left
98,738.0775,0,730,2058,2857,4205,503,2.5,200,1,1,739.3525,1,0,736379.37560658,19_02_2016 level23_spatial_Robin 08_48_34.331 log.txt,37.0,37.0,1509,2016-02-19,37.0,False,54.5,-12.5,colocated,left
77,746.4065,1,730,2058,2857,4205,501,2.5,200,1,1,750.3808,1,0,736414.376657633,25_03_2016 level23_spatial_Robin 08_49_56.813 log.txt,37.0,37.0,1509,2016-03-25,37.0,False,54.5,-12.5,colocated,left
84,641.5675,0,460,1105,2857,4205,507,2.5,200,0,0,643.3114,1,1,736379.374489566,19_02_2016 level23_spatial_Robin 08_48_34.331 log.txt,37.0,37.0,1509,2016-02-19,37.0,False,54.5,-12.5,colocated,right
43,299.1436,1,460,1105,2857,4205,510,2.5,200,0,1,303.0193,0,1,736411.368051095,22_03_2016 level23_spatial_Robin 08_45_00.471 log.txt,37.0,37.0,1509,2016-03-22,37.0,False,54.5,-12.5,colocated,right
53,598.882,0,460,1105,2857,4205,505,2.5,200,0,0,600.177,1,1,736412.366594387,23_03_2016 level23_spatial_Robin 08_37_54.873 log.txt,37.0,37.0,1509,2016-03-23,37.0,False,54.5,-12.5,colocated,right
67,606.0089,0,460,1105,2857,4205,503,2.5,200,0,0,607.3816,1,1,736406.356282881,17_03_2016 level23_spatial_Robin 08_22_56.832 log.txt,37.0,37.0,1509,2016-03-17,37.0,False,54.5,-12.5,colocated,right
84,641.5675,0,460,1105,2857,4205,507,2.5,200,0,0,643.3114,1,1,736379.374489566,19_02_2016 level23_spatial_Robin 08_48_34.331 log.txt,37.0,37.0,1509,2016-02-19,37.0,False,54.5,-12.5,colocated,right
1,153.2987,0,460,1105,2857,4205,503,2.5,200,0,0,155.2914,1,1,736413.349732948,24_03_2016 level23_spatial_Robin 08_21_03.628 log.txt,37.0,37.0,1509,2016-03-24,37.0,False,54.5,-12.5,colocated,right
84,641.5675,0,460,1105,2857,4205,507,2.5,200,0,0,643.3114,1,1,736379.374489566,19_02_2016 level23_spatial_Robin 08_48_34.331 log.txt,37.0,37.0,1509,2016-02-19,37.0,False,54.5,-12.5,colocated,right
24,522.1603,1,730,2058,2857,4205,506,2.5,200,1,1,525.8654,1,1,736355.358062943,26_01_2016 level23_spatial_Robin 08_26_54.478 log.txt,37.0,37.0,1509,2016-01-26,37.0,False,54.5,-12.5,colocated,right
24,352.2596,0,730,2058,2857,4205,509,2.5,200,1,0,353.2198,0,1,736414.372095748,25_03_2016 level23_spatial_Robin 08_49_56.813 log.txt,37.0,37.0,1509,2016-03-25,37.0,False,54.5,-12.5,colocated,right
76,579.2176,0,730,2058,2857,4205,504,2.5,200,1,1,580.9267,1,1,736379.373767924,19_02_2016 level23_spatial_Robin 08_48_34.331 log.txt,37.0,37.0,1509,2016-02-19,37.0,False,54.5,-12.5,colocated,right
38,481.2605,1,730,2058,2857,4205,504,2.5,200,1,1,485.5792,1,1,736412.365233027,23_03_2016 level23_spatial_Robin 08_37_54.873 log.txt,37.0,37.0,1509,2016-03-23,37.0,False,54.5,-12.5,colocated,right
77,630.4254,0,730,2058,2857,4205,502,2.5,200,1,1,631.7003,1,1,736364.35769931,04_02_2016 level23_spatial_Robin 08_24_34.795 log.txt,37.0,37.0,1509,2016-02-04,37.0,False,54.5,-12.5,colocated,right
24,522.1603,1,730,2058,2857,4205,506,2.5,200,1,1,525.8654,1,1,736355.358062943,26_01_2016 level23_spatial_Robin 08_26_54.478 log.txt,37.0,37.0,1509,2016-01-26,37.0,False,54.5,-12.5,colocated,right
85,779.2443,0,730,2058,2857,4205,505,2.5,200,1,1,780.4108,1,1,736413.356977689,24_03_2016 level23_spatial_Robin 08_21_03.628 log.txt,37.0,37.0,1509,2016-03-24,37.0,False,54.5,-12.5,colocated,right
19,122.7154,0,460,1105,2857,4205,501,-0.5,200,0,1,123.9789,0,0,736364.351823037,04_02_2016 level23_spatial_Robin 08_24_34.795 log.txt,37.0,37.0,1509,2016-02-04,37.0,False,57.5,-9.5,colocated,left
19,122.7154,0,460,1105,2857,4205,501,-0.5,200,0,1,123.9789,0,0,736364.351823037,04_02_2016 level23_spatial_Robin 08_24_34.795 log.txt,37.0,37.0,1509,2016-02-04,37.0,False,57.5,-9.5,colocated,left
28,384.9132,0,460,1105,2857,4205,506,-0.5,200,0,1,386.2437,0,0,736413.352413671,24_03_2016 level23_spatial_Robin 08_21_03.628 log.txt,37.0,37.0,1509,2016-03-24,37.0,False,57.5,-9.5,colocated,left
19,122.7154,0,460,1105,2857,4205,501,-0.5,200,0,1,123.9789,0,0,736364.351823037,04_02_2016 level23_spatial_Robin 08_24_34.795 log.txt,37.0,37.0,1509,2016-02-04,37.0,False,57.5,-9.5,colocated,left
18,176.5574,0,460,1105,2857,4205,509,-0.5,200,0,1,177.8386,0,0,736405.43506997,16_03_2016 level23_spatial_Robin 10_23_33.488 log.txt,37.0,37.0,1509,2016-03-16,37.0,False,57.5,-9.5,colocated,left
47,355.7587,0,460,1105,2857,4205,508,-0.5,200,0,0,357.1221,1,0,736379.371181594,19_02_2016 level23_spatial_Robin 08_48_34.331 log.txt,37.0,37.0,1509,2016-02-19,37.0,False,57.5,-9.5,colocated,left
53,511.2043,0,460,1105,2857,4205,508,-0.5,200,0,1,512.6994,0,0,736406.355185605,17_03_2016 level23_spatial_Robin 08_22_56.832 log.txt,37.0,37.0,1509,2016-03-17,37.0,False,57.5,-9.5,colocated,left
29,405.0766,1,730,2058,2857,4205,501,-0.5,200,1,0,406.1221,0,0,736351.375196824,22_01_2016 level23_spatial_Robin 08_53_31.929 log.txt,37.0,37.0,1509,2016-01-22,37.0,False,57.5,-9.5,colocated,left
10,288.6896,0,730,2058,2857,4205,507,-0.5,200,1,1,290.4441,1,0,736412.363004197,23_03_2016 level23_spatial_Robin 08_37_54.873 log.txt,37.0,37.0,1509,2016-03-23,37.0,False,57.5,-9.5,colocated,left
69,534.48,0,730,2058,2857,4205,505,-0.5,200,1,1,535.802,1,0,736357.384065556,28_01_2016 level23_spatial_Robin 09_04_08.784 log.txt,37.0,37.0,1509,2016-01-28,37.0,False,57.5,-9.5,colocated,left
102,722.828,1,730,2058,2857,4205,501,-0.5,200,1,1,727.759,1,0,736405.441392546,16_03_2016 level23_spatial_Robin 10_23_33.488 log.txt,37.0,37.0,1509,2016-03-16,37.0,False,57.5,-9.5,colocated,left
56,532.0888,1,730,2058,2857,4205,501,-0.5,200,1,1,535.7502,1,0,736406.355427324,17_03_2016 level23_spatial_Robin 08_22_56.832 log.txt,37.0,37.0,1509,2016-03-17,37.0,False,57.5,-9.5,colocated,left
22,168.3008,0,730,2058,2857,4205,506,-0.5,200,1,1,169.4753,1,0,736411.366536711,22_03_2016 level23_spatial_Robin 08_45_00.471 log.txt,37.0,37.0,1509,2016-03-22,37.0,False,57.5,-9.5,colocated,left
6,61.755,0,730,2058,2857,4205,505,-0.5,200,1,1,62.9428,1,0,736405.433741238,16_03_2016 level23_spatial_Robin 10_23_33.488 log.txt,37.0,37.0,1509,2016-03-16,37.0,False,57.5,-9.5,colocated,left
38,289.2088,0,460,1105,2857,4205,504,-0.5,200,0,0,289.2494,1,1,736364.353750044,04_02_2016 level23_spatial_Robin 08_24_34.795 log.txt,37.0,37.0,1509,2016-02-04,37.0,False,57.5,-9.5,colocated,right
72,555.3125,1,460,1105,2857,4205,508,-0.5,200,0,0,558.0317,1,1,736357.384306672,28_01_2016 level23_spatial_Robin 09_04_08.784 log.txt,37.0,37.0,1509,2016-01-28,37.0,False,57.5,-9.5,colocated,right
79,936.2063,1,460,1105,2857,4205,505,-0.5,200,0,0,940.4888,1,1,736355.362855142,26_01_2016 level23_spatial_Robin 08_26_54.478 log.txt,37.0,37.0,1509,2016-01-26,37.0,False,57.5,-9.5,colocated,right
70,525.8468,0,460,1105,2857,4205,509,-0.5,200,0,1,527.143,0,1,736405.439112671,16_03_2016 level23_spatial_Robin 10_23_33.488 log.txt,37.0,37.0,1509,2016-03-16,37.0,False,57.5,-9.5,colocated,right
97,690.106,0,460,1105,2857,4205,506,-0.5,200,0,0,691.222,1,1,736405.44101382,16_03_2016 level23_spatial_Robin 10_23_33.488 log.txt,37.0,37.0,1509,2016-03-16,37.0,False,57.5,-9.5,colocated,right
78,731.798,0,460,1105,2857,4205,503,-0.5,200,0,0,733.1082,1,1,736413.356428542,24_03_2016 level23_spatial_Robin 08_21_03.628 log.txt,37.0,37.0,1509,2016-03-24,37.0,False,57.5,-9.5,colocated,right
78,731.798,0,460,1105,2857,4205,503,-0.5,200,0,0,733.1082,1,1,736413.356428542,24_03_2016 level23_spatial_Robin 08_21_03.628 log.txt,37.0,37.0,1509,2016-03-24,37.0,False,57.5,-9.5,colocated,right
3,189.4334,1,730,2058,2857,4205,505,-0.5,200,1,0,194.2113,0,1,736351.372700954,22_01_2016 level23_spatial_Robin 08_53_31.929 log.txt,37.0,37.0,1509,2016-01-22,37.0,False,57.5,-9.5,colocated,right
29,251.4704,0,730,2058,2857,4205,502,-0.5,200,1,1,253.1375,1,1,736404.394763326,15_03_2016 level23_spatial_Robin 09_24_16.081 log.txt,37.0,37.0,1509,2016-03-15,37.0,False,57.5,-9.5,colocated,right
9,106.2517,1,730,2058,2857,4205,506,-0.5,200,1,1,110.452,1,1,736405.434256247,16_03_2016 level23_spatial_Robin 10_23_33.488 log.txt,37.0,37.0,1509,2016-03-16,37.0,False,57.5,-9.5,colocated,right
23,175.1339,0,730,2058,2857,4205,504,-0.5,200,1,1,176.5143,1,1,736379.369091029,19_02_2016 level23_spatial_Robin 08_48_34.331 log.txt,37.0,37.0,1509,2016-02-19,37.0,False,57.5,-9.5,colocated,right
29,251.4704,0,730,2058,2857,4205,502,-0.5,200,1,1,253.1375,1,1,736404.394763326,15_03_2016 level23_spatial_Robin 09_24_16.081 log.txt,37.0,37.0,1509,2016-03-15,37.0,False,57.5,-9.5,colocated,right
9,106.2517,1,730,2058,2857,4205,506,-0.5,200,1,1,110.452,1,1,736405.434256247,16_03_2016 level23_spatial_Robin 10_23_33.488 log.txt,37.0,37.0,1509,2016-03-16,37.0,False,57.5,-9.5,colocated,right
17,277.9906,1,730,2058,2857,4205,505,-0.5,200,1,0,280.3902,0,1,736406.352486373,17_03_2016 level23_spatial_Robin 08_22_56.832 log.txt,37.0,37.0,1509,2016-03-17,37.0,False,57.5,-9.5,colocated,right
73,893.7508,1,460,1105,2857,4205,502,-3.5,200,0,1,898.1077,0,0,736355.362363759,26_01_2016 level23_spatial_Robin 08_26_54.478 log.txt,37.0,37.0,1509,2016-01-26,37.0,False,60.5,-6.5,colocated,left
58,449.9934,1,460,1105,2857,4205,507,-3.5,200,0,1,454.4673,0,0,736405.438234738,16_03_2016 level23_spatial_Robin 10_23_33.488 log.txt,37.0,37.0,1509,2016-03-16,37.0,False,60.5,-6.5,colocated,left
7,268.9967,0,460,1105,2857,4205,502,-3.5,200,0,1,270.4426,0,0,736412.36277627,23_03_2016 level23_spatial_Robin 08_37_54.873 log.txt,37.0,37.0,1509,2016-03-23,37.0,False,60.5,-6.5,colocated,left
41,469.6925,0,460,1105,2857,4205,507,-3.5,200,0,1,470.8579,0,0,736413.353394913,24_03_2016 level23_spatial_Robin 08_21_03.628 log.txt,37.0,37.0,1509,2016-03-24,37.0,False,60.5,-6.5,colocated,left
59,465.93,1,460,1105,2857,4205,508,-3.5,200,0,0,469.7734,1,0,736357.383272153,28_01_2016 level23_spatial_Robin 09_04_08.784 log.txt,37.0,37.0,1509,2016-01-28,37.0,False,60.5,-6.5,colocated,left
54,442.8767,1,460,1105,2857,4205,502,-3.5,200,0,0,447.3217,1,0,736364.355528608,04_02_2016 level23_spatial_Robin 08_24_34.795 log.txt,37.0,37.0,1509,2016-02-04,37.0,False,60.5,-6.5,colocated,left
54,442.8767,1,460,1105,2857,4205,502,-3.5,200,0,0,447.3217,1,0,736364.355528608,04_02_2016 level23_spatial_Robin 08_24_34.795 log.txt,37.0,37.0,1509,2016-02-04,37.0,False,60.5,-6.5,colocated,left
70,540.1113,0,730,2058,2857,4205,501,-3.5,200,1,1,541.719,1,0,736357.384130733,28_01_2016 level23_spatial_Robin 09_04_08.784 log.txt,37.0,37.0,1509,2016-01-28,37.0,False,60.5,-6.5,colocated,left
15,131.5758,0,730,2058,2857,4205,509,-3.5,200,1,1,137.0217,1,0,736350.351467637,21_01_2016 level23_spatial_Robin 08_23_55.228 log.txt,37.0,37.0,1509,2016-01-21,37.0,False,60.5,-6.5,colocated,left
83,608.8271,0,730,2058,2857,4205,502,-3.5,200,1,1,610.2828,1,0,736405.440073092,16_03_2016 level23_spatial_Robin 10_23_33.488 log.txt,37.0,37.0,1509,2016-03-16,37.0,False,60.5,-6.5,colocated,left
66,599.6151,1,730,2058,2857,4205,503,-3.5,200,1,1,602.7934,1,0,736406.356208879,17_03_2016 level23_spatial_Robin 08_22_56.832 log.txt,37.0,37.0,1509,2016-03-17,37.0,False,60.5,-6.5,colocated,left
34,546.5272,0,730,2058,2857,4205,503,-3.5,200,1,1,548.1529,1,0,736377.357155049,17_02_2016 level23_spatial_Robin 08_25_11.669 log.txt,37.0,37.0,1509,2016-02-17,37.0,False,60.5,-6.5,colocated,left
83,608.8271,0,730,2058,2857,4205,502,-3.5,200,1,1,610.2828,1,0,736405.440073092,16_03_2016 level23_spatial_Robin 10_23_33.488 log.txt,37.0,37.0,1509,2016-03-16,37.0,False,60.5,-6.5,colocated,left
70,527.5942,1,730,2058,2857,4205,507,-3.5,200,1,1,532.0674,1,0,736379.373170431,19_02_2016 level23_spatial_Robin 08_48_34.331 log.txt,37.0,37.0,1509,2016-02-19,37.0,False,60.5,-6.5,colocated,left
12,91.8629,0,460,1105,2857,4205,510,-3.5,200,0,0,93.143,1,1,736379.368127244,19_02_2016 level23_spatial_Robin 08_48_34.331 log.txt,37.0,37.0,1509,2016-02-19,37.0,False,60.5,-6.5,colocated,right
12,91.8629,0,460,1105,2857,4205,510,-3.5,200,0,0,93.143,1,1,736379.368127244,19_02_2016 level23_spatial_Robin 08_48_34.331 log.txt,37.0,37.0,1509,2016-02-19,37.0,False,60.5,-6.5,colocated,right
24,353.669,1,460,1105,2857,4205,503,-3.5,200,0,1,357.66,0,1,736413.352052049,24_03_2016 level23_spatial_Robin 08_21_03.628 log.txt,37.0,37.0,1509,2016-03-24,37.0,False,60.5,-6.5,colocated,right
62,577.2788,0,460,1105,2857,4205,507,-3.5,200,0,1,579.3204,0,1,736406.355950357,17_03_2016 level23_spatial_Robin 08_22_56.832 log.txt,37.0,37.0,1509,2016-03-17,37.0,False,60.5,-6.5,colocated,right
30,388.0679,0,460,1105,2857,4205,504,-3.5,200,0,1,389.3083,0,1,736414.372510196,25_03_2016 level23_spatial_Robin 08_49_56.813 log.txt,37.0,37.0,1509,2016-03-25,37.0,False,60.5,-6.5,colocated,right
24,353.669,1,460,1105,2857,4205,503,-3.5,200,0,1,357.66,0,1,736413.352052049,24_03_2016 level23_spatial_Robin 08_21_03.628 log.txt,37.0,37.0,1509,2016-03-24,37.0,False,60.5,-6.5,colocated,right
30,388.0679,0,460,1105,2857,4205,504,-3.5,200,0,1,389.3083,0,1,736414.372510196,25_03_2016 level23_spatial_Robin 08_49_56.813 log.txt,37.0,37.0,1509,2016-03-25,37.0,False,60.5,-6.5,colocated,right
69,519.6166,1,730,2058,2857,4205,503,-3.5,200,1,1,523.3257,1,1,736379.373078097,19_02_2016 level23_spatial_Robin 08_48_34.331 log.txt,37.0,37.0,1509,2016-02-19,37.0,False,60.5,-6.5,colocated,right
3,27.5688,0,730,2058,2857,4205,507,-3.5,200,1,0,28.7184,0,1,736405.433345565,16_03_2016 level23_spatial_Robin 10_23_33.488 log.txt,37.0,37.0,1509,2016-03-16,37.0,False,60.5,-6.5,colocated,right
34,284.8775,1,730,2058,2857,4205,511,-3.5,200,1,1,288.8089,1,1,736357.381176638,28_01_2016 level23_spatial_Robin 09_04_08.784 log.txt,37.0,37.0,1509,2016-01-28,37.0,False,60.5,-6.5,colocated,right
40,501.6972,0,730,2058,2857,4205,508,-3.5,200,1,0,502.743,0,1,736412.365469562,23_03_2016 level23_spatial_Robin 08_37_54.873 log.txt,37.0,37.0,1509,2016-03-23,37.0,False,60.5,-6.5,colocated,right
27,197.4045,0,730,2058,2857,4205,510,-3.5,200,1,1,198.7195,1,1,736411.366873559,22_03_2016 level23_spatial_Robin 08_45_00.471 log.txt,37.0,37.0,1509,2016-03-22,37.0,False,60.5,-6.5,colocated,right
36,428.6736,1,730,2058,2857,4205,501,-3.5,200,1,1,433.3903,1,1,736414.372980169,25_03_2016 level23_spatial_Robin 08_49_56.813 log.txt,37.0,37.0,1509,2016-03-25,37.0,False,60.5,-6.5,colocated,right
34,284.8775,1,730,2058,2857,4205,511,-3.5,200,1,1,288.8089,1,1,736357.381176638,28_01_2016 level23_spatial_Robin 09_04_08.784 log.txt,37.0,37.0,1509,2016-01-28,37.0,False,60.5,-6.5,colocated,right
67,503.0454,0,460,1105,2857,4205,507,-6.5,200,0,1,504.3794,0,0,736405.438848766,16_03_2016 level23_spatial_Robin 10_23_33.488 log.txt,37.0,37.0,1509,2016-03-16,37.0,False,63.5,-3.5,colocated,left
1,152.4216,0,460,1105,2857,4205,507,-6.5,200,0,0,153.0283,1,0,736414.369782808,25_03_2016 level23_spatial_Robin 08_49_56.813 log.txt,37.0,37.0,1509,2016-03-25,37.0,False,63.5,-3.5,colocated,left
2,10.791,0,460,1105,2857,4205,505,-6.5,200,0,0,11.7521,1,0,736379.367188912,19_02_2016 level23_spatial_Robin 08_48_34.331 log.txt,37.0,37.0,1509,2016-02-19,37.0,False,63.5,-3.5,colocated,left
50,490.6903,1,460,1105,2857,4205,503,-6.5,200,0,1,494.204,0,0,736406.354948175,17_03_2016 level23_spatial_Robin 08_22_56.832 log.txt,37.0,37.0,1509,2016-03-17,37.0,False,63.5,-3.5,colocated,left
20,336.5742,0,460,1105,2857,4205,505,-6.5,200,0,1,338.5269,0,0,736351.374403972,22_01_2016 level23_spatial_Robin 08_53_31.929 log.txt,37.0,37.0,1509,2016-01-22,37.0,False,63.5,-3.5,colocated,left
20,336.5742,0,460,1105,2857,4205,505,-6.5,200,0,1,338.5269,0,0,736351.374403972,22_01_2016 level23_spatial_Robin 08_53_31.929 log.txt,37.0,37.0,1509,2016-01-22,37.0,False,63.5,-3.5,colocated,left
9,316.3469,0,460,1105,2857,4205,505,-6.5,200,0,0,317.4862,1,0,736377.354490925,17_02_2016 level23_spatial_Robin 08_25_11.669 log.txt,37.0,37.0,1509,2016-02-17,37.0,False,63.5,-3.5,colocated,left
79,914.9417,1,730,2058,2857,4205,501,-6.5,200,1,1,918.5922,1,0,736377.361419105,17_02_2016 level23_spatial_Robin 08_25_11.669 log.txt,37.0,37.0,1509,2016-02-17,37.0,False,63.5,-3.5,colocated,left
36,468.4934,1,730,2058,2857,4205,503,-6.5,200,1,1,472.4525,1,0,736412.365085259,23_03_2016 level23_spatial_Robin 08_37_54.873 log.txt,37.0,37.0,1509,2016-03-23,37.0,False,63.5,-3.5,colocated,left
64,629.1833,0,730,2058,2857,4205,510,-6.5,200,1,1,631.0035,1,0,736413.355240872,24_03_2016 level23_spatial_Robin 08_21_03.628 log.txt,37.0,37.0,1509,2016-03-24,37.0,False,63.5,-3.5,colocated,left
53,407.9361,0,730,2058,2857,4205,508,-6.5,200,1,1,409.5058,1,0,736404.396574272,15_03_2016 level23_spatial_Robin 09_24_16.081 log.txt,37.0,37.0,1509,2016-03-15,37.0,False,63.5,-3.5,colocated,left
64,629.1833,0,730,2058,2857,4205,510,-6.5,200,1,1,631.0035,1,0,736413.355240872,24_03_2016 level23_spatial_Robin 08_21_03.628 log.txt,37.0,37.0,1509,2016-03-24,37.0,False,63.5,-3.5,colocated,left
53,407.9361,0,730,2058,2857,4205,508,-6.5,200,1,1,409.5058,1,0,736404.396574272,15_03_2016 level23_spatial_Robin 09_24_16.081 log.txt,37.0,37.0,1509,2016-03-15,37.0,False,63.5,-3.5,colocated,left
50,376.4652,0,730,2058,2857,4205,502,-6.5,200,1,0,378.3064,0,0,736379.371421252,19_02_2016 level23_spatial_Robin 08_48_34.331 log.txt,37.0,37.0,1509,2016-02-19,37.0,False,63.5,-3.5,colocated,left
32,271.8693,0,460,1105,2857,4205,508,-6.5,200,0,1,273.3055,0,1,736357.38102608,28_01_2016 level23_spatial_Robin 09_04_08.784 log.txt,37.0,37.0,1509,2016-01-28,37.0,False,63.5,-3.5,colocated,right
94,1020.4214,0,460,1105,2857,4205,507,-6.5,200,0,1,1022.7909,0,1,736377.362639935,17_02_2016 level23_spatial_Robin 08_25_11.669 log.txt,37.0,37.0,1509,2016-02-17,37.0,False,63.5,-3.5,colocated,right
22,351.2729,0,460,1105,2857,4205,507,-6.5,200,0,0,352.7812,1,1,736351.374574096,22_01_2016 level23_spatial_Robin 08_53_31.929 log.txt,37.0,37.0,1509,2016-01-22,37.0,False,63.5,-3.5,colocated,right
62,623.8957,0,460,1105,2857,4205,501,-6.5,200,0,1,625.5439,0,1,736414.375239684,25_03_2016 level23_spatial_Robin 08_49_56.813 log.txt,37.0,37.0,1509,2016-03-25,37.0,False,63.5,-3.5,colocated,right
62,623.8957,0,460,1105,2857,4205,501,-6.5,200,0,1,625.5439,0,1,736414.375239684,25_03_2016 level23_spatial_Robin 08_49_56.813 log.txt,37.0,37.0,1509,2016-03-25,37.0,False,63.5,-3.5,colocated,right
22,351.2729,0,460,1105,2857,4205,507,-6.5,200,0,0,352.7812,1,1,736351.374574096,22_01_2016 level23_spatial_Robin 08_53_31.929 log.txt,37.0,37.0,1509,2016-01-22,37.0,False,63.5,-3.5,colocated,right
86,653.4673,0,460,1105,2857,4205,511,-6.5,200,0,0,655.1146,1,1,736379.374627295,19_02_2016 level23_spatial_Robin 08_48_34.331 log.txt,37.0,37.0,1509,2016-02-19,37.0,False,63.5,-3.5,colocated,right
68,861.1786,1,730,2058,2857,4205,506,-6.5,200,1,1,864.3912,1,1,736355.361986766,26_01_2016 level23_spatial_Robin 08_26_54.478 log.txt,37.0,37.0,1509,2016-01-26,37.0,False,63.5,-3.5,colocated,right
48,376.031,0,730,2058,2857,4205,503,-6.5,200,1,1,377.5703,1,1,736404.396205,15_03_2016 level23_spatial_Robin 09_24_16.081 log.txt,37.0,37.0,1509,2016-03-15,37.0,False,63.5,-3.5,colocated,right
48,376.031,0,730,2058,2857,4205,503,-6.5,200,1,1,377.5703,1,1,736404.396205,15_03_2016 level23_spatial_Robin 09_24_16.081 log.txt,37.0,37.0,1509,2016-03-15,37.0,False,63.5,-3.5,colocated,right
68,861.1786,1,730,2058,2857,4205,506,-6.5,200,1,1,864.3912,1,1,736355.361986766,26_01_2016 level23_spatial_Robin 08_26_54.478 log.txt,37.0,37.0,1509,2016-01-26,37.0,False,63.5,-3.5,colocated,right
67,647.5728,0,730,2058,2857,4205,506,-6.5,200,1,0,648.9052,0,1,736413.355453713,24_03_2016 level23_spatial_Robin 08_21_03.628 log.txt,37.0,37.0,1509,2016-03-24,37.0,False,63.5,-3.5,colocated,right
3,35.9656,0,730,2058,2857,4205,507,-6.5,200,1,0,36.9908,0,1,736411.365005053,22_03_2016 level23_spatial_Robin 08_45_00.471 log.txt,37.0,37.0,1509,2016-03-22,37.0,False,63.5,-3.5,colocated,right
41,616.8651,1,730,2058,2857,4205,507,-6.5,200,1,0,621.0187,0,1,736377.357969145,17_02_2016 level23_spatial_Robin 08_25_11.669 log.txt,37.0,37.0,1509,2016-02-17,37.0,False,63.5,-3.5,colocated,right
37,284.1459,0,460,1105,2857,4205,511,-9.5,200,0,0,284.948,1,0,736364.353691446,04_02_2016 level23_spatial_Robin 08_24_34.795 log.txt,37.0,37.0,1509,2016-02-04,37.0,False,66.5,-0.5,colocated,left
29,562.6506,1,460,1105,2857,4205,504,-9.5,200,0,1,566.5582,0,0,736355.358531581,26_01_2016 level23_spatial_Robin 08_26_54.478 log.txt,37.0,37.0,1509,2016-01-26,37.0,False,66.5,-0.5,colocated,left
37,284.1459,0,460,1105,2857,4205,511,-9.5,200,0,0,284.948,1,0,736364.353691446,04_02_2016 level23_spatial_Robin 08_24_34.795 log.txt,37.0,37.0,1509,2016-02-04,37.0,False,66.5,-0.5,colocated,left
37,284.1459,0,460,1105,2857,4205,511,-9.5,200,0,0,284.948,1,0,736364.353691446,04_02_2016 level23_spatial_Robin 08_24_34.795 log.txt,37.0,37.0,1509,2016-02-04,37.0,False,66.5,-0.5,colocated,left
37,284.1459,0,460,1105,2857,4205,511,-9.5,200,0,0,284.948,1,0,736364.353691446,04_02_2016 level23_spatial_Robin 08_24_34.795 log.txt,37.0,37.0,1509,2016-02-04,37.0,False,66.5,-0.5,colocated,left
51,395.0678,0,460,1105,2857,4205,501,-9.5,200,0,1,396.7056,0,0,736404.396425333,15_03_2016 level23_spatial_Robin 09_24_16.081 log.txt,37.0,37.0,1509,2016-03-15,37.0,False,66.5,-0.5,colocated,left
37,284.1459,0,460,1105,2857,4205,511,-9.5,200,0,0,284.948,1,0,736364.353691446,04_02_2016 level23_spatial_Robin 08_24_34.795 log.txt,37.0,37.0,1509,2016-02-04,37.0,False,66.5,-0.5,colocated,left
37,298.5658,0,730,2058,2857,4205,511,-9.5,200,1,1,300.1416,1,0,736404.395308412,15_03_2016 level23_spatial_Robin 09_24_16.081 log.txt,37.0,37.0,1509,2016-03-15,37.0,False,66.5,-0.5,colocated,left
96,704.3686,0,730,2058,2857,4205,507,-9.5,200,1,1,706.9006,1,0,736404.400005204,15_03_2016 level23_spatial_Robin 09_24_16.081 log.txt,37.0,37.0,1509,2016-03-15,37.0,False,66.5,-0.5,colocated,left
40,645.1042,1,730,2058,2857,4205,510,-9.5,200,1,1,649.3096,1,0,736355.359485905,26_01_2016 level23_spatial_Robin 08_26_54.478 log.txt,37.0,37.0,1509,2016-01-26,37.0,False,66.5,-0.5,colocated,left
9,89.4421,0,730,2058,2857,4205,506,-9.5,200,1,0,90.5783,0,0,736357.378914654,28_01_2016 level23_spatial_Robin 09_04_08.784 log.txt,37.0,37.0,1509,2016-01-28,37.0,False,66.5,-0.5,colocated,left
87,702.2858,0,730,2058,2857,4205,509,-9.5,200,1,1,703.9477,1,0,736364.358531028,04_02_2016 level23_spatial_Robin 08_24_34.795 log.txt,37.0,37.0,1509,2016-02-04,37.0,False,66.5,-0.5,colocated,left
96,704.3686,0,730,2058,2857,4205,507,-9.5,200,1,1,706.9006,1,0,736404.400005204,15_03_2016 level23_spatial_Robin 09_24_16.081 log.txt,37.0,37.0,1509,2016-03-15,37.0,False,66.5,-0.5,colocated,left
9,89.4421,0,730,2058,2857,4205,506,-9.5,200,1,0,90.5783,0,0,736357.378914654,28_01_2016 level23_spatial_Robin 09_04_08.784 log.txt,37.0,37.0,1509,2016-01-28,37.0,False,66.5,-0.5,colocated,left
39,313.6746,0,460,1105,2857,4205,508,-9.5,200,0,0,315.0509,1,1,736404.395483282,15_03_2016 level23_spatial_Robin 09_24_16.081 log.txt,37.0,37.0,1509,2016-03-15,37.0,False,66.5,-0.5,colocated,right
39,313.6746,0,460,1105,2857,4205,508,-9.5,200,0,0,315.0509,1,1,736404.395483282,15_03_2016 level23_spatial_Robin 09_24_16.081 log.txt,37.0,37.0,1509,2016-03-15,37.0,False,66.5,-0.5,colocated,right
56,778.5311,0,460,1105,2857,4205,510,-9.5,200,0,1,780.2237,0,1,736355.361030198,26_01_2016 level23_spatial_Robin 08_26_54.478 log.txt,37.0,37.0,1509,2016-01-26,37.0,False,66.5,-0.5,colocated,right
25,473.612,0,460,1105,2857,4205,509,-9.5,200,0,0,475.3468,1,1,736377.356311123,17_02_2016 level23_spatial_Robin 08_25_11.669 log.txt,37.0,37.0,1509,2016-02-17,37.0,False,66.5,-0.5,colocated,right
56,778.5311,0,460,1105,2857,4205,510,-9.5,200,0,1,780.2237,0,1,736355.361030198,26_01_2016 level23_spatial_Robin 08_26_54.478 log.txt,37.0,37.0,1509,2016-01-26,37.0,False,66.5,-0.5,colocated,right
56,778.5311,0,460,1105,2857,4205,510,-9.5,200,0,1,780.2237,0,1,736355.361030198,26_01_2016 level23_spatial_Robin 08_26_54.478 log.txt,37.0,37.0,1509,2016-01-26,37.0,False,66.5,-0.5,colocated,right
39,313.6746,0,460,1105,2857,4205,508,-9.5,200,0,0,315.0509,1,1,736404.395483282,15_03_2016 level23_spatial_Robin 09_24_16.081 log.txt,37.0,37.0,1509,2016-03-15,37.0,False,66.5,-0.5,colocated,right
69,844.9479,0,730,2058,2857,4205,503,-9.5,200,1,1,846.4868,1,1,736377.360608992,17_02_2016 level23_spatial_Robin 08_25_11.669 log.txt,37.0,37.0,1509,2016-02-17,37.0,False,66.5,-0.5,colocated,right
31,577.1569,1,730,2058,2857,4205,509,-9.5,200,1,0,581.4641,0,1,736355.358699478,26_01_2016 level23_spatial_Robin 08_26_54.478 log.txt,37.0,37.0,1509,2016-01-26,37.0,False,66.5,-0.5,colocated,right
29,245.1694,1,730,2058,2857,4205,509,-9.5,200,1,1,249.5599,1,1,736357.380717053,28_01_2016 level23_spatial_Robin 09_04_08.784 log.txt,37.0,37.0,1509,2016-01-28,37.0,False,66.5,-0.5,colocated,right
31,577.1569,1,730,2058,2857,4205,509,-9.5,200,1,0,581.4641,0,1,736355.358699478,26_01_2016 level23_spatial_Robin 08_26_54.478 log.txt,37.0,37.0,1509,2016-01-26,37.0,False,66.5,-0.5,colocated,right
127,1275.8252,0,730,2058,2857,4205,509,-9.5,200,1,1,1277.3297,1,1,736377.365595998,17_02_2016 level23_spatial_Robin 08_25_11.669 log.txt,37.0,37.0,1509,2016-02-17,37.0,False,66.5,-0.5,colocated,right
43,328.6902,1,730,2058,2857,4205,506,-9.5,200,1,0,333.1649,0,1,736364.354207005,04_02_2016 level23_spatial_Robin 08_24_34.795 log.txt,37.0,37.0,1509,2016-02-04,37.0,False,66.5,-0.5,colocated,right
29,245.1694,1,730,2058,2857,4205,509,-9.5,200,1,1,249.5599,1,1,736357.380717053,28_01_2016 level23_spatial_Robin 09_04_08.784 log.txt,37.0,37.0,1509,2016-01-28,37.0,False,66.5,-0.5,colocated,right
51,538.7525,1,460,1105,2857,4205,509,-12.5,200,0,0,539.9036,1,0,736351.376743999,22_01_2016 level23_spatial_Robin 08_53_31.929 log.txt,37.0,37.0,1509,2016-01-22,37.0,False,69.5,2.5,colocated,left
51,538.7525,1,460,1105,2857,4205,509,-12.5,200,0,0,539.9036,1,0,736351.376743999,22_01_2016 level23_spatial_Robin 08_53_31.929 log.txt,37.0,37.0,1509,2016-01-22,37.0,False,69.5,2.5,colocated,left
51,538.7525,1,460,1105,2857,4205,509,-12.5,200,0,0,539.9036,1,0,736351.376743999,22_01_2016 level23_spatial_Robin 08_53_31.929 log.txt,37.0,37.0,1509,2016-01-22,37.0,False,69.5,2.5,colocated,left
45,382.4891,1,460,1105,2857,4205,502,-12.5,200,0,1,385.9608,0,0,736350.354371726,21_01_2016 level23_spatial_Robin 08_23_55.228 log.txt,37.0,37.0,1509,2016-01-21,37.0,False,69.5,2.5,colocated,left
45,382.4891,1,460,1105,2857,4205,502,-12.5,200,0,1,385.9608,0,0,736350.354371726,21_01_2016 level23_spatial_Robin 08_23_55.228 log.txt,37.0,37.0,1509,2016-01-21,37.0,False,69.5,2.5,colocated,left
51,538.7525,1,460,1105,2857,4205,509,-12.5,200,0,0,539.9036,1,0,736351.376743999,22_01_2016 level23_spatial_Robin 08_53_31.929 log.txt,37.0,37.0,1509,2016-01-22,37.0,False,69.5,2.5,colocated,left
51,538.7525,1,460,1105,2857,4205,509,-12.5,200,0,0,539.9036,1,0,736351.376743999,22_01_2016 level23_spatial_Robin 08_53_31.929 log.txt,37.0,37.0,1509,2016-01-22,37.0,False,69.5,2.5,colocated,left
35,606.3976,0,730,2058,2857,4205,501,-12.5,200,1,0,607.7076,0,0,736355.359037912,26_01_2016 level23_spatial_Robin 08_26_54.478 log.txt,37.0,37.0,1509,2016-01-26,37.0,False,69.5,2.5,colocated,left
115,817.8102,0,730,2058,2857,4205,511,-12.5,200,1,1,819.4662,1,0,736404.401318185,15_03_2016 level23_spatial_Robin 09_24_16.081 log.txt,37.0,37.0,1509,2016-03-15,37.0,False,69.5,2.5,colocated,left
8,79.1409,0,730,2058,2857,4205,511,-12.5,200,1,1,80.5448,1,0,736357.378795427,28_01_2016 level23_spatial_Robin 09_04_08.784 log.txt,37.0,37.0,1509,2016-01-28,37.0,False,69.5,2.5,colocated,left
89,715.2413,0,730,2058,2857,4205,501,-12.5,200,1,0,716.1842,0,0,736364.358680976,04_02_2016 level23_spatial_Robin 08_24_34.795 log.txt,37.0,37.0,1509,2016-02-04,37.0,False,69.5,2.5,colocated,left
35,606.3976,0,730,2058,2857,4205,501,-12.5,200,1,0,607.7076,0,0,736355.359037912,26_01_2016 level23_spatial_Robin 08_26_54.478 log.txt,37.0,37.0,1509,2016-01-26,37.0,False,69.5,2.5,colocated,left
35,606.3976,0,730,2058,2857,4205,501,-12.5,200,1,0,607.7076,0,0,736355.359037912,26_01_2016 level23_spatial_Robin 08_26_54.478 log.txt,37.0,37.0,1509,2016-01-26,37.0,False,69.5,2.5,colocated,left
89,715.2413,0,730,2058,2857,4205,501,-12.5,200,1,0,716.1842,0,0,736364.358680976,04_02_2016 level23_spatial_Robin 08_24_34.795 log.txt,37.0,37.0,1509,2016-02-04,37.0,False,69.5,2.5,colocated,left
63,824.3148,0,460,1105,2857,4205,503,-12.5,200,0,1,825.6468,0,1,736355.361560102,26_01_2016 level23_spatial_Robin 08_26_54.478 log.txt,37.0,37.0,1509,2016-01-26,37.0,False,69.5,2.5,colocated,right
43,367.1937,0,460,1105,2857,4205,506,-12.5,200,0,1,369.4726,0,1,736350.354194696,21_01_2016 level23_spatial_Robin 08_23_55.228 log.txt,37.0,37.0,1509,2016-01-21,37.0,False,69.5,2.5,colocated,right
43,367.1937,0,460,1105,2857,4205,506,-12.5,200,0,1,369.4726,0,1,736350.354194696,21_01_2016 level23_spatial_Robin 08_23_55.228 log.txt,37.0,37.0,1509,2016-01-21,37.0,False,69.5,2.5,colocated,right
52,420.849,1,460,1105,2857,4205,502,-12.5,200,0,0,423.6171,1,1,736357.382750382,28_01_2016 level23_spatial_Robin 09_04_08.784 log.txt,37.0,37.0,1509,2016-01-28,37.0,False,69.5,2.5,colocated,right
50,388.0391,0,460,1105,2857,4205,509,-12.5,200,0,0,389.3071,1,1,736404.396343983,15_03_2016 level23_spatial_Robin 09_24_16.081 log.txt,37.0,37.0,1509,2016-03-15,37.0,False,69.5,2.5,colocated,right
75,621.0861,0,460,1105,2857,4205,502,-12.5,200,0,0,622.0975,1,1,736364.357591216,04_02_2016 level23_spatial_Robin 08_24_34.795 log.txt,37.0,37.0,1509,2016-02-04,37.0,False,69.5,2.5,colocated,right
63,824.3148,0,460,1105,2857,4205,503,-12.5,200,0,1,825.6468,0,1,736355.361560102,26_01_2016 level23_spatial_Robin 08_26_54.478 log.txt,37.0,37.0,1509,2016-01-26,37.0,False,69.5,2.5,colocated,right
78,928.6521,1,730,2058,2857,4205,511,-12.5,200,1,1,931.8045,1,1,736355.36276771,26_01_2016 level23_spatial_Robin 08_26_54.478 log.txt,37.0,37.0,1509,2016-01-26,37.0,False,69.5,2.5,colocated,right
53,452.8234,1,730,2058,2857,4205,506,-12.5,200,1,1,456.6165,1,1,736350.35518578,21_01_2016 level23_spatial_Robin 08_23_55.228 log.txt,37.0,37.0,1509,2016-01-21,37.0,False,69.5,2.5,colocated,right
93,760.5743,1,730,2058,2857,4205,502,-12.5,200,1,0,764.0037,0,1,736364.359205663,04_02_2016 level23_spatial_Robin 08_24_34.795 log.txt,37.0,37.0,1509,2016-02-04,37.0,False,69.5,2.5,colocated,right
78,928.6521,1,730,2058,2857,4205,511,-12.5,200,1,1,931.8045,1,1,736355.36276771,26_01_2016 level23_spatial_Robin 08_26_54.478 log.txt,37.0,37.0,1509,2016-01-26,37.0,False,69.5,2.5,colocated,right
93,760.5743,1,730,2058,2857,4205,502,-12.5,200,1,0,764.0037,0,1,736364.359205663,04_02_2016 level23_spatial_Robin 08_24_34.795 log.txt,37.0,37.0,1509,2016-02-04,37.0,False,69.5,2.5,colocated,right
24,363.0637,0,730,2058,2857,4205,504,-12.5,200,1,1,364.6406,1,1,736351.374710564,22_01_2016 level23_spatial_Robin 08_53_31.929 log.txt,37.0,37.0,1509,2016-01-22,37.0,False,69.5,2.5,colocated,right
110,788.8758,0,730,2058,2857,4205,503,-12.5,200,1,1,790.7418,1,1,736404.400983296,15_03_2016 level23_spatial_Robin 09_24_16.081 log.txt,37.0,37.0,1509,2016-03-15,37.0,False,69.5,2.5,colocated,right
35,1517.1084,0,460,1105,2857,4205,511,8.5,200,0,1,1518.5692,0,0,736413.726720363,24_03_2016 level23_spatial_Robin_cooling 17_01_11.531 log.txt,10.0,10.0,1509,2016-03-24,10.0,True,48.5,-18.5,colocated,left
50,1267.293,0,460,1105,2857,4205,511,8.5,200,0,1,1269.0873,0,0,736406.735615706,17_03_2016 level23_spatial_Robin_cooling 17_18_09.904 log.txt,10.0,10.0,1509,2016-03-17,10.0,True,48.5,-18.5,colocated,left
35,1517.1084,0,460,1105,2857,4205,511,8.5,200,0,1,1518.5692,0,0,736413.726720363,24_03_2016 level23_spatial_Robin_cooling 17_01_11.531 log.txt,10.0,10.0,1509,2016-03-24,10.0,True,48.5,-18.5,colocated,left
50,1267.293,0,460,1105,2857,4205,511,8.5,200,0,1,1269.0873,0,0,736406.735615706,17_03_2016 level23_spatial_Robin_cooling 17_18_09.904 log.txt,10.0,10.0,1509,2016-03-17,10.0,True,48.5,-18.5,colocated,left
35,1517.1084,0,460,1105,2857,4205,511,8.5,200,0,1,1518.5692,0,0,736413.726720363,24_03_2016 level23_spatial_Robin_cooling 17_01_11.531 log.txt,10.0,10.0,1509,2016-03-24,10.0,True,48.5,-18.5,colocated,left
20,1733.3178,0,460,1105,2857,4205,501,8.5,200,0,1,1735.061,0,0,736412.598926074,23_03_2016 level23_spatial_Robin_cooling 13_53_33.895 log.txt,12.0,12.0,1509,2016-03-23,12.0,True,48.5,-18.5,colocated,left
35,1517.1084,0,460,1105,2857,4205,511,8.5,200,0,1,1518.5692,0,0,736413.726720363,24_03_2016 level23_spatial_Robin_cooling 17_01_11.531 log.txt,10.0,10.0,1509,2016-03-24,10.0,True,48.5,-18.5,colocated,left
88,2043.4013,0,730,2058,2857,4205,508,8.5,200,1,1,2045.0517,1,0,736413.732811716,24_03_2016 level23_spatial_Robin_cooling 17_01_11.531 log.txt,10.0,10.0,1509,2016-03-24,10.0,True,48.5,-18.5,colocated,left
88,2043.4013,0,730,2058,2857,4205,508,8.5,200,1,1,2045.0517,1,0,736413.732811716,24_03_2016 level23_spatial_Robin_cooling 17_01_11.531 log.txt,10.0,10.0,1509,2016-03-24,10.0,True,48.5,-18.5,colocated,left
49,1509.4034,0,730,2058,2857,4205,508,8.5,200,1,0,1510.7901,0,0,736414.726754484,25_03_2016 level23_spatial_Robin_cooling 17_01_22.184 log.txt,9.0,9.0,1509,2016-03-25,9.0,True,48.5,-18.5,colocated,left
88,2043.4013,0,730,2058,2857,4205,508,8.5,200,1,1,2045.0517,1,0,736413.732811716,24_03_2016 level23_spatial_Robin_cooling 17_01_11.531 log.txt,10.0,10.0,1509,2016-03-24,10.0,True,48.5,-18.5,colocated,left
49,1509.4034,0,730,2058,2857,4205,508,8.5,200,1,0,1510.7901,0,0,736414.726754484,25_03_2016 level23_spatial_Robin_cooling 17_01_22.184 log.txt,9.0,9.0,1509,2016-03-25,9.0,True,48.5,-18.5,colocated,left
88,2043.4013,0,730,2058,2857,4205,508,8.5,200,1,1,2045.0517,1,0,736413.732811716,24_03_2016 level23_spatial_Robin_cooling 17_01_11.531 log.txt,10.0,10.0,1509,2016-03-24,10.0,True,48.5,-18.5,colocated,left
52,1594.9781,0,730,2058,2857,4205,505,8.5,200,1,1,1596.6747,1,0,736379.694991737,19_02_2016 level23_spatial_Robin_cooling 16_14_12.308 log.txt,8.0,8.0,1509,2016-02-19,8.0,True,48.5,-18.5,colocated,left
34,1142.7706,0,460,1105,2857,4205,501,8.5,200,0,1,1144.7479,0,1,736406.734174474,17_03_2016 level23_spatial_Robin_cooling 17_18_09.904 log.txt,10.0,10.0,1509,2016-03-17,10.0,True,48.5,-18.5,colocated,right
34,1142.7706,0,460,1105,2857,4205,501,8.5,200,0,1,1144.7479,0,1,736406.734174474,17_03_2016 level23_spatial_Robin_cooling 17_18_09.904 log.txt,10.0,10.0,1509,2016-03-17,10.0,True,48.5,-18.5,colocated,right
3,1144.4608,0,460,1105,2857,4205,507,8.5,200,0,0,1147.0158,1,1,736379.689777417,19_02_2016 level23_spatial_Robin_cooling 16_14_12.308 log.txt,16.0,16.0,1509,2016-02-19,16.0,True,48.5,-18.5,colocated,right
3,1144.4608,0,460,1105,2857,4205,507,8.5,200,0,0,1147.0158,1,1,736379.689777417,19_02_2016 level23_spatial_Robin_cooling 16_14_12.308 log.txt,16.0,16.0,1509,2016-02-19,16.0,True,48.5,-18.5,colocated,right
22,1396.1562,1,460,1105,2857,4205,504,8.5,200,0,0,1400.5815,1,1,736413.725320454,24_03_2016 level23_spatial_Robin_cooling 17_01_11.531 log.txt,10.0,10.0,1509,2016-03-24,10.0,True,48.5,-18.5,colocated,right
18,1714.5974,0,460,1105,2857,4205,506,8.5,200,0,0,1716.019,1,1,736412.598709403,23_03_2016 level23_spatial_Robin_cooling 13_53_33.895 log.txt,12.0,12.0,1509,2016-03-23,12.0,True,48.5,-18.5,colocated,right
18,1714.5974,0,460,1105,2857,4205,506,8.5,200,0,0,1716.019,1,1,736412.598709403,23_03_2016 level23_spatial_Robin_cooling 13_53_33.895 log.txt,12.0,12.0,1509,2016-03-23,12.0,True,48.5,-18.5,colocated,right
38,1541.6764,0,730,2058,2857,4205,505,8.5,200,1,1,1543.2465,1,1,736413.727004715,24_03_2016 level23_spatial_Robin_cooling 17_01_11.531 log.txt,10.0,10.0,1509,2016-03-24,10.0,True,48.5,-18.5,colocated,right
38,1541.6764,0,730,2058,2857,4205,505,8.5,200,1,1,1543.2465,1,1,736413.727004715,24_03_2016 level23_spatial_Robin_cooling 17_01_11.531 log.txt,10.0,10.0,1509,2016-03-24,10.0,True,48.5,-18.5,colocated,right
38,1541.6764,0,730,2058,2857,4205,505,8.5,200,1,1,1543.2465,1,1,736413.727004715,24_03_2016 level23_spatial_Robin_cooling 17_01_11.531 log.txt,10.0,10.0,1509,2016-03-24,10.0,True,48.5,-18.5,colocated,right
79,1499.1286,0,730,2058,2857,4205,509,8.5,200,1,0,1501.302,0,1,736406.738298988,17_03_2016 level23_spatial_Robin_cooling 17_18_09.904 log.txt,11.0,11.0,1509,2016-03-17,11.0,True,48.5,-18.5,colocated,right
79,1499.1286,0,730,2058,2857,4205,509,8.5,200,1,0,1501.302,0,1,736406.738298988,17_03_2016 level23_spatial_Robin_cooling 17_18_09.904 log.txt,11.0,11.0,1509,2016-03-17,11.0,True,48.5,-18.5,colocated,right
79,1499.1286,0,730,2058,2857,4205,509,8.5,200,1,0,1501.302,0,1,736406.738298988,17_03_2016 level23_spatial_Robin_cooling 17_18_09.904 log.txt,11.0,11.0,1509,2016-03-17,11.0,True,48.5,-18.5,colocated,right
38,1541.6764,0,730,2058,2857,4205,505,8.5,200,1,1,1543.2465,1,1,736413.727004715,24_03_2016 level23_spatial_Robin_cooling 17_01_11.531 log.txt,10.0,10.0,1509,2016-03-24,10.0,True,48.5,-18.5,colocated,right
26,1390.2178,0,460,1105,2857,4205,511,5.5,200,0,1,1391.8429,0,0,736379.692621826,19_02_2016 level23_spatial_Robin_cooling 16_14_12.308 log.txt,9.0,9.0,1509,2016-02-19,9.0,True,51.5,-15.5,colocated,left
26,1390.2178,0,460,1105,2857,4205,511,5.5,200,0,1,1391.8429,0,0,736379.692621826,19_02_2016 level23_spatial_Robin_cooling 16_14_12.308 log.txt,9.0,9.0,1509,2016-02-19,9.0,True,51.5,-15.5,colocated,left
13,1294.5655,1,460,1105,2857,4205,504,5.5,200,0,1,1300.0686,0,0,736413.724144635,24_03_2016 level23_spatial_Robin_cooling 17_01_11.531 log.txt,11.0,11.0,1509,2016-03-24,11.0,True,51.5,-15.5,colocated,left
52,1279.3115,0,460,1105,2857,4205,504,5.5,200,0,1,1280.9487,0,0,736406.735754809,17_03_2016 level23_spatial_Robin_cooling 17_18_09.904 log.txt,11.0,11.0,1509,2016-03-17,11.0,True,51.5,-15.5,colocated,left
52,1279.3115,0,460,1105,2857,4205,504,5.5,200,0,1,1280.9487,0,0,736406.735754809,17_03_2016 level23_spatial_Robin_cooling 17_18_09.904 log.txt,11.0,11.0,1509,2016-03-17,11.0,True,51.5,-15.5,colocated,left
44,444.6086,0,460,1105,2857,4205,503,5.5,200,0,0,445.7426,1,0,736411.707450435,22_03_2016 level23_spatial_Robin_cooling 16_51_19.109 log.txt,10.0,10.0,1509,2016-03-22,10.0,True,51.5,-15.5,colocated,left
26,1390.2178,0,460,1105,2857,4205,511,5.5,200,0,1,1391.8429,0,0,736379.692621826,19_02_2016 level23_spatial_Robin_cooling 16_14_12.308 log.txt,9.0,9.0,1509,2016-02-19,9.0,True,51.5,-15.5,colocated,left
89,1903.2647,0,730,2058,2857,4205,506,5.5,200,1,1,1904.6828,1,0,736379.698559869,19_02_2016 level23_spatial_Robin_cooling 16_14_12.308 log.txt,9.0,9.0,1509,2016-02-19,9.0,True,51.5,-15.5,colocated,left
56,543.7811,0,730,2058,2857,4205,501,5.5,200,1,0,545.2201,0,0,736411.708598265,22_03_2016 level23_spatial_Robin_cooling 16_51_19.109 log.txt,9.0,9.0,1509,2016-03-22,9.0,True,51.5,-15.5,colocated,left
65,1720.8836,0,730,2058,2857,4205,501,5.5,200,1,1,1722.2892,1,0,736414.729202171,25_03_2016 level23_spatial_Robin_cooling 17_01_22.184 log.txt,9.0,9.0,1509,2016-03-25,9.0,True,51.5,-15.5,colocated,left
65,1720.8836,0,730,2058,2857,4205,501,5.5,200,1,1,1722.2892,1,0,736414.729202171,25_03_2016 level23_spatial_Robin_cooling 17_01_22.184 log.txt,9.0,9.0,1509,2016-03-25,9.0,True,51.5,-15.5,colocated,left
98,2128.5388,1,730,2058,2857,4205,503,5.5,200,1,0,2131.9864,0,0,736413.733797104,24_03_2016 level23_spatial_Robin_cooling 17_01_11.531 log.txt,10.0,10.0,1509,2016-03-24,10.0,True,51.5,-15.5,colocated,left
49,1640.7536,1,730,2058,2857,4205,502,5.5,200,1,1,1646.8735,1,0,736413.728151442,24_03_2016 level23_spatial_Robin_cooling 17_01_11.531 log.txt,10.0,10.0,1509,2016-03-24,10.0,True,51.5,-15.5,colocated,left
89,1903.2647,0,730,2058,2857,4205,506,5.5,200,1,1,1904.6828,1,0,736379.698559869,19_02_2016 level23_spatial_Robin_cooling 16_14_12.308 log.txt,9.0,9.0,1509,2016-02-19,9.0,True,51.5,-15.5,colocated,left
9,1081.7837,0,460,1105,2857,4205,504,5.5,200,0,0,1082.9345,1,1,736414.721805182,25_03_2016 level23_spatial_Robin_cooling 17_01_22.184 log.txt,11.0,11.0,1509,2016-03-25,11.0,True,51.5,-15.5,colocated,right
55,1623.038,1,460,1105,2857,4205,507,5.5,200,0,1,1627.4471,0,1,736379.695316505,19_02_2016 level23_spatial_Robin_cooling 16_14_12.308 log.txt,8.0,8.0,1509,2016-02-19,8.0,True,51.5,-15.5,colocated,right
55,1623.038,1,460,1105,2857,4205,507,5.5,200,0,1,1627.4471,0,1,736379.695316505,19_02_2016 level23_spatial_Robin_cooling 16_14_12.308 log.txt,8.0,8.0,1509,2016-02-19,8.0,True,51.5,-15.5,colocated,right
55,1623.038,1,460,1105,2857,4205,507,5.5,200,0,1,1627.4471,0,1,736379.695316505,19_02_2016 level23_spatial_Robin_cooling 16_14_12.308 log.txt,8.0,8.0,1509,2016-02-19,8.0,True,51.5,-15.5,colocated,right
8,958.0556,0,460,1105,2857,4205,509,5.5,200,0,0,959.2884,1,1,736406.732036569,17_03_2016 level23_spatial_Robin_cooling 17_18_09.904 log.txt,10.0,10.0,1509,2016-03-17,10.0,True,51.5,-15.5,colocated,right
71,783.2386,0,460,1105,2857,4205,506,5.5,200,0,1,786.7195,0,1,736411.711369764,22_03_2016 level23_spatial_Robin_cooling 16_51_19.109 log.txt,10.0,10.0,1509,2016-03-22,10.0,True,51.5,-15.5,colocated,right
9,1081.7837,0,460,1105,2857,4205,504,5.5,200,0,0,1082.9345,1,1,736414.721805182,25_03_2016 level23_spatial_Robin_cooling 17_01_22.184 log.txt,11.0,11.0,1509,2016-03-25,11.0,True,51.5,-15.5,colocated,right
42,423.2461,0,730,2058,2857,4205,505,5.5,200,1,1,429.0591,1,1,736411.707203184,22_03_2016 level23_spatial_Robin_cooling 16_51_19.109 log.txt,10.0,10.0,1509,2016-03-22,10.0,True,51.5,-15.5,colocated,right
2,1162.3018,0,730,2058,2857,4205,505,5.5,200,1,1,1168.1609,1,1,736413.722613806,24_03_2016 level23_spatial_Robin_cooling 17_01_11.531 log.txt,12.0,12.0,1509,2016-03-24,12.0,True,51.5,-15.5,colocated,right
34,1333.7639,1,730,2058,2857,4205,505,5.5,200,1,1,1339.9666,1,1,736414.724721619,25_03_2016 level23_spatial_Robin_cooling 17_01_22.184 log.txt,10.0,10.0,1509,2016-03-25,10.0,True,51.5,-15.5,colocated,right
34,1333.7639,1,730,2058,2857,4205,505,5.5,200,1,1,1339.9666,1,1,736414.724721619,25_03_2016 level23_spatial_Robin_cooling 17_01_22.184 log.txt,10.0,10.0,1509,2016-03-25,10.0,True,51.5,-15.5,colocated,right
17,1025.5385,0,730,2058,2857,4205,511,5.5,200,1,1,1026.9252,1,1,736406.732817622,17_03_2016 level23_spatial_Robin_cooling 17_18_09.904 log.txt,10.0,10.0,1509,2016-03-17,10.0,True,51.5,-15.5,colocated,right
42,423.2461,0,730,2058,2857,4205,505,5.5,200,1,1,429.0591,1,1,736411.707203184,22_03_2016 level23_spatial_Robin_cooling 16_51_19.109 log.txt,10.0,10.0,1509,2016-03-22,10.0,True,51.5,-15.5,colocated,right
42,423.2461,0,730,2058,2857,4205,505,5.5,200,1,1,429.0591,1,1,736411.707203184,22_03_2016 level23_spatial_Robin_cooling 16_51_19.109 log.txt,10.0,10.0,1509,2016-03-22,10.0,True,51.5,-15.5,colocated,right
42,1942.4885,0,460,1105,2857,4205,503,2.5,200,0,1,1944.5575,0,0,736412.601347031,23_03_2016 level23_spatial_Robin_cooling 13_53_33.895 log.txt,12.0,12.0,1509,2016-03-23,12.0,True,54.5,-12.5,colocated,left
82,1952.9053,1,460,1105,2857,4205,507,2.5,200,0,0,1957.4461,1,0,736413.731764309,24_03_2016 level23_spatial_Robin_cooling 17_01_11.531 log.txt,10.0,10.0,1509,2016-03-24,10.0,True,54.5,-12.5,colocated,left
53,1285.0302,1,460,1105,2857,4205,506,2.5,200,0,1,1289.9297,0,0,736364.700972317,04_02_2016 level23_spatial_Robin_cooling 16_27_58.978 log.txt,12.0,12.0,1509,2016-02-04,12.0,True,54.5,-12.5,colocated,left
35,1497.1301,1,460,1105,2857,4205,509,2.5,200,0,0,1501.8467,1,0,736350.702127964,21_01_2016 level23_spatial_Robin_cooling 16_26_06.726 log.txt,15.0,15.0,1509,2016-01-21,15.0,True,54.5,-12.5,colocated,left
35,1497.1301,1,460,1105,2857,4205,509,2.5,200,0,0,1501.8467,1,0,736350.702127964,21_01_2016 level23_spatial_Robin_cooling 16_26_06.726 log.txt,15.0,15.0,1509,2016-01-21,15.0,True,54.5,-12.5,colocated,left
91,1612.5315,0,460,1105,2857,4205,505,2.5,200,0,1,1614.4469,0,0,736355.725427529,26_01_2016 level23_spatial_Robin_cooling 16_57_44.407 log.txt,11.0,11.0,1509,2016-01-26,11.0,True,54.5,-12.5,colocated,left
57,1637.7912,1,460,1105,2857,4205,507,2.5,200,0,1,1643.1332,0,0,736379.695487259,19_02_2016 level23_spatial_Robin_cooling 16_14_12.308 log.txt,8.0,8.0,1509,2016-02-19,8.0,True,54.5,-12.5,colocated,left
81,1927.8103,0,730,2058,2857,4205,507,2.5,200,1,1,1929.1193,1,0,736350.707112689,21_01_2016 level23_spatial_Robin_cooling 16_26_06.726 log.txt,10.0,10.0,1509,2016-01-21,10.0,True,54.5,-12.5,colocated,left
42,1413.111,0,730,2058,2857,4205,504,2.5,200,1,1,1414.571,1,0,736357.702720498,28_01_2016 level23_spatial_Robin_cooling 16_28_21.940 log.txt,11.0,11.0,1509,2016-01-28,11.0,True,54.5,-12.5,colocated,left
66,1353.8859,1,730,2058,2857,4205,508,2.5,200,1,0,1358.9607,0,0,736355.722433946,26_01_2016 level23_spatial_Robin_cooling 16_57_44.407 log.txt,11.0,11.0,1509,2016-01-26,11.0,True,54.5,-12.5,colocated,left
33,1843.9766,0,730,2058,2857,4205,509,2.5,200,1,0,1845.1815,0,0,736412.600206847,23_03_2016 level23_spatial_Robin_cooling 13_53_33.895 log.txt,11.0,11.0,1509,2016-03-23,11.0,True,54.5,-12.5,colocated,left
93,2082.0133,0,730,2058,2857,4205,511,2.5,200,1,1,2083.6131,1,0,736413.733258615,24_03_2016 level23_spatial_Robin_cooling 17_01_11.531 log.txt,10.0,10.0,1509,2016-03-24,10.0,True,54.5,-12.5,colocated,left
81,1927.8103,0,730,2058,2857,4205,507,2.5,200,1,1,1929.1193,1,0,736350.707112689,21_01_2016 level23_spatial_Robin_cooling 16_26_06.726 log.txt,10.0,10.0,1509,2016-01-21,10.0,True,54.5,-12.5,colocated,left
66,1353.8859,1,730,2058,2857,4205,508,2.5,200,1,0,1358.9607,0,0,736355.722433946,26_01_2016 level23_spatial_Robin_cooling 16_57_44.407 log.txt,11.0,11.0,1509,2016-01-26,11.0,True,54.5,-12.5,colocated,left
30,1054.495,1,460,1105,2857,4205,507,2.5,200,0,0,1057.7043,1,1,736355.718968773,26_01_2016 level23_spatial_Robin_cooling 16_57_44.407 log.txt,17.0,17.0,1509,2016-01-26,17.0,True,54.5,-12.5,colocated,right
30,1054.495,1,460,1105,2857,4205,507,2.5,200,0,0,1057.7043,1,1,736355.718968773,26_01_2016 level23_spatial_Robin_cooling 16_57_44.407 log.txt,17.0,17.0,1509,2016-01-26,17.0,True,54.5,-12.5,colocated,right
45,1205.7406,0,460,1105,2857,4205,503,2.5,200,0,1,1207.5881,0,1,736364.700054613,04_02_2016 level23_spatial_Robin_cooling 16_27_58.978 log.txt,13.0,13.0,1509,2016-02-04,13.0,True,54.5,-12.5,colocated,right
69,1733.544,0,460,1105,2857,4205,502,2.5,200,0,0,1734.8359,1,1,736379.696595509,19_02_2016 level23_spatial_Robin_cooling 16_14_12.308 log.txt,8.0,8.0,1509,2016-02-19,8.0,True,54.5,-12.5,colocated,right
69,1733.544,0,460,1105,2857,4205,502,2.5,200,0,0,1734.8359,1,1,736379.696595509,19_02_2016 level23_spatial_Robin_cooling 16_14_12.308 log.txt,8.0,8.0,1509,2016-02-19,8.0,True,54.5,-12.5,colocated,right
62,1346.2581,0,460,1105,2857,4205,510,2.5,200,0,1,1348.8745,0,1,736406.736529654,17_03_2016 level23_spatial_Robin_cooling 17_18_09.904 log.txt,11.0,11.0,1509,2016-03-17,11.0,True,54.5,-12.5,colocated,right
45,1205.7406,0,460,1105,2857,4205,503,2.5,200,0,1,1207.5881,0,1,736364.700054613,04_02_2016 level23_spatial_Robin_cooling 16_27_58.978 log.txt,13.0,13.0,1509,2016-02-04,13.0,True,54.5,-12.5,colocated,right
33,1339.4546,0,730,2058,2857,4205,509,2.5,200,1,1,1341.0638,1,1,736357.701867993,28_01_2016 level23_spatial_Robin_cooling 16_28_21.940 log.txt,12.0,12.0,1509,2016-01-28,12.0,True,54.5,-12.5,colocated,right
24,1003.3706,1,730,2058,2857,4205,509,2.5,200,1,0,1008.0041,0,1,736355.718377055,26_01_2016 level23_spatial_Robin_cooling 16_57_44.407 log.txt,18.1112044296699,18.1112044296699,1509,2016-01-26,18.1112044296699,True,54.5,-12.5,colocated,right
58,1655.3628,1,730,2058,2857,4205,507,2.5,200,1,1,1661.8562,1,1,736414.728443829,25_03_2016 level23_spatial_Robin_cooling 17_01_22.184 log.txt,9.0,9.0,1509,2016-03-25,9.0,True,54.5,-12.5,colocated,right
33,1090.9135,0,730,2058,2857,4205,503,2.5,200,1,0,1092.7664,0,1,736364.698725596,04_02_2016 level23_spatial_Robin_cooling 16_27_58.978 log.txt,15.0,15.0,1509,2016-02-04,15.0,True,54.5,-12.5,colocated,right
59,578.1242,0,730,2058,2857,4205,511,2.5,200,1,0,579.2783,0,1,736411.708995755,22_03_2016 level23_spatial_Robin_cooling 16_51_19.109 log.txt,9.0,9.0,1509,2016-03-22,9.0,True,54.5,-12.5,colocated,right
33,1090.9135,0,730,2058,2857,4205,503,2.5,200,1,0,1092.7664,0,1,736364.698725596,04_02_2016 level23_spatial_Robin_cooling 16_27_58.978 log.txt,15.0,15.0,1509,2016-02-04,15.0,True,54.5,-12.5,colocated,right
24,1003.3706,1,730,2058,2857,4205,509,2.5,200,1,0,1008.0041,0,1,736355.718377055,26_01_2016 level23_spatial_Robin_cooling 16_57_44.407 log.txt,18.1112044296699,18.1112044296699,1509,2016-01-26,18.1112044296699,True,54.5,-12.5,colocated,right
10,1109.104,1,460,1105,2857,4205,501,-0.5,200,0,1,1114.3889,0,0,736414.722121389,25_03_2016 level23_spatial_Robin_cooling 17_01_22.184 log.txt,11.0,11.0,1509,2016-03-25,11.0,True,57.5,-9.5,colocated,left
62,1357.4903,0,460,1105,2857,4205,502,-0.5,200,0,1,1359.8906,0,0,736351.722548557,22_01_2016 level23_spatial_Robin_cooling 16_57_50.705 log.txt,10.0,10.0,1509,2016-01-22,10.0,True,57.5,-9.5,colocated,left
26,1439.5146,0,460,1105,2857,4205,505,-0.5,200,0,1,1441.4396,0,0,736413.725822287,24_03_2016 level23_spatial_Robin_cooling 17_01_11.531 log.txt,10.0,10.0,1509,2016-03-24,10.0,True,57.5,-9.5,colocated,left
27,1421.4365,0,460,1105,2857,4205,507,-0.5,200,0,0,1422.8149,1,0,736350.701251881,21_01_2016 level23_spatial_Robin_cooling 16_26_06.726 log.txt,17.0,17.0,1509,2016-01-21,17.0,True,57.5,-9.5,colocated,left
38,1376.758,1,460,1105,2857,4205,504,-0.5,200,0,0,1380.7303,1,0,736357.702299745,28_01_2016 level23_spatial_Robin_cooling 16_28_21.940 log.txt,12.0,12.0,1509,2016-01-28,12.0,True,57.5,-9.5,colocated,left
10,1109.104,1,460,1105,2857,4205,501,-0.5,200,0,1,1114.3889,0,0,736414.722121389,25_03_2016 level23_spatial_Robin_cooling 17_01_22.184 log.txt,11.0,11.0,1509,2016-03-25,11.0,True,57.5,-9.5,colocated,left
27,1421.4365,0,460,1105,2857,4205,507,-0.5,200,0,0,1422.8149,1,0,736350.701251881,21_01_2016 level23_spatial_Robin_cooling 16_26_06.726 log.txt,17.0,17.0,1509,2016-01-21,17.0,True,57.5,-9.5,colocated,left
21,1384.1877,0,730,2058,2857,4205,508,-0.5,200,1,1,1385.769,1,0,736413.725181929,24_03_2016 level23_spatial_Robin_cooling 17_01_11.531 log.txt,9.28129871958641,9.28129871958641,1509,2016-03-24,9.28129871958641,True,57.5,-9.5,colocated,left
13,909.0741,0,730,2058,2857,4205,501,-0.5,200,1,0,910.9558,0,0,736364.696620973,04_02_2016 level23_spatial_Robin_cooling 16_27_58.978 log.txt,20.0,20.0,1509,2016-02-04,20.0,True,57.5,-9.5,colocated,left
75,1463.5773,0,730,2058,2857,4205,509,-0.5,200,1,1,1466.6572,1,0,736351.723776415,22_01_2016 level23_spatial_Robin_cooling 16_57_50.705 log.txt,9.75461387697861,9.75461387697861,1509,2016-01-22,9.75461387697861,True,57.5,-9.5,colocated,left
4,66.8488,0,730,2058,2857,4205,502,-0.5,200,1,0,68.7412,0,0,736411.703078215,22_03_2016 level23_spatial_Robin_cooling 16_51_19.109 log.txt,11.0,11.0,1509,2016-03-22,11.0,True,57.5,-9.5,colocated,left
6,1187.0947,0,730,2058,2857,4205,502,-0.5,200,1,0,1188.8302,0,0,736379.690270865,19_02_2016 level23_spatial_Robin_cooling 16_14_12.308 log.txt,15.0,15.0,1509,2016-02-19,15.0,True,57.5,-9.5,colocated,left
44,1584.1067,1,730,2058,2857,4205,502,-0.5,200,1,0,1589.3404,0,0,736350.703134638,21_01_2016 level23_spatial_Robin_cooling 16_26_06.726 log.txt,14.0,14.0,1509,2016-01-21,14.0,True,57.5,-9.5,colocated,left
75,1463.5773,0,730,2058,2857,4205,509,-0.5,200,1,1,1466.6572,1,0,736351.723776415,22_01_2016 level23_spatial_Robin_cooling 16_57_50.705 log.txt,9.75461387697861,9.75461387697861,1509,2016-01-22,9.75461387697861,True,57.5,-9.5,colocated,left
59,860.4635,0,460,1105,2857,4205,510,-0.5,200,0,0,861.8261,1,1,736404.686670075,15_03_2016 level23_spatial_Robin_cooling 16_14_27.831 log.txt,10.0,10.0,1509,2016-03-15,10.0,True,57.5,-9.5,colocated,right
51,1218.1505,0,460,1105,2857,4205,503,-0.5,200,0,0,1219.4808,1,1,736355.720862934,26_01_2016 level23_spatial_Robin_cooling 16_57_44.407 log.txt,13.0,13.0,1509,2016-01-26,13.0,True,57.5,-9.5,colocated,right
59,860.4635,0,460,1105,2857,4205,510,-0.5,200,0,0,861.8261,1,1,736404.686670075,15_03_2016 level23_spatial_Robin_cooling 16_14_27.831 log.txt,10.0,10.0,1509,2016-03-15,10.0,True,57.5,-9.5,colocated,right
18,957.9148,0,460,1105,2857,4205,503,-0.5,200,0,0,959.2042,1,1,736364.697186259,04_02_2016 level23_spatial_Robin_cooling 16_27_58.978 log.txt,18.0,18.0,1509,2016-02-04,18.0,True,57.5,-9.5,colocated,right
2,981.4697,0,460,1105,2857,4205,502,-0.5,200,0,0,982.9238,1,1,736414.72064414,25_03_2016 level23_spatial_Robin_cooling 17_01_22.184 log.txt,11.0,11.0,1509,2016-03-25,11.0,True,57.5,-9.5,colocated,right
113,2222.8206,0,460,1105,2857,4205,503,-0.5,200,0,0,2224.3647,1,1,736350.71052716,21_01_2016 level23_spatial_Robin_cooling 16_26_06.726 log.txt,9.0,9.0,1509,2016-01-21,9.0,True,57.5,-9.5,colocated,right
2,981.4697,0,460,1105,2857,4205,502,-0.5,200,0,0,982.9238,1,1,736414.72064414,25_03_2016 level23_spatial_Robin_cooling 17_01_22.184 log.txt,11.0,11.0,1509,2016-03-25,11.0,True,57.5,-9.5,colocated,right
94,1661.515,0,730,2058,2857,4205,511,-0.5,200,1,1,1663.2458,1,1,736355.725994468,26_01_2016 level23_spatial_Robin_cooling 16_57_44.407 log.txt,10.0,10.0,1509,2016-01-26,10.0,True,57.5,-9.5,colocated,right
2,349.2419,0,730,2058,2857,4205,508,-0.5,200,1,1,351.3985,1,1,736404.680753159,15_03_2016 level23_spatial_Robin_cooling 16_14_27.831 log.txt,11.0,11.0,1509,2016-03-15,11.0,True,57.5,-9.5,colocated,right
96,1950.6522,0,730,2058,2857,4205,505,-0.5,200,1,0,1952.8135,0,1,736379.699108336,19_02_2016 level23_spatial_Robin_cooling 16_14_12.308 log.txt,9.0,9.0,1509,2016-02-19,9.0,True,57.5,-9.5,colocated,right
60,1675.0082,0,730,2058,2857,4205,508,-0.5,200,1,1,1677.1319,1,1,736414.728671206,25_03_2016 level23_spatial_Robin_cooling 17_01_22.184 log.txt,9.0,9.0,1509,2016-03-25,9.0,True,57.5,-9.5,colocated,right
48,2010.8753,0,730,2058,2857,4205,501,-0.5,200,1,0,2011.9465,0,1,736412.602138545,23_03_2016 level23_spatial_Robin_cooling 13_53_33.895 log.txt,12.0,12.0,1509,2016-03-23,12.0,True,57.5,-9.5,colocated,right
48,2010.8753,0,730,2058,2857,4205,501,-0.5,200,1,0,2011.9465,0,1,736412.602138545,23_03_2016 level23_spatial_Robin_cooling 13_53_33.895 log.txt,12.0,12.0,1509,2016-03-23,12.0,True,57.5,-9.5,colocated,right
25,1433.2348,0,730,2058,2857,4205,503,-0.5,200,1,1,1434.8616,1,1,736413.725749604,24_03_2016 level23_spatial_Robin_cooling 17_01_11.531 log.txt,10.0,10.0,1509,2016-03-24,10.0,True,57.5,-9.5,colocated,right
31,1448.2366,0,460,1105,2857,4205,508,-3.5,200,0,1,1449.5803,0,0,736350.701562067,21_01_2016 level23_spatial_Robin_cooling 16_26_06.726 log.txt,16.0,16.0,1509,2016-01-21,16.0,True,60.5,-6.5,colocated,left
31,1448.2366,0,460,1105,2857,4205,508,-3.5,200,0,1,1449.5803,0,0,736350.701562067,21_01_2016 level23_spatial_Robin_cooling 16_26_06.726 log.txt,16.0,16.0,1509,2016-01-21,16.0,True,60.5,-6.5,colocated,left
31,1483.2379,0,460,1105,2857,4205,501,-3.5,200,0,1,1484.9311,0,0,736413.726328344,24_03_2016 level23_spatial_Robin_cooling 17_01_11.531 log.txt,10.0,10.0,1509,2016-03-24,10.0,True,60.5,-6.5,colocated,left
31,1483.2379,0,460,1105,2857,4205,501,-3.5,200,0,1,1484.9311,0,0,736413.726328344,24_03_2016 level23_spatial_Robin_cooling 17_01_11.531 log.txt,10.0,10.0,1509,2016-03-24,10.0,True,60.5,-6.5,colocated,left
31,1448.2366,0,460,1105,2857,4205,508,-3.5,200,0,1,1449.5803,0,0,736350.701562067,21_01_2016 level23_spatial_Robin_cooling 16_26_06.726 log.txt,16.0,16.0,1509,2016-01-21,16.0,True,60.5,-6.5,colocated,left
31,1483.2379,0,460,1105,2857,4205,501,-3.5,200,0,1,1484.9311,0,0,736413.726328344,24_03_2016 level23_spatial_Robin_cooling 17_01_11.531 log.txt,10.0,10.0,1509,2016-03-24,10.0,True,60.5,-6.5,colocated,left
1,1130.0483,0,460,1105,2857,4205,506,-3.5,200,0,1,1131.7465,0,0,736379.689610605,19_02_2016 level23_spatial_Robin_cooling 16_14_12.308 log.txt,17.0,17.0,1509,2016-02-19,17.0,True,60.5,-6.5,colocated,left
57,1312.6183,0,730,2058,2857,4205,505,-3.5,200,1,0,1314.0282,0,0,736406.736140304,17_03_2016 level23_spatial_Robin_cooling 17_18_09.904 log.txt,11.0,11.0,1509,2016-03-17,11.0,True,60.5,-6.5,colocated,left
77,1795.4616,0,730,2058,2857,4205,506,-3.5,200,1,1,1797.4257,1,0,736379.697312148,19_02_2016 level23_spatial_Robin_cooling 16_14_12.308 log.txt,8.0,8.0,1509,2016-02-19,8.0,True,60.5,-6.5,colocated,left
77,1795.4616,0,730,2058,2857,4205,506,-3.5,200,1,1,1797.4257,1,0,736379.697312148,19_02_2016 level23_spatial_Robin_cooling 16_14_12.308 log.txt,8.0,8.0,1509,2016-02-19,8.0,True,60.5,-6.5,colocated,left
64,1768.5912,0,730,2058,2857,4205,510,-3.5,200,1,1,1770.6017,1,0,736350.705269875,21_01_2016 level23_spatial_Robin_cooling 16_26_06.726 log.txt,11.0,11.0,1509,2016-01-21,11.0,True,60.5,-6.5,colocated,left
53,1681.8758,0,730,2058,2857,4205,505,-3.5,200,1,1,1683.3425,1,0,736413.728627393,24_03_2016 level23_spatial_Robin_cooling 17_01_11.531 log.txt,10.0,10.0,1509,2016-03-24,10.0,True,60.5,-6.5,colocated,left
53,1681.8758,0,730,2058,2857,4205,505,-3.5,200,1,1,1683.3425,1,0,736413.728627393,24_03_2016 level23_spatial_Robin_cooling 17_01_11.531 log.txt,10.0,10.0,1509,2016-03-24,10.0,True,60.5,-6.5,colocated,left
6,97.1312,1,730,2058,2857,4205,505,-3.5,200,1,0,102.4528,0,0,736411.703428706,22_03_2016 level23_spatial_Robin_cooling 16_51_19.109 log.txt,11.0,11.0,1509,2016-03-22,11.0,True,60.5,-6.5,colocated,left
35,1878.8286,1,460,1105,2857,4205,505,-3.5,200,0,1,1883.6378,0,1,736412.600610227,23_03_2016 level23_spatial_Robin_cooling 13_53_33.895 log.txt,11.0,11.0,1509,2016-03-23,11.0,True,60.5,-6.5,colocated,right
86,1967.2993,1,460,1105,2857,4205,511,-3.5,200,0,1,1971.3072,0,1,736350.707569737,21_01_2016 level23_spatial_Robin_cooling 16_26_06.726 log.txt,10.0,10.0,1509,2016-01-21,10.0,True,60.5,-6.5,colocated,right
34,1344.7529,0,460,1105,2857,4205,505,-3.5,200,0,0,1346.4398,1,1,736357.701929316,28_01_2016 level23_spatial_Robin_cooling 16_28_21.940 log.txt,12.0,12.0,1509,2016-01-28,12.0,True,60.5,-6.5,colocated,right
86,1967.2993,1,460,1105,2857,4205,511,-3.5,200,0,1,1971.3072,0,1,736350.707569737,21_01_2016 level23_spatial_Robin_cooling 16_26_06.726 log.txt,10.0,10.0,1509,2016-01-21,10.0,True,60.5,-6.5,colocated,right
66,1713.4966,0,460,1105,2857,4205,501,-3.5,200,0,1,1715.2988,0,1,736379.696363479,19_02_2016 level23_spatial_Robin_cooling 16_14_12.308 log.txt,8.0,8.0,1509,2016-02-19,8.0,True,60.5,-6.5,colocated,right
69,1395.1794,1,460,1105,2857,4205,501,-3.5,200,0,0,1401.0563,1,1,736406.737095873,17_03_2016 level23_spatial_Robin_cooling 17_18_09.904 log.txt,11.0,11.0,1509,2016-03-17,11.0,True,60.5,-6.5,colocated,right
20,157.4027,0,460,1105,2857,4205,511,-3.5,200,0,1,158.9126,0,1,736405.66922892,16_03_2016 level23_spatial_Robin_cooling 16_01_03.976 log.txt,12.0,12.0,1509,2016-03-16,12.0,True,60.5,-6.5,colocated,right
17,1204.3695,0,730,2058,2857,4205,501,-3.5,200,1,0,1206.1612,0,1,736357.700304508,28_01_2016 level23_spatial_Robin_cooling 16_28_21.940 log.txt,16.0,16.0,1509,2016-01-28,16.0,True,60.5,-6.5,colocated,right
79,1930.9462,0,730,2058,2857,4205,503,-3.5,200,1,1,1932.3352,1,1,736413.731510153,24_03_2016 level23_spatial_Robin_cooling 17_01_11.531 log.txt,10.0,10.0,1509,2016-03-24,10.0,True,60.5,-6.5,colocated,right
70,582.7926,0,730,2058,2857,4205,509,-3.5,200,1,1,584.2371,1,1,736377.671177345,17_02_2016 level23_spatial_Robin_cooling 15_56_46.930 log.txt,11.0,11.0,1509,2016-02-17,11.0,True,60.5,-6.5,colocated,right
79,1930.9462,0,730,2058,2857,4205,503,-3.5,200,1,1,1932.3352,1,1,736413.731510153,24_03_2016 level23_spatial_Robin_cooling 17_01_11.531 log.txt,10.0,10.0,1509,2016-03-24,10.0,True,60.5,-6.5,colocated,right
42,1518.6115,0,730,2058,2857,4205,509,-3.5,200,1,1,1520.2402,1,1,736379.694107865,19_02_2016 level23_spatial_Robin_cooling 16_14_12.308 log.txt,8.0,8.0,1509,2016-02-19,8.0,True,60.5,-6.5,colocated,right
70,582.7926,0,730,2058,2857,4205,509,-3.5,200,1,1,584.2371,1,1,736377.671177345,17_02_2016 level23_spatial_Robin_cooling 15_56_46.930 log.txt,11.0,11.0,1509,2016-02-17,11.0,True,60.5,-6.5,colocated,right
74,1445.4655,0,730,2058,2857,4205,503,-3.5,200,1,0,1447.441,0,1,736406.737677888,17_03_2016 level23_spatial_Robin_cooling 17_18_09.904 log.txt,11.0,11.0,1509,2016-03-17,11.0,True,60.5,-6.5,colocated,right
62,1693.1072,0,460,1105,2857,4205,510,-6.5,200,0,0,1694.4995,1,0,736414.728880685,25_03_2016 level23_spatial_Robin_cooling 17_01_22.184 log.txt,9.0,9.0,1509,2016-03-25,9.0,True,63.5,-3.5,colocated,left
67,1375.803,0,460,1105,2857,4205,506,-6.5,200,0,0,1377.026,1,0,736406.736871609,17_03_2016 level23_spatial_Robin_cooling 17_18_09.904 log.txt,11.0,11.0,1509,2016-03-17,11.0,True,63.5,-3.5,colocated,left
33,1442.9533,1,460,1105,2857,4205,510,-6.5,200,0,0,1448.2901,1,0,736379.693232191,19_02_2016 level23_spatial_Robin_cooling 16_14_12.308 log.txt,8.0,8.0,1509,2016-02-19,8.0,True,63.5,-3.5,colocated,left
62,1693.1072,0,460,1105,2857,4205,510,-6.5,200,0,0,1694.4995,1,0,736414.728880685,25_03_2016 level23_spatial_Robin_cooling 17_01_22.184 log.txt,9.0,9.0,1509,2016-03-25,9.0,True,63.5,-3.5,colocated,left
65,1796.376,0,460,1105,2857,4205,501,-6.5,200,0,0,1797.9046,1,0,736413.729952627,24_03_2016 level23_spatial_Robin_cooling 17_01_11.531 log.txt,10.0,10.0,1509,2016-03-24,10.0,True,63.5,-3.5,colocated,left
62,1693.1072,0,460,1105,2857,4205,510,-6.5,200,0,0,1694.4995,1,0,736414.728880685,25_03_2016 level23_spatial_Robin_cooling 17_01_22.184 log.txt,9.0,9.0,1509,2016-03-25,9.0,True,63.5,-3.5,colocated,left
67,1795.7023,1,460,1105,2857,4205,508,-6.5,200,0,1,1801.1362,0,0,736350.705583661,21_01_2016 level23_spatial_Robin_cooling 16_26_06.726 log.txt,11.0,11.0,1509,2016-01-21,11.0,True,63.5,-3.5,colocated,left
96,2103.2269,0,730,2058,2857,4205,509,-6.5,200,1,0,2104.7763,0,0,736413.733504142,24_03_2016 level23_spatial_Robin_cooling 17_01_11.531 log.txt,10.0,10.0,1509,2016-03-24,10.0,True,63.5,-3.5,colocated,left
4,1155.9172,1,730,2058,2857,4205,501,-6.5,200,1,1,1161.5678,1,0,736379.689910014,19_02_2016 level23_spatial_Robin_cooling 16_14_12.308 log.txt,15.0,15.0,1509,2016-02-19,15.0,True,63.5,-3.5,colocated,left
4,1155.9172,1,730,2058,2857,4205,501,-6.5,200,1,1,1161.5678,1,0,736379.689910014,19_02_2016 level23_spatial_Robin_cooling 16_14_12.308 log.txt,15.0,15.0,1509,2016-02-19,15.0,True,63.5,-3.5,colocated,left
43,1411.8827,0,730,2058,2857,4205,501,-6.5,200,1,0,1413.7419,0,0,736414.725625772,25_03_2016 level23_spatial_Robin_cooling 17_01_22.184 log.txt,10.0,10.0,1509,2016-03-25,10.0,True,63.5,-3.5,colocated,left
32,296.4876,0,730,2058,2857,4205,505,-6.5,200,1,1,298.0494,1,0,736377.66786363,17_02_2016 level23_spatial_Robin_cooling 15_56_46.930 log.txt,11.0,11.0,1509,2016-02-17,11.0,True,63.5,-3.5,colocated,left
22,1249.1284,0,730,2058,2857,4205,503,-6.5,200,1,0,1250.7504,0,0,736357.700822551,28_01_2016 level23_spatial_Robin_cooling 16_28_21.940 log.txt,15.0,15.0,1509,2016-01-28,15.0,True,63.5,-3.5,colocated,left
32,296.4876,0,730,2058,2857,4205,505,-6.5,200,1,1,298.0494,1,0,736377.66786363,17_02_2016 level23_spatial_Robin_cooling 15_56_46.930 log.txt,11.0,11.0,1509,2016-02-17,11.0,True,63.5,-3.5,colocated,left
42,1146.7106,0,460,1105,2857,4205,511,-6.5,200,0,1,1148.5247,0,1,736355.720036083,26_01_2016 level23_spatial_Robin_cooling 16_57_44.407 log.txt,14.0,14.0,1509,2016-01-26,14.0,True,63.5,-3.5,colocated,right
17,136.337,0,460,1105,2857,4205,505,-6.5,200,0,0,137.6966,1,1,736405.668985104,16_03_2016 level23_spatial_Robin_cooling 16_01_03.976 log.txt,12.0,12.0,1509,2016-03-16,12.0,True,63.5,-3.5,colocated,right
27,1286.3147,1,460,1105,2857,4205,509,-6.5,200,0,0,1290.3664,1,1,736357.701252948,28_01_2016 level23_spatial_Robin_cooling 16_28_21.940 log.txt,13.0,13.0,1509,2016-01-28,13.0,True,63.5,-3.5,colocated,right
17,136.337,0,460,1105,2857,4205,505,-6.5,200,0,0,137.6966,1,1,736405.668985104,16_03_2016 level23_spatial_Robin_cooling 16_01_03.976 log.txt,12.0,12.0,1509,2016-03-16,12.0,True,63.5,-3.5,colocated,right
36,326.1427,0,460,1105,2857,4205,507,-6.5,200,0,1,327.7129,0,1,736377.66820686,17_02_2016 level23_spatial_Robin_cooling 15_56_46.930 log.txt,11.0,11.0,1509,2016-02-17,11.0,True,63.5,-3.5,colocated,right
14,478.3097,0,460,1105,2857,4205,507,-6.5,200,0,0,479.5857,1,1,736404.682246999,15_03_2016 level23_spatial_Robin_cooling 16_14_27.831 log.txt,10.0,10.0,1509,2016-03-15,10.0,True,63.5,-3.5,colocated,right
54,1295.4406,0,460,1105,2857,4205,505,-6.5,200,0,0,1296.7709,1,1,736406.735941488,17_03_2016 level23_spatial_Robin_cooling 17_18_09.904 log.txt,11.0,11.0,1509,2016-03-17,11.0,True,63.5,-3.5,colocated,right
15,1315.2791,1,730,2058,2857,4205,506,-6.5,200,1,0,1320.0607,0,1,736413.724384376,24_03_2016 level23_spatial_Robin_cooling 17_01_11.531 log.txt,11.0,11.0,1509,2016-03-24,11.0,True,63.5,-3.5,colocated,right
23,1353.3301,1,730,2058,2857,4205,508,-6.5,200,1,0,1359.3702,0,1,736379.692194885,19_02_2016 level23_spatial_Robin_cooling 16_14_12.308 log.txt,9.0,9.0,1509,2016-02-19,9.0,True,63.5,-3.5,colocated,right
45,1444.0015,0,730,2058,2857,4205,505,-6.5,200,1,1,1445.5112,1,1,736357.703078027,28_01_2016 level23_spatial_Robin_cooling 16_28_21.940 log.txt,10.0,10.0,1509,2016-01-28,10.0,True,63.5,-3.5,colocated,right
121,999.4562,0,730,2058,2857,4205,506,-6.5,200,1,0,1000.6147,0,1,736377.67599984,17_02_2016 level23_spatial_Robin_cooling 15_56_46.930 log.txt,12.0,12.0,1509,2016-02-17,12.0,True,63.5,-3.5,colocated,right
82,1933.6049,0,730,2058,2857,4205,502,-6.5,200,1,1,1935.2656,1,1,736350.707179756,21_01_2016 level23_spatial_Robin_cooling 16_26_06.726 log.txt,10.0,10.0,1509,2016-01-21,10.0,True,63.5,-3.5,colocated,right
33,1096.7301,0,730,2058,2857,4205,506,-6.5,200,1,1,1098.4497,1,1,736351.719530499,22_01_2016 level23_spatial_Robin_cooling 16_57_50.705 log.txt,14.0,14.0,1509,2016-01-22,14.0,True,63.5,-3.5,colocated,right
22,994.0043,0,730,2058,2857,4205,502,-6.5,200,1,1,995.8478,1,1,736364.697603962,04_02_2016 level23_spatial_Robin_cooling 16_27_58.978 log.txt,17.0,17.0,1509,2016-02-04,17.0,True,63.5,-3.5,colocated,right
25,242.7454,0,460,1105,2857,4205,511,-9.5,200,0,1,245.0277,0,0,736377.667241613,17_02_2016 level23_spatial_Robin_cooling 15_56_46.930 log.txt,11.0,11.0,1509,2016-02-17,11.0,True,66.5,-0.5,colocated,left
25,242.7454,0,460,1105,2857,4205,511,-9.5,200,0,1,245.0277,0,0,736377.667241613,17_02_2016 level23_spatial_Robin_cooling 15_56_46.930 log.txt,11.0,11.0,1509,2016-02-17,11.0,True,66.5,-0.5,colocated,left
7,402.7617,0,460,1105,2857,4205,509,-9.5,200,0,1,405.7571,0,0,736404.681372601,15_03_2016 level23_spatial_Robin_cooling 16_14_27.831 log.txt,10.0,10.0,1509,2016-03-15,10.0,True,66.5,-0.5,colocated,left
11,1150.3154,0,460,1105,2857,4205,507,-9.5,200,0,0,1151.8275,1,0,736357.699678882,28_01_2016 level23_spatial_Robin_cooling 16_28_21.940 log.txt,20.0,20.0,1509,2016-01-28,20.0,True,66.5,-0.5,colocated,left
25,242.7454,0,460,1105,2857,4205,511,-9.5,200,0,1,245.0277,0,0,736377.667241613,17_02_2016 level23_spatial_Robin_cooling 15_56_46.930 log.txt,11.0,11.0,1509,2016-02-17,11.0,True,66.5,-0.5,colocated,left
7,402.7617,0,460,1105,2857,4205,509,-9.5,200,0,1,405.7571,0,0,736404.681372601,15_03_2016 level23_spatial_Robin_cooling 16_14_27.831 log.txt,10.0,10.0,1509,2016-03-15,10.0,True,66.5,-0.5,colocated,left
11,1150.3154,0,460,1105,2857,4205,507,-9.5,200,0,0,1151.8275,1,0,736357.699678882,28_01_2016 level23_spatial_Robin_cooling 16_28_21.940 log.txt,20.0,20.0,1509,2016-01-28,20.0,True,66.5,-0.5,colocated,left
19,194.0444,0,730,2058,2857,4205,501,-9.5,200,1,1,195.4464,1,0,736377.666677944,17_02_2016 level23_spatial_Robin_cooling 15_56_46.930 log.txt,12.0,12.0,1509,2016-02-17,12.0,True,66.5,-0.5,colocated,left
18,507.9205,1,730,2058,2857,4205,505,-9.5,200,1,0,512.4485,0,0,736404.682589716,15_03_2016 level23_spatial_Robin_cooling 16_14_27.831 log.txt,9.24850130758399,9.24850130758399,1509,2016-03-15,9.24850130758399,True,66.5,-0.5,colocated,left
56,1702.2974,0,730,2058,2857,4205,509,-9.5,200,1,1,1703.9221,1,0,736350.704502586,21_01_2016 level23_spatial_Robin_cooling 16_26_06.726 log.txt,12.0,12.0,1509,2016-01-21,12.0,True,66.5,-0.5,colocated,left
18,507.9205,1,730,2058,2857,4205,505,-9.5,200,1,0,512.4485,0,0,736404.682589716,15_03_2016 level23_spatial_Robin_cooling 16_14_27.831 log.txt,9.24850130758399,9.24850130758399,1509,2016-03-15,9.24850130758399,True,66.5,-0.5,colocated,left
18,507.9205,1,730,2058,2857,4205,505,-9.5,200,1,0,512.4485,0,0,736404.682589716,15_03_2016 level23_spatial_Robin_cooling 16_14_27.831 log.txt,9.24850130758399,9.24850130758399,1509,2016-03-15,9.24850130758399,True,66.5,-0.5,colocated,left
56,1702.2974,0,730,2058,2857,4205,509,-9.5,200,1,1,1703.9221,1,0,736350.704502586,21_01_2016 level23_spatial_Robin_cooling 16_26_06.726 log.txt,12.0,12.0,1509,2016-01-21,12.0,True,66.5,-0.5,colocated,left
83,1516.708,0,730,2058,2857,4205,507,-9.5,200,1,1,1518.4044,1,0,736355.724318461,26_01_2016 level23_spatial_Robin_cooling 16_57_44.407 log.txt,10.0,10.0,1509,2016-01-26,10.0,True,66.5,-0.5,colocated,left
11,128.9022,0,460,1105,2857,4205,503,-9.5,200,0,0,129.994,1,1,736377.665923984,17_02_2016 level23_spatial_Robin_cooling 15_56_46.930 log.txt,12.0,12.0,1509,2016-02-17,12.0,True,66.5,-0.5,colocated,right
20,982.8153,0,460,1105,2857,4205,508,-9.5,200,0,1,983.9196,0,1,736364.697474459,04_02_2016 level23_spatial_Robin_cooling 16_27_58.978 log.txt,17.0,17.0,1509,2016-02-04,17.0,True,66.5,-0.5,colocated,right
11,128.9022,0,460,1105,2857,4205,503,-9.5,200,0,0,129.994,1,1,736377.665923984,17_02_2016 level23_spatial_Robin_cooling 15_56_46.930 log.txt,12.0,12.0,1509,2016-02-17,12.0,True,66.5,-0.5,colocated,right
52,792.4208,0,460,1105,2857,4205,511,-9.5,200,0,1,794.2819,0,1,736404.685882544,15_03_2016 level23_spatial_Robin_cooling 16_14_27.831 log.txt,10.0,10.0,1509,2016-03-15,10.0,True,66.5,-0.5,colocated,right
11,128.9022,0,460,1105,2857,4205,503,-9.5,200,0,0,129.994,1,1,736377.665923984,17_02_2016 level23_spatial_Robin_cooling 15_56_46.930 log.txt,12.0,12.0,1509,2016-02-17,12.0,True,66.5,-0.5,colocated,right
52,792.4208,0,460,1105,2857,4205,511,-9.5,200,0,1,794.2819,0,1,736404.685882544,15_03_2016 level23_spatial_Robin_cooling 16_14_27.831 log.txt,10.0,10.0,1509,2016-03-15,10.0,True,66.5,-0.5,colocated,right
27,1031.3874,1,460,1105,2857,4205,508,-9.5,200,0,0,1036.3308,1,1,736355.718701324,26_01_2016 level23_spatial_Robin_cooling 16_57_44.407 log.txt,18.0,18.0,1509,2016-01-26,18.0,True,66.5,-0.5,colocated,right
37,1368.0908,1,730,2058,2857,4205,510,-9.5,200,1,1,1371.9146,1,1,736357.702199431,28_01_2016 level23_spatial_Robin_cooling 16_28_21.940 log.txt,12.0,12.0,1509,2016-01-28,12.0,True,66.5,-0.5,colocated,right
49,1198.5827,0,730,2058,2857,4205,509,-9.5,200,1,1,1200.0409,1,1,736355.720636455,26_01_2016 level23_spatial_Robin_cooling 16_57_44.407 log.txt,14.0,14.0,1509,2016-01-26,14.0,True,66.5,-0.5,colocated,right
49,1198.5827,0,730,2058,2857,4205,509,-9.5,200,1,1,1200.0409,1,1,736355.720636455,26_01_2016 level23_spatial_Robin_cooling 16_57_44.407 log.txt,14.0,14.0,1509,2016-01-26,14.0,True,66.5,-0.5,colocated,right
14,150.5096,0,730,2058,2857,4205,504,-9.5,200,1,1,151.9477,1,1,736377.66617407,17_02_2016 level23_spatial_Robin_cooling 15_56_46.930 log.txt,12.0,12.0,1509,2016-02-17,12.0,True,66.5,-0.5,colocated,right
14,150.5096,0,730,2058,2857,4205,504,-9.5,200,1,1,151.9477,1,1,736377.66617407,17_02_2016 level23_spatial_Robin_cooling 15_56_46.930 log.txt,12.0,12.0,1509,2016-02-17,12.0,True,66.5,-0.5,colocated,right
37,1368.0908,1,730,2058,2857,4205,510,-9.5,200,1,1,1371.9146,1,1,736357.702199431,28_01_2016 level23_spatial_Robin_cooling 16_28_21.940 log.txt,12.0,12.0,1509,2016-01-28,12.0,True,66.5,-0.5,colocated,right
37,1368.0908,1,730,2058,2857,4205,510,-9.5,200,1,1,1371.9146,1,1,736357.702199431,28_01_2016 level23_spatial_Robin_cooling 16_28_21.940 log.txt,12.0,12.0,1509,2016-01-28,12.0,True,66.5,-0.5,colocated,right
72,1397.1613,1,460,1105,2857,4205,508,-12.5,200,0,1,1401.4171,0,0,736355.722934818,26_01_2016 level23_spatial_Robin_cooling 16_57_44.407 log.txt,11.0,11.0,1509,2016-01-26,11.0,True,69.5,2.5,colocated,left
80,1501.9988,0,460,1105,2857,4205,510,-12.5,200,0,1,1504.2712,0,0,736351.724221109,22_01_2016 level23_spatial_Robin_cooling 16_57_50.705 log.txt,10.0,10.0,1509,2016-01-22,10.0,True,69.5,2.5,colocated,left
51,1520.1232,1,460,1105,2857,4205,510,-12.5,200,0,0,1523.4197,1,0,736357.703959065,28_01_2016 level23_spatial_Robin_cooling 16_28_21.940 log.txt,9.0,9.0,1509,2016-01-28,9.0,True,69.5,2.5,colocated,left
98,2084.6608,0,460,1105,2857,4205,508,-12.5,200,0,1,2086.1128,0,0,736350.708928088,21_01_2016 level23_spatial_Robin_cooling 16_26_06.726 log.txt,11.0,11.0,1509,2016-01-21,11.0,True,69.5,2.5,colocated,left
98,2084.6608,0,460,1105,2857,4205,508,-12.5,200,0,1,2086.1128,0,0,736350.708928088,21_01_2016 level23_spatial_Robin_cooling 16_26_06.726 log.txt,11.0,11.0,1509,2016-01-21,11.0,True,69.5,2.5,colocated,left
72,1397.1613,1,460,1105,2857,4205,508,-12.5,200,0,1,1401.4171,0,0,736355.722934818,26_01_2016 level23_spatial_Robin_cooling 16_57_44.407 log.txt,11.0,11.0,1509,2016-01-26,11.0,True,69.5,2.5,colocated,left
72,1397.1613,1,460,1105,2857,4205,508,-12.5,200,0,1,1401.4171,0,0,736355.722934818,26_01_2016 level23_spatial_Robin_cooling 16_57_44.407 log.txt,11.0,11.0,1509,2016-01-26,11.0,True,69.5,2.5,colocated,left
21,1239.7674,1,730,2058,2857,4205,507,-12.5,200,1,1,1245.1246,1,0,736357.700714206,28_01_2016 level23_spatial_Robin_cooling 16_28_21.940 log.txt,15.0,15.0,1509,2016-01-28,15.0,True,69.5,2.5,colocated,left
28,1058.3658,0,730,2058,2857,4205,510,-12.5,200,1,1,1060.577,1,0,736351.719086468,22_01_2016 level23_spatial_Robin_cooling 16_57_50.705 log.txt,15.0,15.0,1509,2016-01-22,15.0,True,69.5,2.5,colocated,left
96,1691.7977,1,730,2058,2857,4205,504,-12.5,200,1,0,1695.6862,0,0,736355.726344962,26_01_2016 level23_spatial_Robin_cooling 16_57_44.407 log.txt,10.0,10.0,1509,2016-01-26,10.0,True,69.5,2.5,colocated,left
28,1058.3658,0,730,2058,2857,4205,510,-12.5,200,1,1,1060.577,1,0,736351.719086468,22_01_2016 level23_spatial_Robin_cooling 16_57_50.705 log.txt,15.0,15.0,1509,2016-01-22,15.0,True,69.5,2.5,colocated,left
96,1691.7977,1,730,2058,2857,4205,504,-12.5,200,1,0,1695.6862,0,0,736355.726344962,26_01_2016 level23_spatial_Robin_cooling 16_57_44.407 log.txt,10.0,10.0,1509,2016-01-26,10.0,True,69.5,2.5,colocated,left
28,1058.3658,0,730,2058,2857,4205,510,-12.5,200,1,1,1060.577,1,0,736351.719086468,22_01_2016 level23_spatial_Robin_cooling 16_57_50.705 log.txt,15.0,15.0,1509,2016-01-22,15.0,True,69.5,2.5,colocated,left
28,1058.3658,0,730,2058,2857,4205,510,-12.5,200,1,1,1060.577,1,0,736351.719086468,22_01_2016 level23_spatial_Robin_cooling 16_57_50.705 log.txt,15.0,15.0,1509,2016-01-22,15.0,True,69.5,2.5,colocated,left
98,1731.0317,0,460,1105,2857,4205,510,-12.5,200,0,1,1753.1611,0,1,736355.726799059,26_01_2016 level23_spatial_Robin_cooling 16_57_44.407 log.txt,10.0,10.0,1509,2016-01-26,10.0,True,69.5,2.5,colocated,right
106,2173.9751,1,460,1105,2857,4205,510,-12.5,200,0,0,2177.0188,1,1,736350.709961818,21_01_2016 level23_spatial_Robin_cooling 16_26_06.726 log.txt,10.0,10.0,1509,2016-01-21,10.0,True,69.5,2.5,colocated,right
39,1384.8296,0,460,1105,2857,4205,507,-12.5,200,0,1,1386.4406,0,1,736357.702393167,28_01_2016 level23_spatial_Robin_cooling 16_28_21.940 log.txt,11.0,11.0,1509,2016-01-28,11.0,True,69.5,2.5,colocated,right
64,1372.3871,1,460,1105,2857,4205,504,-12.5,200,0,1,1377.3408,0,1,736351.722720973,22_01_2016 level23_spatial_Robin_cooling 16_57_50.705 log.txt,10.0,10.0,1509,2016-01-22,10.0,True,69.5,2.5,colocated,right
64,1372.3871,1,460,1105,2857,4205,504,-12.5,200,0,1,1377.3408,0,1,736351.722720973,22_01_2016 level23_spatial_Robin_cooling 16_57_50.705 log.txt,10.0,10.0,1509,2016-01-22,10.0,True,69.5,2.5,colocated,right
98,1731.0317,0,460,1105,2857,4205,510,-12.5,200,0,1,1753.1611,0,1,736355.726799059,26_01_2016 level23_spatial_Robin_cooling 16_57_44.407 log.txt,10.0,10.0,1509,2016-01-26,10.0,True,69.5,2.5,colocated,right
106,2173.9751,1,460,1105,2857,4205,510,-12.5,200,0,0,2177.0188,1,1,736350.709961818,21_01_2016 level23_spatial_Robin_cooling 16_26_06.726 log.txt,10.0,10.0,1509,2016-01-21,10.0,True,69.5,2.5,colocated,right
62,883.1616,0,730,2058,2857,4205,509,-12.5,200,1,1,884.6946,1,1,736404.686932785,15_03_2016 level23_spatial_Robin_cooling 16_14_27.831 log.txt,10.0,10.0,1509,2016-03-15,10.0,True,69.5,2.5,colocated,right
84,1949.7366,0,730,2058,2857,4205,508,-12.5,200,1,1,1951.6809,1,1,736350.707366465,21_01_2016 level23_spatial_Robin_cooling 16_26_06.726 log.txt,10.0,10.0,1509,2016-01-21,10.0,True,69.5,2.5,colocated,right
52,1236.0747,0,730,2058,2857,4205,501,-12.5,200,1,1,1237.598,1,1,736355.72107039,26_01_2016 level23_spatial_Robin_cooling 16_57_44.407 log.txt,13.0,13.0,1509,2016-01-26,13.0,True,69.5,2.5,colocated,right
84,1949.7366,0,730,2058,2857,4205,508,-12.5,200,1,1,1951.6809,1,1,736350.707366465,21_01_2016 level23_spatial_Robin_cooling 16_26_06.726 log.txt,10.0,10.0,1509,2016-01-21,10.0,True,69.5,2.5,colocated,right
29,1305.2428,0,730,2058,2857,4205,506,-12.5,200,1,1,1306.7802,1,1,736357.701472023,28_01_2016 level23_spatial_Robin_cooling 16_28_21.940 log.txt,13.0,13.0,1509,2016-01-28,13.0,True,69.5,2.5,colocated,right
62,883.1616,0,730,2058,2857,4205,509,-12.5,200,1,1,884.6946,1,1,736404.686932785,15_03_2016 level23_spatial_Robin_cooling 16_14_27.831 log.txt,10.0,10.0,1509,2016-03-15,10.0,True,69.5,2.5,colocated,right
52,1236.0747,0,730,2058,2857,4205,501,-12.5,200,1,1,1237.598,1,1,736355.72107039,26_01_2016 level23_spatial_Robin_cooling 16_57_44.407 log.txt,13.0,13.0,1509,2016-01-26,13.0,True,69.5,2.5,colocated,right
6,192.7815,0,460,1105,2857,4205,506,8.5,200,0,0,193.7398,1,2,736406.351500156,17_03_2016 level23_spatial_Robin 08_22_56.832 log.txt,37.0,37.0,1509,2016-03-17,37.0,False,48.5,-18.5,separated,left
6,192.7815,0,460,1105,2857,4205,506,8.5,200,0,0,193.7398,1,2,736406.351500156,17_03_2016 level23_spatial_Robin 08_22_56.832 log.txt,37.0,37.0,1509,2016-03-17,37.0,False,48.5,-18.5,separated,left
37,438.9618,1,460,1105,2857,4205,507,8.5,200,0,1,443.4365,0,2,736414.373099245,25_03_2016 level23_spatial_Robin 08_49_56.813 log.txt,37.0,37.0,1509,2016-03-25,37.0,False,48.5,-18.5,separated,left
2,158.9042,1,460,1105,2857,4205,510,8.5,200,0,1,169.7082,0,2,736413.349797826,24_03_2016 level23_spatial_Robin 08_21_03.628 log.txt,37.0,37.0,1509,2016-03-24,37.0,False,48.5,-18.5,separated,left
2,158.9042,1,460,1105,2857,4205,510,8.5,200,0,1,169.7082,0,2,736413.349797826,24_03_2016 level23_spatial_Robin 08_21_03.628 log.txt,37.0,37.0,1509,2016-03-24,37.0,False,48.5,-18.5,separated,left
2,158.9042,1,460,1105,2857,4205,510,8.5,200,0,1,169.7082,0,2,736413.349797826,24_03_2016 level23_spatial_Robin 08_21_03.628 log.txt,37.0,37.0,1509,2016-03-24,37.0,False,48.5,-18.5,separated,left
34,260.2933,0,460,1105,2857,4205,506,8.5,200,0,1,261.7528,0,2,736379.37007667,19_02_2016 level23_spatial_Robin 08_48_34.331 log.txt,37.0,37.0,1509,2016-02-19,37.0,False,48.5,-18.5,separated,left
51,543.7838,0,730,2058,2857,4205,504,8.5,200,1,0,545.2088,0,2,736414.374312463,25_03_2016 level23_spatial_Robin 08_49_56.813 log.txt,37.0,37.0,1509,2016-03-25,37.0,False,48.5,-18.5,separated,left
90,680.2677,1,730,2058,2857,4205,506,8.5,200,1,0,686.1434,0,2,736379.374937485,19_02_2016 level23_spatial_Robin 08_48_34.331 log.txt,37.0,37.0,1509,2016-02-19,37.0,False,48.5,-18.5,separated,left
51,543.7838,0,730,2058,2857,4205,504,8.5,200,1,0,545.2088,0,2,736414.374312463,25_03_2016 level23_spatial_Robin 08_49_56.813 log.txt,37.0,37.0,1509,2016-03-25,37.0,False,48.5,-18.5,separated,left
90,680.2677,1,730,2058,2857,4205,506,8.5,200,1,0,686.1434,0,2,736379.374937485,19_02_2016 level23_spatial_Robin 08_48_34.331 log.txt,37.0,37.0,1509,2016-02-19,37.0,False,48.5,-18.5,separated,left
30,213.737,1,730,2058,2857,4205,506,8.5,200,1,1,216.8539,1,2,736411.367062593,22_03_2016 level23_spatial_Robin 08_45_00.471 log.txt,37.0,37.0,1509,2016-03-22,37.0,False,48.5,-18.5,separated,left
27,350.5788,0,730,2058,2857,4205,510,8.5,200,1,1,351.7688,1,2,736406.353326514,17_03_2016 level23_spatial_Robin 08_22_56.832 log.txt,37.0,37.0,1509,2016-03-17,37.0,False,48.5,-18.5,separated,left
51,543.7838,0,730,2058,2857,4205,504,8.5,200,1,0,545.2088,0,2,736414.374312463,25_03_2016 level23_spatial_Robin 08_49_56.813 log.txt,37.0,37.0,1509,2016-03-25,37.0,False,48.5,-18.5,separated,left
76,714.1744,0,460,1105,2857,4205,502,8.5,200,0,1,715.7308,0,3,736413.356224565,24_03_2016 level23_spatial_Robin 08_21_03.628 log.txt,37.0,37.0,1509,2016-03-24,37.0,False,48.5,-18.5,separated,right
86,829.9159,0,460,1105,2857,4205,504,8.5,200,0,1,831.7081,0,3,736414.377624177,25_03_2016 level23_spatial_Robin 08_49_56.813 log.txt,37.0,37.0,1509,2016-03-25,37.0,False,48.5,-18.5,separated,right
76,714.1744,0,460,1105,2857,4205,502,8.5,200,0,1,715.7308,0,3,736413.356224565,24_03_2016 level23_spatial_Robin 08_21_03.628 log.txt,37.0,37.0,1509,2016-03-24,37.0,False,48.5,-18.5,separated,right
76,714.1744,0,460,1105,2857,4205,502,8.5,200,0,1,715.7308,0,3,736413.356224565,24_03_2016 level23_spatial_Robin 08_21_03.628 log.txt,37.0,37.0,1509,2016-03-24,37.0,False,48.5,-18.5,separated,right
86,829.9159,0,460,1105,2857,4205,504,8.5,200,0,1,831.7081,0,3,736414.377624177,25_03_2016 level23_spatial_Robin 08_49_56.813 log.txt,37.0,37.0,1509,2016-03-25,37.0,False,48.5,-18.5,separated,right
28,357.001,1,460,1105,2857,4205,504,8.5,200,0,1,360.3622,0,3,736406.353400845,17_03_2016 level23_spatial_Robin 08_22_56.832 log.txt,37.0,37.0,1509,2016-03-17,37.0,False,48.5,-18.5,separated,right
85,647.7058,0,460,1105,2857,4205,509,8.5,200,0,0,648.8682,1,3,736379.374560611,19_02_2016 level23_spatial_Robin 08_48_34.331 log.txt,37.0,37.0,1509,2016-02-19,37.0,False,48.5,-18.5,separated,right
29,382.9187,0,730,2058,2857,4205,503,8.5,200,1,1,384.1905,1,3,736414.372450598,25_03_2016 level23_spatial_Robin 08_49_56.813 log.txt,37.0,37.0,1509,2016-03-25,37.0,False,48.5,-18.5,separated,right
51,585.5457,1,730,2058,2857,4205,506,8.5,200,1,1,590.0066,1,3,736412.366440031,23_03_2016 level23_spatial_Robin 08_37_54.873 log.txt,37.0,37.0,1509,2016-03-23,37.0,False,48.5,-18.5,separated,right
13,243.0206,0,730,2058,2857,4205,501,8.5,200,1,1,243.9622,1,3,736406.352081627,17_03_2016 level23_spatial_Robin 08_22_56.832 log.txt,37.0,37.0,1509,2016-03-17,37.0,False,48.5,-18.5,separated,right
13,243.0206,0,730,2058,2857,4205,501,8.5,200,1,1,243.9622,1,3,736406.352081627,17_03_2016 level23_spatial_Robin 08_22_56.832 log.txt,37.0,37.0,1509,2016-03-17,37.0,False,48.5,-18.5,separated,right
13,243.0206,0,730,2058,2857,4205,501,8.5,200,1,1,243.9622,1,3,736406.352081627,17_03_2016 level23_spatial_Robin 08_22_56.832 log.txt,37.0,37.0,1509,2016-03-17,37.0,False,48.5,-18.5,separated,right
36,276.0101,0,730,2058,2857,4205,510,8.5,200,1,1,277.2712,1,3,736379.370258578,19_02_2016 level23_spatial_Robin 08_48_34.331 log.txt,37.0,37.0,1509,2016-02-19,37.0,False,48.5,-18.5,separated,right
59,588.8524,0,730,2058,2857,4205,504,8.5,200,1,1,590.3698,1,3,736413.354774079,24_03_2016 level23_spatial_Robin 08_21_03.628 log.txt,37.0,37.0,1509,2016-03-24,37.0,False,48.5,-18.5,separated,right
44,456.2257,0,460,1105,2857,4205,510,5.5,200,0,1,457.5362,0,2,736406.354549279,17_03_2016 level23_spatial_Robin 08_22_56.832 log.txt,37.0,37.0,1509,2016-03-17,37.0,False,51.5,-15.5,separated,left
45,315.5877,0,460,1105,2857,4205,504,5.5,200,0,1,317.1048,0,2,736411.36824142,22_03_2016 level23_spatial_Robin 08_45_00.471 log.txt,37.0,37.0,1509,2016-03-22,37.0,False,51.5,-15.5,separated,left
44,456.2257,0,460,1105,2857,4205,510,5.5,200,0,1,457.5362,0,2,736406.354549279,17_03_2016 level23_spatial_Robin 08_22_56.832 log.txt,37.0,37.0,1509,2016-03-17,37.0,False,51.5,-15.5,separated,left
45,315.5877,0,460,1105,2857,4205,504,5.5,200,0,1,317.1048,0,2,736411.36824142,22_03_2016 level23_spatial_Robin 08_45_00.471 log.txt,37.0,37.0,1509,2016-03-22,37.0,False,51.5,-15.5,separated,left
45,315.5877,0,460,1105,2857,4205,504,5.5,200,0,1,317.1048,0,2,736411.36824142,22_03_2016 level23_spatial_Robin 08_45_00.471 log.txt,37.0,37.0,1509,2016-03-22,37.0,False,51.5,-15.5,separated,left
11,292.7363,0,460,1105,2857,4205,508,5.5,200,0,0,293.8781,1,2,736412.363051034,23_03_2016 level23_spatial_Robin 08_37_54.873 log.txt,37.0,37.0,1509,2016-03-23,37.0,False,51.5,-15.5,separated,left
45,315.5877,0,460,1105,2857,4205,504,5.5,200,0,1,317.1048,0,2,736411.36824142,22_03_2016 level23_spatial_Robin 08_45_00.471 log.txt,37.0,37.0,1509,2016-03-22,37.0,False,51.5,-15.5,separated,left
32,410.7117,0,730,2058,2857,4205,510,5.5,200,1,1,411.919,1,2,736413.352712265,24_03_2016 level23_spatial_Robin 08_21_03.628 log.txt,37.0,37.0,1509,2016-03-24,37.0,False,51.5,-15.5,separated,left
52,505.3126,0,730,2058,2857,4205,502,5.5,200,1,1,506.7796,1,2,736406.355117414,17_03_2016 level23_spatial_Robin 08_22_56.832 log.txt,37.0,37.0,1509,2016-03-17,37.0,False,51.5,-15.5,separated,left
52,505.3126,0,730,2058,2857,4205,502,5.5,200,1,1,506.7796,1,2,736406.355117414,17_03_2016 level23_spatial_Robin 08_22_56.832 log.txt,37.0,37.0,1509,2016-03-17,37.0,False,51.5,-15.5,separated,left
32,410.7117,0,730,2058,2857,4205,510,5.5,200,1,1,411.919,1,2,736413.352712265,24_03_2016 level23_spatial_Robin 08_21_03.628 log.txt,37.0,37.0,1509,2016-03-24,37.0,False,51.5,-15.5,separated,left
74,724.7302,0,730,2058,2857,4205,509,5.5,200,1,1,726.2381,1,2,736414.37640675,25_03_2016 level23_spatial_Robin 08_49_56.813 log.txt,37.0,37.0,1509,2016-03-25,37.0,False,51.5,-15.5,separated,left
74,724.7302,0,730,2058,2857,4205,509,5.5,200,1,1,726.2381,1,2,736414.37640675,25_03_2016 level23_spatial_Robin 08_49_56.813 log.txt,37.0,37.0,1509,2016-03-25,37.0,False,51.5,-15.5,separated,left
32,410.7117,0,730,2058,2857,4205,510,5.5,200,1,1,411.919,1,2,736413.352712265,24_03_2016 level23_spatial_Robin 08_21_03.628 log.txt,37.0,37.0,1509,2016-03-24,37.0,False,51.5,-15.5,separated,left
20,348.0816,0,460,1105,2857,4205,509,5.5,200,0,1,349.3443,0,3,736412.363691604,23_03_2016 level23_spatial_Robin 08_37_54.873 log.txt,37.0,37.0,1509,2016-03-23,37.0,False,51.5,-15.5,separated,right
39,451.0953,0,460,1105,2857,4205,506,5.5,200,0,1,452.3828,0,3,736413.353179668,24_03_2016 level23_spatial_Robin 08_21_03.628 log.txt,37.0,37.0,1509,2016-03-24,37.0,False,51.5,-15.5,separated,right
20,348.0816,0,460,1105,2857,4205,509,5.5,200,0,1,349.3443,0,3,736412.363691604,23_03_2016 level23_spatial_Robin 08_37_54.873 log.txt,37.0,37.0,1509,2016-03-23,37.0,False,51.5,-15.5,separated,right
31,221.0596,0,460,1105,2857,4205,503,5.5,200,0,1,222.5483,0,3,736411.367147345,22_03_2016 level23_spatial_Robin 08_45_00.471 log.txt,37.0,37.0,1509,2016-03-22,37.0,False,51.5,-15.5,separated,right
20,348.0816,0,460,1105,2857,4205,509,5.5,200,0,1,349.3443,0,3,736412.363691604,23_03_2016 level23_spatial_Robin 08_37_54.873 log.txt,37.0,37.0,1509,2016-03-23,37.0,False,51.5,-15.5,separated,right
20,348.0816,0,460,1105,2857,4205,509,5.5,200,0,1,349.3443,0,3,736412.363691604,23_03_2016 level23_spatial_Robin 08_37_54.873 log.txt,37.0,37.0,1509,2016-03-23,37.0,False,51.5,-15.5,separated,right
71,632.3129,1,460,1105,2857,4205,504,5.5,200,0,1,635.4776,0,3,736406.356587325,17_03_2016 level23_spatial_Robin 08_22_56.832 log.txt,37.0,37.0,1509,2016-03-17,37.0,False,51.5,-15.5,separated,right
