Trial,CorrectionTrial,StartTime,CenterReward,F1,F2,F3,F4,HoldTime,Atten,Pitch,Side,Response,RespTime,Correct,Mask,UniversalStartTime,originalFile,LeftTemperature,RightTemperature
1,0,398.1285,0,437,2761,2975,4263,551,-3.5,200,1,1,398.7543,1,2,01-May-2014 08:51:38,01_05_2014 level21_continuous_Magnum 08_45 log.txt,37,37
2,0,400.8124,0,936,1551,2975,4263,576,-8.5,200,0,0,402.4766,1,2,01-May-2014 08:51:40,01_05_2014 level21_continuous_Magnum 08_45 log.txt,37,37
3,0,412.4488,0,936,1551,2975,4263,626,-8.5,200,0,0,413.589,1,2,01-May-2014 08:51:52,01_05_2014 level21_continuous_Magnum 08_45 log.txt,37,37
4,0,418.0829,0,437,2761,2975,4263,501,-3.5,200,1,1,418.5825,1,2,01-May-2014 08:51:58,01_05_2014 level21_continuous_Magnum 08_45 log.txt,37,37
5,0,422.4232,0,936,1551,2975,4263,651,-8.5,200,0,0,423.5179,1,2,01-May-2014 08:52:02,01_05_2014 level21_continuous_Magnum 08_45 log.txt,37,37
6,0,427.8733,0,437,2761,2975,4263,676,-3.5,200,1,1,428.7931,1,2,01-May-2014 08:52:07,01_05_2014 level21_continuous_Magnum 08_45 log.txt,37,37
7,0,435.2811,0,936,1551,2975,4263,526,-8.5,200,0,0,436.5711,1,2,01-May-2014 08:52:15,01_05_2014 level21_continuous_Magnum 08_45 log.txt,37,37
8,0,441.2275,1,936,1551,2975,4263,751,-8.5,200,0,0,442.2015,1,2,01-May-2014 08:52:21,01_05_2014 level21_continuous_Magnum 08_45 log.txt,37,37
9,0,447.3741,0,437,2761,2975,4263,601,-3.5,200,1,1,448.0531,1,2,01-May-2014 08:52:27,01_05_2014 level21_continuous_Magnum 08_45 log.txt,37,37
10,0,453.4092,0,936,1551,2975,4263,726,-8.5,200,0,0,455.066,1,2,01-May-2014 08:52:33,01_05_2014 level21_continuous_Magnum 08_45 log.txt,37,37
11,0,459.9532,0,437,2761,2975,4263,551,-3.5,200,1,1,460.918,1,2,01-May-2014 08:52:39,01_05_2014 level21_continuous_Magnum 08_45 log.txt,37,37
12,0,464.0779,1,437,2761,2975,4263,701,-3.5,200,1,1,464.5137,1,2,01-May-2014 08:52:44,01_05_2014 level21_continuous_Magnum 08_45 log.txt,37,37
13,0,467.6435,1,936,1551,2975,4263,576,-8.5,200,0,1,470.2602,0,2,01-May-2014 08:52:47,01_05_2014 level21_continuous_Magnum 08_45 log.txt,37,37
14,1,473.9202,1,936,1551,2975,4263,576,-8.5,200,0,0,476.4729,1,2,01-May-2014 08:52:53,01_05_2014 level21_continuous_Magnum 08_45 log.txt,37,37
15,0,481.3718,1,437,2761,2975,4263,651,-3.5,200,1,1,483.2136,1,2,01-May-2014 08:53:01,01_05_2014 level21_continuous_Magnum 08_45 log.txt,37,37
16,0,486.547,0,437,2761,2975,4263,526,-3.5,200,1,1,487.0431,1,2,01-May-2014 08:53:06,01_05_2014 level21_continuous_Magnum 08_45 log.txt,37,37
17,0,490.2079,0,936,1551,2975,4263,626,-8.5,200,0,1,491.1361,0,2,01-May-2014 08:53:10,01_05_2014 level21_continuous_Magnum 08_45 log.txt,37,37
18,1,499.094,0,936,1551,2975,4263,626,-8.5,200,0,0,500.1255,1,2,01-May-2014 08:53:19,01_05_2014 level21_continuous_Magnum 08_45 log.txt,37,37
19,0,505.2586,0,437,2761,2975,4263,676,-3.5,200,1,1,505.7078,1,2,01-May-2014 08:53:25,01_05_2014 level21_continuous_Magnum 08_45 log.txt,37,37
20,0,509.3867,1,936,1551,2975,4263,751,-8.5,200,0,0,510.0978,1,2,01-May-2014 08:53:29,01_05_2014 level21_continuous_Magnum 08_45 log.txt,37,37
21,0,515.048,0,936,1551,2975,4263,726,-8.5,200,0,0,516.475,1,2,01-May-2014 08:53:35,01_05_2014 level21_continuous_Magnum 08_45 log.txt,37,37
22,0,522.7618,1,437,2761,2975,4263,601,-3.5,200,1,1,524.4377,1,2,01-May-2014 08:53:42,01_05_2014 level21_continuous_Magnum 08_45 log.txt,37,37
23,0,528.3293,1,437,2761,2975,4263,651,-3.5,200,1,0,529.1135,0,2,01-May-2014 08:53:48,01_05_2014 level21_continuous_Magnum 08_45 log.txt,37,37
24,1,532.8513,0,437,2761,2975,4263,651,-3.5,200,1,1,535.4965,1,2,01-May-2014 08:53:52,01_05_2014 level21_continuous_Magnum 08_45 log.txt,37,37
25,0,538.738,0,437,2761,2975,4263,526,-3.5,200,1,1,539.3607,1,2,01-May-2014 08:53:58,01_05_2014 level21_continuous_Magnum 08_45 log.txt,37,37
26,0,543.2263,0,936,1551,2975,4263,751,-8.5,200,0,0,543.9408,1,2,01-May-2014 08:54:03,01_05_2014 level21_continuous_Magnum 08_45 log.txt,37,37
27,0,549.5362,1,936,1551,2975,4263,551,-8.5,200,0,0,551.8266,1,2,01-May-2014 08:54:09,01_05_2014 level21_continuous_Magnum 08_45 log.txt,37,37
28,0,557.4698,0,936,1551,2975,4263,501,-8.5,200,0,1,558.5975,0,2,01-May-2014 08:54:17,01_05_2014 level21_continuous_Magnum 08_45 log.txt,37,37
29,1,564.6919,0,936,1551,2975,4263,501,-8.5,200,0,0,566.0654,1,2,01-May-2014 08:54:24,01_05_2014 level21_continuous_Magnum 08_45 log.txt,37,37
30,0,570.7527,1,437,2761,2975,4263,626,-3.5,200,1,1,571.2703,1,2,01-May-2014 08:54:30,01_05_2014 level21_continuous_Magnum 08_45 log.txt,37,37
31,0,574.5963,1,936,1551,2975,4263,601,-8.5,200,0,0,578.1123,1,2,01-May-2014 08:54:34,01_05_2014 level21_continuous_Magnum 08_45 log.txt,37,37
32,0,584.2643,0,936,1551,2975,4263,576,-8.5,200,0,0,585.7721,1,2,01-May-2014 08:54:44,01_05_2014 level21_continuous_Magnum 08_45 log.txt,37,37
33,0,591.7156,0,437,2761,2975,4263,676,-3.5,200,1,1,592.2411,1,2,01-May-2014 08:54:51,01_05_2014 level21_continuous_Magnum 08_45 log.txt,37,37
34,0,596.1429,0,437,2761,2975,4263,726,-3.5,200,1,1,596.7116,1,2,01-May-2014 08:54:56,01_05_2014 level21_continuous_Magnum 08_45 log.txt,37,37
35,0,600.2672,0,437,2761,2975,4263,551,-3.5,200,1,0,601.1025,0,2,01-May-2014 08:55:00,01_05_2014 level21_continuous_Magnum 08_45 log.txt,37,37
36,1,605.915,1,437,2761,2975,4263,551,-3.5,200,1,1,607.7925,1,2,01-May-2014 08:55:05,01_05_2014 level21_continuous_Magnum 08_45 log.txt,37,37
37,0,611.7864,0,936,1551,2975,4263,601,-8.5,200,0,0,614.0151,1,2,01-May-2014 08:55:11,01_05_2014 level21_continuous_Magnum 08_45 log.txt,37,37
38,0,619.9784,0,936,1551,2975,4263,701,-8.5,200,0,1,620.7791,0,2,01-May-2014 08:55:19,01_05_2014 level21_continuous_Magnum 08_45 log.txt,37,37
39,1,625.2156,1,936,1551,2975,4263,701,-8.5,200,0,0,627.7331,1,2,01-May-2014 08:55:25,01_05_2014 level21_continuous_Magnum 08_45 log.txt,37,37
40,0,633.4092,0,437,2761,2975,4263,626,-3.5,200,1,1,634.2827,1,2,01-May-2014 08:55:33,01_05_2014 level21_continuous_Magnum 08_45 log.txt,37,37
41,0,638.1991,1,437,2761,2975,4263,726,-3.5,200,1,1,638.7262,1,2,01-May-2014 08:55:38,01_05_2014 level21_continuous_Magnum 08_45 log.txt,37,37
42,0,642.2564,0,936,1551,2975,4263,501,-8.5,200,0,0,644.4058,1,2,01-May-2014 08:55:42,01_05_2014 level21_continuous_Magnum 08_45 log.txt,37,37
43,0,650.1018,1,936,1551,2975,4263,526,-8.5,200,0,0,653.0487,1,2,01-May-2014 08:55:50,01_05_2014 level21_continuous_Magnum 08_45 log.txt,37,37
44,0,658.6533,0,437,2761,2975,4263,676,-3.5,200,1,1,659.5564,1,2,01-May-2014 08:55:58,01_05_2014 level21_continuous_Magnum 08_45 log.txt,37,37
45,0,663.2853,0,936,1551,2975,4263,576,-8.5,200,0,0,664.1469,1,2,01-May-2014 08:56:03,01_05_2014 level21_continuous_Magnum 08_45 log.txt,37,37
46,0,669.7841,0,437,2761,2975,4263,651,-3.5,200,1,1,670.5934,1,2,01-May-2014 08:56:09,01_05_2014 level21_continuous_Magnum 08_45 log.txt,37,37
47,0,673.9476,0,437,2761,2975,4263,526,-3.5,200,1,1,674.7868,1,2,01-May-2014 08:56:13,01_05_2014 level21_continuous_Magnum 08_45 log.txt,37,37
48,0,678.5479,1,936,1551,2975,4263,676,-8.5,200,0,1,679.0133,0,2,01-May-2014 08:56:18,01_05_2014 level21_continuous_Magnum 08_45 log.txt,37,37
49,1,684.5709,0,936,1551,2975,4263,676,-8.5,200,0,0,686.5996,1,2,01-May-2014 08:56:24,01_05_2014 level21_continuous_Magnum 08_45 log.txt,37,37
50,0,691.9981,0,437,2761,2975,4263,501,-3.5,200,1,1,692.679,1,2,01-May-2014 08:56:31,01_05_2014 level21_continuous_Magnum 08_45 log.txt,37,37
51,0,696.2645,0,936,1551,2975,4263,701,-8.5,200,0,0,696.9922,1,2,01-May-2014 08:56:36,01_05_2014 level21_continuous_Magnum 08_45 log.txt,37,37
52,0,703.143,0,936,1551,2975,4263,601,-8.5,200,0,1,704.0365,0,2,01-May-2014 08:56:43,01_05_2014 level21_continuous_Magnum 08_45 log.txt,37,37
53,1,709.1974,0,936,1551,2975,4263,601,-8.5,200,0,0,710.1437,1,2,01-May-2014 08:56:49,01_05_2014 level21_continuous_Magnum 08_45 log.txt,37,37
54,0,716.3007,0,437,2761,2975,4263,626,-3.5,200,1,1,716.9824,1,2,01-May-2014 08:56:56,01_05_2014 level21_continuous_Magnum 08_45 log.txt,37,37
55,0,724.7676,1,437,2761,2975,4263,726,-3.5,200,1,0,726.7568,0,2,01-May-2014 08:57:04,01_05_2014 level21_continuous_Magnum 08_45 log.txt,37,37
56,1,732.0621,0,437,2761,2975,4263,726,-3.5,200,1,1,732.6679,1,2,01-May-2014 08:57:12,01_05_2014 level21_continuous_Magnum 08_45 log.txt,37,37
57,0,739.6957,0,936,1551,2975,4263,751,-8.5,200,0,0,740.6324,1,2,01-May-2014 08:57:19,01_05_2014 level21_continuous_Magnum 08_45 log.txt,37,37
58,0,747.7082,0,437,2761,2975,4263,576,-3.5,200,1,1,748.3695,1,2,01-May-2014 08:57:27,01_05_2014 level21_continuous_Magnum 08_45 log.txt,37,37
59,0,752.1835,0,437,2761,2975,4263,551,-3.5,200,1,1,752.6217,1,2,01-May-2014 08:57:32,01_05_2014 level21_continuous_Magnum 08_45 log.txt,37,37
60,0,756.7058,1,936,1551,2975,4263,501,-8.5,200,0,1,757.5455,0,2,01-May-2014 08:57:36,01_05_2014 level21_continuous_Magnum 08_45 log.txt,37,37
61,1,763.752,0,936,1551,2975,4263,501,-8.5,200,0,0,765.5712,1,2,01-May-2014 08:57:43,01_05_2014 level21_continuous_Magnum 08_45 log.txt,37,37
62,0,772.6599,0,936,1551,2975,4263,726,-8.5,200,0,1,773.322,0,2,01-May-2014 08:57:52,01_05_2014 level21_continuous_Magnum 08_45 log.txt,37,37
63,1,778.3946,0,936,1551,2975,4263,726,-8.5,200,0,0,779.8197,1,2,01-May-2014 08:57:58,01_05_2014 level21_continuous_Magnum 08_45 log.txt,37,37
64,0,786.5723,1,936,1551,2975,4263,626,-8.5,200,0,0,788.7097,1,2,01-May-2014 08:58:06,01_05_2014 level21_continuous_Magnum 08_45 log.txt,37,37
65,0,796.6755,0,437,2761,2975,4263,651,-3.5,200,1,1,797.6156,1,2,01-May-2014 08:58:16,01_05_2014 level21_continuous_Magnum 08_45 log.txt,37,37
66,0,801.3339,0,936,1551,2975,4263,601,-8.5,200,0,0,802.4001,1,2,01-May-2014 08:58:21,01_05_2014 level21_continuous_Magnum 08_45 log.txt,37,37
67,0,807.9412,0,437,2761,2975,4263,576,-3.5,200,1,1,808.9886,1,2,01-May-2014 08:58:27,01_05_2014 level21_continuous_Magnum 08_45 log.txt,37,37
68,0,812.9408,0,437,2761,2975,4263,676,-3.5,200,1,1,813.3178,1,2,01-May-2014 08:58:32,01_05_2014 level21_continuous_Magnum 08_45 log.txt,37,37
69,0,817.3182,0,936,1551,2975,4263,751,-8.5,200,0,0,818.2359,1,2,01-May-2014 08:58:37,01_05_2014 level21_continuous_Magnum 08_45 log.txt,37,37
70,0,824.9938,0,437,2761,2975,4263,526,-3.5,200,1,1,825.9867,1,2,01-May-2014 08:58:44,01_05_2014 level21_continuous_Magnum 08_45 log.txt,37,37
71,0,830.0204,0,936,1551,2975,4263,551,-8.5,200,0,0,830.8371,1,2,01-May-2014 08:58:50,01_05_2014 level21_continuous_Magnum 08_45 log.txt,37,37
72,0,836.3451,0,437,2761,2975,4263,726,-3.5,200,1,1,837.1177,1,2,01-May-2014 08:58:56,01_05_2014 level21_continuous_Magnum 08_45 log.txt,37,37
73,0,840.6587,1,936,1551,2975,4263,501,-8.5,200,0,0,841.4778,1,2,01-May-2014 08:59:00,01_05_2014 level21_continuous_Magnum 08_45 log.txt,37,37
74,0,849.459,0,437,2761,2975,4263,701,-3.5,200,1,1,851.592,1,2,01-May-2014 08:59:09,01_05_2014 level21_continuous_Magnum 08_45 log.txt,37,37
75,0,855.6598,0,936,1551,2975,4263,651,-8.5,200,0,0,857.3927,1,2,01-May-2014 08:59:15,01_05_2014 level21_continuous_Magnum 08_45 log.txt,37,37
76,0,864.8801,0,936,1551,2975,4263,751,-8.5,200,0,1,865.7135,0,2,01-May-2014 08:59:24,01_05_2014 level21_continuous_Magnum 08_45 log.txt,37,37
77,1,872.0812,0,936,1551,2975,4263,751,-8.5,200,0,0,873.1542,1,2,01-May-2014 08:59:32,01_05_2014 level21_continuous_Magnum 08_45 log.txt,37,37
78,0,878.9784,0,437,2761,2975,4263,551,-3.5,200,1,1,879.9082,1,2,01-May-2014 08:59:38,01_05_2014 level21_continuous_Magnum 08_45 log.txt,37,37
79,0,883.9677,1,437,2761,2975,4263,626,-3.5,200,1,1,884.3093,1,2,01-May-2014 08:59:43,01_05_2014 level21_continuous_Magnum 08_45 log.txt,37,37
80,0,888.7159,1,437,2761,2975,4263,676,-3.5,200,1,1,891.7126,1,2,01-May-2014 08:59:48,01_05_2014 level21_continuous_Magnum 08_45 log.txt,37,37
81,0,896.0631,0,936,1551,2975,4263,601,-8.5,200,0,0,897.954,1,2,01-May-2014 08:59:56,01_05_2014 level21_continuous_Magnum 08_45 log.txt,37,37
82,0,903.3822,0,936,1551,2975,4263,526,-8.5,200,0,0,905.0952,1,2,01-May-2014 09:00:03,01_05_2014 level21_continuous_Magnum 08_45 log.txt,37,37
83,0,910.7077,0,936,1551,2975,4263,501,-8.5,200,0,1,911.637,0,2,01-May-2014 09:00:10,01_05_2014 level21_continuous_Magnum 08_45 log.txt,37,37
84,1,916.057,1,936,1551,2975,4263,501,-8.5,200,0,1,918.1317,0,2,01-May-2014 09:00:16,01_05_2014 level21_continuous_Magnum 08_45 log.txt,37,37
85,1,923.7968,0,936,1551,2975,4263,501,-8.5,200,0,0,925.3999,1,2,01-May-2014 09:00:23,01_05_2014 level21_continuous_Magnum 08_45 log.txt,37,37
86,0,930.9861,1,437,2761,2975,4263,551,-3.5,200,1,1,933.1059,1,2,01-May-2014 09:00:30,01_05_2014 level21_continuous_Magnum 08_45 log.txt,37,37
87,0,937.5511,0,437,2761,2975,4263,726,-3.5,200,1,1,938.5022,1,2,01-May-2014 09:00:37,01_05_2014 level21_continuous_Magnum 08_45 log.txt,37,37
88,0,943.3604,0,437,2761,2975,4263,601,-3.5,200,1,1,945.1786,1,2,01-May-2014 09:00:43,01_05_2014 level21_continuous_Magnum 08_45 log.txt,37,37
89,0,949.104,0,936,1551,2975,4263,701,-8.5,200,0,1,949.6202,0,2,01-May-2014 09:00:49,01_05_2014 level21_continuous_Magnum 08_45 log.txt,37,37
90,1,955.4244,1,936,1551,2975,4263,701,-8.5,200,0,0,956.2127,1,2,01-May-2014 09:00:55,01_05_2014 level21_continuous_Magnum 08_45 log.txt,37,37
91,0,962.5826,0,936,1551,2975,4263,751,-8.5,200,0,0,964.1692,1,2,01-May-2014 09:01:02,01_05_2014 level21_continuous_Magnum 08_45 log.txt,37,37
92,0,969.6385,0,437,2761,2975,4263,626,-3.5,200,1,1,970.6477,1,2,01-May-2014 09:01:09,01_05_2014 level21_continuous_Magnum 08_45 log.txt,37,37
93,0,974.2655,0,936,1551,2975,4263,676,-8.5,200,0,0,975.5899,1,2,01-May-2014 09:01:14,01_05_2014 level21_continuous_Magnum 08_45 log.txt,37,37
94,0,981.9447,1,936,1551,2975,4263,651,-8.5,200,0,1,983.7756,0,2,01-May-2014 09:01:21,01_05_2014 level21_continuous_Magnum 08_45 log.txt,37,37
95,1,987.8922,0,936,1551,2975,4263,651,-8.5,200,0,0,989.0646,1,2,01-May-2014 09:01:27,01_05_2014 level21_continuous_Magnum 08_45 log.txt,37,37
96,0,994.7861,0,437,2761,2975,4263,576,-3.5,200,1,1,995.7903,1,2,01-May-2014 09:01:34,01_05_2014 level21_continuous_Magnum 08_45 log.txt,37,37
97,0,999.2952,1,936,1551,2975,4263,501,-8.5,200,0,1,1000.0364,0,2,01-May-2014 09:01:39,01_05_2014 level21_continuous_Magnum 08_45 log.txt,37,37
98,1,1005.8483,0,936,1551,2975,4263,501,-8.5,200,0,0,1007.3778,1,2,01-May-2014 09:01:45,01_05_2014 level21_continuous_Magnum 08_45 log.txt,37,37
99,0,1013.224,0,936,1551,2975,4263,551,-8.5,200,0,0,1014.5903,1,2,01-May-2014 09:01:53,01_05_2014 level21_continuous_Magnum 08_45 log.txt,37,37
100,0,1021.1493,1,437,2761,2975,4263,751,-3.5,200,1,1,1022.3548,1,2,01-May-2014 09:02:01,01_05_2014 level21_continuous_Magnum 08_45 log.txt,37,37
101,0,1026.2038,0,437,2761,2975,4263,601,-3.5,200,1,1,1026.8724,1,2,01-May-2014 09:02:06,01_05_2014 level21_continuous_Magnum 08_45 log.txt,37,37
102,0,1031.1304,0,437,2761,2975,4263,701,-3.5,200,1,1,1031.6459,1,2,01-May-2014 09:02:11,01_05_2014 level21_continuous_Magnum 08_45 log.txt,37,37
103,0,1035.4195,1,437,2761,2975,4263,651,-3.5,200,1,1,1036.7249,1,2,01-May-2014 09:02:15,01_05_2014 level21_continuous_Magnum 08_45 log.txt,37,37
104,0,1040.5741,0,936,1551,2975,4263,676,-8.5,200,0,0,1041.5716,1,2,01-May-2014 09:02:20,01_05_2014 level21_continuous_Magnum 08_45 log.txt,37,37
105,0,1046.586,0,936,1551,2975,4263,526,-8.5,200,0,1,1047.9331,0,2,01-May-2014 09:02:26,01_05_2014 level21_continuous_Magnum 08_45 log.txt,37,37
106,1,1056.0304,0,936,1551,2975,4263,526,-8.5,200,0,0,1057.8901,1,2,01-May-2014 09:02:36,01_05_2014 level21_continuous_Magnum 08_45 log.txt,37,37
107,0,1064.9487,0,936,1551,2975,4263,576,-8.5,200,0,0,1066.4104,1,2,01-May-2014 09:02:44,01_05_2014 level21_continuous_Magnum 08_45 log.txt,37,37
108,0,1073.0771,1,437,2761,2975,4263,726,-3.5,200,1,1,1073.881,1,2,01-May-2014 09:02:53,01_05_2014 level21_continuous_Magnum 08_45 log.txt,37,37
109,0,1078.0645,0,437,2761,2975,4263,626,-3.5,200,1,1,1078.6456,1,2,01-May-2014 09:02:58,01_05_2014 level21_continuous_Magnum 08_45 log.txt,37,37
110,0,1082.5603,0,936,1551,2975,4263,726,-8.5,200,0,1,1082.9711,0,2,01-May-2014 09:03:02,01_05_2014 level21_continuous_Magnum 08_45 log.txt,37,37
111,1,1088.8706,1,936,1551,2975,4263,726,-8.5,200,0,0,1090.2725,1,2,01-May-2014 09:03:08,01_05_2014 level21_continuous_Magnum 08_45 log.txt,37,37
112,0,1095.7683,0,936,1551,2975,4263,501,-8.5,200,0,0,1097.3006,1,2,01-May-2014 09:03:15,01_05_2014 level21_continuous_Magnum 08_45 log.txt,37,37
113,0,1105.6382,0,437,2761,2975,4263,651,-3.5,200,1,1,1106.4726,1,2,01-May-2014 09:03:25,01_05_2014 level21_continuous_Magnum 08_45 log.txt,37,37
114,0,1110.9569,0,936,1551,2975,4263,751,-8.5,200,0,1,1111.8804,0,2,01-May-2014 09:03:30,01_05_2014 level21_continuous_Magnum 08_45 log.txt,37,37
115,1,1122.1441,0,936,1551,2975,4263,751,-8.5,200,0,0,1123.1743,1,2,01-May-2014 09:03:42,01_05_2014 level21_continuous_Magnum 08_45 log.txt,37,37
116,0,1129.1495,1,437,2761,2975,4263,526,-3.5,200,1,1,1129.786,1,2,01-May-2014 09:03:49,01_05_2014 level21_continuous_Magnum 08_45 log.txt,37,37
117,0,1137.1954,1,936,1551,2975,4263,701,-8.5,200,0,0,1138.3151,1,2,01-May-2014 09:03:57,01_05_2014 level21_continuous_Magnum 08_45 log.txt,37,37
118,0,1144.7734,0,437,2761,2975,4263,551,-3.5,200,1,1,1145.6118,1,2,01-May-2014 09:04:04,01_05_2014 level21_continuous_Magnum 08_45 log.txt,37,37
119,0,1149.1818,0,936,1551,2975,4263,576,-8.5,200,0,1,1149.703,0,2,01-May-2014 09:04:09,01_05_2014 level21_continuous_Magnum 08_45 log.txt,37,37
120,1,1153.3772,1,936,1551,2975,4263,576,-8.5,200,0,0,1154.4854,1,2,01-May-2014 09:04:13,01_05_2014 level21_continuous_Magnum 08_45 log.txt,37,37
121,0,1160.6602,1,437,2761,2975,4263,676,-3.5,200,1,1,1161.2893,1,2,01-May-2014 09:04:20,01_05_2014 level21_continuous_Magnum 08_45 log.txt,37,37
122,0,1164.7699,0,936,1551,2975,4263,751,-8.5,200,0,0,1166.2869,1,2,01-May-2014 09:04:24,01_05_2014 level21_continuous_Magnum 08_45 log.txt,37,37
123,0,1171.4648,1,437,2761,2975,4263,551,-3.5,200,1,1,1172.5473,1,2,01-May-2014 09:04:31,01_05_2014 level21_continuous_Magnum 08_45 log.txt,37,37
124,0,1176.0378,0,936,1551,2975,4263,526,-8.5,200,0,0,1177.1536,1,2,01-May-2014 09:04:36,01_05_2014 level21_continuous_Magnum 08_45 log.txt,37,37
125,0,1183.3714,0,437,2761,2975,4263,501,-3.5,200,1,1,1184.2258,1,2,01-May-2014 09:04:43,01_05_2014 level21_continuous_Magnum 08_45 log.txt,37,37
126,0,1187.8858,1,437,2761,2975,4263,576,-3.5,200,1,1,1188.612,1,2,01-May-2014 09:04:47,01_05_2014 level21_continuous_Magnum 08_45 log.txt,37,37
127,0,1192.3465,0,936,1551,2975,4263,701,-8.5,200,0,1,1194.0429,0,2,01-May-2014 09:04:52,01_05_2014 level21_continuous_Magnum 08_45 log.txt,37,37
128,1,1199.8795,0,936,1551,2975,4263,701,-8.5,200,0,0,1201.3326,1,2,01-May-2014 09:04:59,01_05_2014 level21_continuous_Magnum 08_45 log.txt,37,37
129,0,1206.8564,0,437,2761,2975,4263,626,-3.5,200,1,1,1207.5746,1,2,01-May-2014 09:05:06,01_05_2014 level21_continuous_Magnum 08_45 log.txt,37,37
130,0,1211.0957,1,936,1551,2975,4263,726,-8.5,200,0,0,1212.1038,1,2,01-May-2014 09:05:11,01_05_2014 level21_continuous_Magnum 08_45 log.txt,37,37
131,0,1217.0483,0,437,2761,2975,4263,676,-3.5,200,1,1,1218.6546,1,2,01-May-2014 09:05:17,01_05_2014 level21_continuous_Magnum 08_45 log.txt,37,37
132,0,1222.7378,0,936,1551,2975,4263,601,-8.5,200,0,0,1224.2667,1,2,01-May-2014 09:05:22,01_05_2014 level21_continuous_Magnum 08_45 log.txt,37,37
133,0,1229.7023,0,437,2761,2975,4263,626,-3.5,200,1,1,1230.5727,1,2,01-May-2014 09:05:29,01_05_2014 level21_continuous_Magnum 08_45 log.txt,37,37
134,0,1233.8913,0,437,2761,2975,4263,601,-3.5,200,1,1,1234.5644,1,2,01-May-2014 09:05:33,01_05_2014 level21_continuous_Magnum 08_45 log.txt,37,37
135,0,1238.0006,0,936,1551,2975,4263,551,-8.5,200,0,1,1238.8192,0,2,01-May-2014 09:05:38,01_05_2014 level21_continuous_Magnum 08_45 log.txt,37,37
136,1,1246.0352,1,936,1551,2975,4263,551,-8.5,200,0,0,1248.1482,1,2,01-May-2014 09:05:46,01_05_2014 level21_continuous_Magnum 08_45 log.txt,37,37
137,0,1254.4233,1,936,1551,2975,4263,701,-8.5,200,0,1,1257.1221,0,2,01-May-2014 09:05:54,01_05_2014 level21_continuous_Magnum 08_45 log.txt,37,37
138,1,1278.6834,1,936,1551,2975,4263,701,-8.5,200,0,0,1280.9585,1,2,01-May-2014 09:06:18,01_05_2014 level21_continuous_Magnum 08_45 log.txt,37,37
139,0,1285.4954,0,437,2761,2975,4263,676,-3.5,200,1,1,1286.6942,1,2,01-May-2014 09:06:25,01_05_2014 level21_continuous_Magnum 08_45 log.txt,37,37
140,0,1290.0183,0,936,1551,2975,4263,651,-8.5,200,0,0,1291.2933,1,2,01-May-2014 09:06:30,01_05_2014 level21_continuous_Magnum 08_45 log.txt,37,37
141,0,1297.8827,0,437,2761,2975,4263,726,-3.5,200,1,1,1298.5749,1,2,01-May-2014 09:06:37,01_05_2014 level21_continuous_Magnum 08_45 log.txt,37,37
142,0,1302.6425,1,936,1551,2975,4263,751,-8.5,200,0,0,1303.6174,1,2,01-May-2014 09:06:42,01_05_2014 level21_continuous_Magnum 08_45 log.txt,37,37
143,0,1309.8988,0,936,1551,2975,4263,576,-8.5,200,0,0,1311.862,1,2,01-May-2014 09:06:49,01_05_2014 level21_continuous_Magnum 08_45 log.txt,37,37
144,0,1317.3003,0,437,2761,2975,4263,526,-3.5,200,1,1,1318.5357,1,2,01-May-2014 09:06:57,01_05_2014 level21_continuous_Magnum 08_45 log.txt,37,37
145,0,1322.738,0,936,1551,2975,4263,676,-8.5,200,0,0,1324.3209,1,2,01-May-2014 09:07:02,01_05_2014 level21_continuous_Magnum 08_45 log.txt,37,37
146,0,1331.4808,0,437,2761,2975,4263,626,-3.5,200,1,1,1332.4878,1,2,01-May-2014 09:07:11,01_05_2014 level21_continuous_Magnum 08_45 log.txt,37,37
147,0,1337.9214,0,437,2761,2975,4263,501,-3.5,200,1,0,1339.195,0,2,01-May-2014 09:07:17,01_05_2014 level21_continuous_Magnum 08_45 log.txt,37,37
148,1,1358.2367,0,437,2761,2975,4263,501,-3.5,200,1,1,1359.1064,1,2,01-May-2014 09:07:38,01_05_2014 level21_continuous_Magnum 08_45 log.txt,37,37
1,0,23.3655,0,936,1551,2975,4263,701,-11.5,200,0,0,29.909,1,2,01-May-2014 14:24:23,01_05_2014 level21_continuous_Magnum 14_24 log.txt,37,37
2,0,31.1273,0,437,2761,2975,4263,576,-6.5,200,1,1,32.6383,1,2,01-May-2014 14:24:31,01_05_2014 level21_continuous_Magnum 14_24 log.txt,37,37
3,0,35.8156,0,936,1551,2975,4263,676,-11.5,200,0,0,42.0457,1,2,01-May-2014 14:24:35,01_05_2014 level21_continuous_Magnum 14_24 log.txt,37,37
4,0,51.7711,1,437,2761,2975,4263,501,-6.5,200,1,1,53.685,1,2,01-May-2014 14:24:51,01_05_2014 level21_continuous_Magnum 14_24 log.txt,37,37
5,0,58.423,0,437,2761,2975,4263,751,-6.5,200,1,1,58.8277,1,2,01-May-2014 14:24:58,01_05_2014 level21_continuous_Magnum 14_24 log.txt,37,37
6,0,62.0121,0,936,1551,2975,4263,626,-11.5,200,0,0,62.9528,1,2,01-May-2014 14:25:02,01_05_2014 level21_continuous_Magnum 14_24 log.txt,37,37
7,0,66.7185,0,437,2761,2975,4263,726,-6.5,200,1,1,67.4721,1,2,01-May-2014 14:25:06,01_05_2014 level21_continuous_Magnum 14_24 log.txt,37,37
8,0,70.3173,0,437,2761,2975,4263,551,-6.5,200,1,0,71.7171,0,2,01-May-2014 14:25:10,01_05_2014 level21_continuous_Magnum 14_24 log.txt,37,37
9,1,77.0461,0,437,2761,2975,4263,551,-6.5,200,1,1,77.7388,1,2,01-May-2014 14:25:17,01_05_2014 level21_continuous_Magnum 14_24 log.txt,37,37
10,0,81.1451,0,936,1551,2975,4263,601,-11.5,200,0,0,82.0156,1,2,01-May-2014 14:25:21,01_05_2014 level21_continuous_Magnum 14_24 log.txt,37,37
11,0,87.341,0,936,1551,2975,4263,651,-11.5,200,0,0,88.4158,1,2,01-May-2014 14:25:27,01_05_2014 level21_continuous_Magnum 14_24 log.txt,37,37
12,0,93.9559,0,936,1551,2975,4263,501,-11.5,200,0,0,95.0255,1,2,01-May-2014 14:25:33,01_05_2014 level21_continuous_Magnum 14_24 log.txt,37,37
13,0,100.0674,0,437,2761,2975,4263,651,-6.5,200,1,1,100.6174,1,2,01-May-2014 14:25:40,01_05_2014 level21_continuous_Magnum 14_24 log.txt,37,37
14,0,104.1341,0,437,2761,2975,4263,526,-6.5,200,1,1,104.6096,1,2,01-May-2014 14:25:44,01_05_2014 level21_continuous_Magnum 14_24 log.txt,37,37
15,0,114.759,1,936,1551,2975,4263,701,-11.5,200,0,0,115.6541,1,2,01-May-2014 14:25:54,01_05_2014 level21_continuous_Magnum 14_24 log.txt,37,37
16,0,120.6132,0,437,2761,2975,4263,751,-6.5,200,1,0,122.634,0,2,01-May-2014 14:26:00,01_05_2014 level21_continuous_Magnum 14_24 log.txt,37,37
17,1,128.5672,1,437,2761,2975,4263,751,-6.5,200,1,1,128.9081,1,2,01-May-2014 14:26:08,01_05_2014 level21_continuous_Magnum 14_24 log.txt,37,37
18,0,132.8579,0,437,2761,2975,4263,726,-6.5,200,1,1,134.7889,1,2,01-May-2014 14:26:12,01_05_2014 level21_continuous_Magnum 14_24 log.txt,37,37
19,0,138.099,0,936,1551,2975,4263,551,-11.5,200,0,0,139.0179,1,2,01-May-2014 14:26:18,01_05_2014 level21_continuous_Magnum 14_24 log.txt,37,37
20,0,144.0103,1,936,1551,2975,4263,626,-11.5,200,0,0,146.3469,1,2,01-May-2014 14:26:24,01_05_2014 level21_continuous_Magnum 14_24 log.txt,37,37
21,0,151.0307,0,936,1551,2975,4263,676,-11.5,200,0,0,152.4008,1,2,01-May-2014 14:26:31,01_05_2014 level21_continuous_Magnum 14_24 log.txt,37,37
22,0,157.2879,0,437,2761,2975,4263,576,-6.5,200,1,1,158.161,1,2,01-May-2014 14:26:37,01_05_2014 level21_continuous_Magnum 14_24 log.txt,37,37
23,0,164.1219,0,437,2761,2975,4263,676,-6.5,200,1,1,165.0016,1,2,01-May-2014 14:26:44,01_05_2014 level21_continuous_Magnum 14_24 log.txt,37,37
24,0,168.6461,0,936,1551,2975,4263,551,-11.5,200,0,0,169.2637,1,2,01-May-2014 14:26:48,01_05_2014 level21_continuous_Magnum 14_24 log.txt,37,37
25,0,175.2464,0,936,1551,2975,4263,626,-11.5,200,0,0,176.382,1,2,01-May-2014 14:26:55,01_05_2014 level21_continuous_Magnum 14_24 log.txt,37,37
26,0,182.9079,0,437,2761,2975,4263,751,-6.5,200,1,1,183.5033,1,2,01-May-2014 14:27:02,01_05_2014 level21_continuous_Magnum 14_24 log.txt,37,37
27,0,190.2513,0,437,2761,2975,4263,701,-6.5,200,1,1,191.0798,1,2,01-May-2014 14:27:10,01_05_2014 level21_continuous_Magnum 14_24 log.txt,37,37
28,0,197.0405,0,437,2761,2975,4263,601,-6.5,200,1,1,197.681,1,2,01-May-2014 14:27:17,01_05_2014 level21_continuous_Magnum 14_24 log.txt,37,37
29,0,203.715,0,437,2761,2975,4263,651,-6.5,200,1,1,204.4824,1,2,01-May-2014 14:27:23,01_05_2014 level21_continuous_Magnum 14_24 log.txt,37,37
30,0,207.8089,1,936,1551,2975,4263,501,-11.5,200,0,0,208.5807,1,2,01-May-2014 14:27:27,01_05_2014 level21_continuous_Magnum 14_24 log.txt,37,37
31,0,214.5377,1,936,1551,2975,4263,726,-11.5,200,0,1,218.1448,0,2,01-May-2014 14:27:34,01_05_2014 level21_continuous_Magnum 14_24 log.txt,37,37
32,1,224.2265,0,936,1551,2975,4263,726,-11.5,200,0,0,224.9819,1,2,01-May-2014 14:27:44,01_05_2014 level21_continuous_Magnum 14_24 log.txt,37,37
33,0,230.6026,1,936,1551,2975,4263,576,-11.5,200,0,0,238.7095,1,2,01-May-2014 14:27:50,01_05_2014 level21_continuous_Magnum 14_24 log.txt,37,37
34,0,244.2209,1,936,1551,2975,4263,676,-11.5,200,0,0,247.1131,1,2,01-May-2014 14:28:04,01_05_2014 level21_continuous_Magnum 14_24 log.txt,37,37
35,0,252.4582,0,437,2761,2975,4263,751,-6.5,200,1,1,253.3374,1,2,01-May-2014 14:28:12,01_05_2014 level21_continuous_Magnum 14_24 log.txt,37,37
36,0,259.6186,1,437,2761,2975,4263,651,-6.5,200,1,1,261.7853,1,2,01-May-2014 14:28:19,01_05_2014 level21_continuous_Magnum 14_24 log.txt,37,37
37,0,265.366,1,936,1551,2975,4263,601,-11.5,200,0,0,266.369,1,2,01-May-2014 14:28:25,01_05_2014 level21_continuous_Magnum 14_24 log.txt,37,37
38,0,271.0759,0,437,2761,2975,4263,501,-6.5,200,1,1,273.892,1,2,01-May-2014 14:28:31,01_05_2014 level21_continuous_Magnum 14_24 log.txt,37,37
39,0,280.4659,0,936,1551,2975,4263,726,-11.5,200,0,0,282.2835,1,2,01-May-2014 14:28:40,01_05_2014 level21_continuous_Magnum 14_24 log.txt,37,37
40,0,287.6508,0,437,2761,2975,4263,576,-6.5,200,1,1,288.424,1,2,01-May-2014 14:28:47,01_05_2014 level21_continuous_Magnum 14_24 log.txt,37,37
41,0,294.7024,0,936,1551,2975,4263,701,-11.5,200,0,0,295.654,1,2,01-May-2014 14:28:54,01_05_2014 level21_continuous_Magnum 14_24 log.txt,37,37
42,0,301.1897,1,437,2761,2975,4263,626,-6.5,200,1,1,303.218,1,2,01-May-2014 14:29:01,01_05_2014 level21_continuous_Magnum 14_24 log.txt,37,37
43,0,306.7914,1,936,1551,2975,4263,551,-11.5,200,0,0,309.1751,1,2,01-May-2014 14:29:06,01_05_2014 level21_continuous_Magnum 14_24 log.txt,37,37
44,0,315.1013,0,437,2761,2975,4263,626,-6.5,200,1,1,316.4178,1,2,01-May-2014 14:29:15,01_05_2014 level21_continuous_Magnum 14_24 log.txt,37,37
45,0,320.2118,0,936,1551,2975,4263,751,-11.5,200,0,0,320.673,1,2,01-May-2014 14:29:20,01_05_2014 level21_continuous_Magnum 14_24 log.txt,37,37
46,0,326.4415,0,936,1551,2975,4263,501,-11.5,200,0,1,327.5988,0,2,01-May-2014 14:29:26,01_05_2014 level21_continuous_Magnum 14_24 log.txt,37,37
47,1,332.0663,1,936,1551,2975,4263,501,-11.5,200,0,1,333.8675,0,2,01-May-2014 14:29:32,01_05_2014 level21_continuous_Magnum 14_24 log.txt,37,37
48,1,338.9656,0,936,1551,2975,4263,501,-11.5,200,0,0,340.4567,1,2,01-May-2014 14:29:38,01_05_2014 level21_continuous_Magnum 14_24 log.txt,37,37
49,0,345.9265,1,437,2761,2975,4263,651,-6.5,200,1,1,348.1648,1,2,01-May-2014 14:29:45,01_05_2014 level21_continuous_Magnum 14_24 log.txt,37,37
50,0,351.9629,0,437,2761,2975,4263,576,-6.5,200,1,1,352.8602,1,2,01-May-2014 14:29:51,01_05_2014 level21_continuous_Magnum 14_24 log.txt,37,37
51,0,359.1779,1,936,1551,2975,4263,701,-11.5,200,0,0,361.9346,1,2,01-May-2014 14:29:59,01_05_2014 level21_continuous_Magnum 14_24 log.txt,37,37
52,0,368.0342,0,437,2761,2975,4263,726,-6.5,200,1,1,368.8496,1,2,01-May-2014 14:30:08,01_05_2014 level21_continuous_Magnum 14_24 log.txt,37,37
53,0,373.1248,0,936,1551,2975,4263,601,-11.5,200,0,0,373.7867,1,2,01-May-2014 14:30:13,01_05_2014 level21_continuous_Magnum 14_24 log.txt,37,37
54,0,379.4394,1,437,2761,2975,4263,676,-6.5,200,1,1,381.6403,1,2,01-May-2014 14:30:19,01_05_2014 level21_continuous_Magnum 14_24 log.txt,37,37
55,0,385.6053,0,936,1551,2975,4263,526,-11.5,200,0,0,386.548,1,2,01-May-2014 14:30:25,01_05_2014 level21_continuous_Magnum 14_24 log.txt,37,37
56,0,391.935,0,936,1551,2975,4263,601,-11.5,200,0,0,393.4543,1,2,01-May-2014 14:30:31,01_05_2014 level21_continuous_Magnum 14_24 log.txt,37,37
57,0,399.5897,0,437,2761,2975,4263,701,-6.5,200,1,1,400.576,1,2,01-May-2014 14:30:39,01_05_2014 level21_continuous_Magnum 14_24 log.txt,37,37
58,0,404.666,0,437,2761,2975,4263,676,-6.5,200,1,1,405.3122,1,2,01-May-2014 14:30:44,01_05_2014 level21_continuous_Magnum 14_24 log.txt,37,37
59,0,409.0964,1,936,1551,2975,4263,651,-11.5,200,0,1,409.8444,0,2,01-May-2014 14:30:49,01_05_2014 level21_continuous_Magnum 14_24 log.txt,37,37
60,1,415.9259,1,936,1551,2975,4263,651,-11.5,200,0,0,418.996,1,2,01-May-2014 14:30:55,01_05_2014 level21_continuous_Magnum 14_24 log.txt,37,37
61,0,424.0797,0,437,2761,2975,4263,501,-6.5,200,1,1,425.2719,1,2,01-May-2014 14:31:04,01_05_2014 level21_continuous_Magnum 14_24 log.txt,37,37
62,0,434.8819,0,936,1551,2975,4263,626,-11.5,200,0,0,436.0982,1,2,01-May-2014 14:31:14,01_05_2014 level21_continuous_Magnum 14_24 log.txt,37,37
63,0,440.9862,0,936,1551,2975,4263,526,-11.5,200,0,1,441.9883,0,2,01-May-2014 14:31:20,01_05_2014 level21_continuous_Magnum 14_24 log.txt,37,37
64,1,449.6225,0,936,1551,2975,4263,526,-11.5,200,0,1,451.1166,0,2,01-May-2014 14:31:29,01_05_2014 level21_continuous_Magnum 14_24 log.txt,37,37
65,1,455.2654,0,936,1551,2975,4263,526,-11.5,200,0,0,456.5008,1,2,01-May-2014 14:31:35,01_05_2014 level21_continuous_Magnum 14_24 log.txt,37,37
66,0,462.1677,1,437,2761,2975,4263,576,-6.5,200,1,1,464.2657,1,2,01-May-2014 14:31:42,01_05_2014 level21_continuous_Magnum 14_24 log.txt,37,37
67,0,467.9337,1,437,2761,2975,4263,551,-6.5,200,1,1,470.1737,1,2,01-May-2014 14:31:47,01_05_2014 level21_continuous_Magnum 14_24 log.txt,37,37
68,0,473.7384,0,936,1551,2975,4263,751,-11.5,200,0,0,475.3767,1,2,01-May-2014 14:31:53,01_05_2014 level21_continuous_Magnum 14_24 log.txt,37,37
69,0,480.6337,0,936,1551,2975,4263,601,-11.5,200,0,0,481.7623,1,2,01-May-2014 14:32:00,01_05_2014 level21_continuous_Magnum 14_24 log.txt,37,37
70,0,487.2425,0,936,1551,2975,4263,701,-11.5,200,0,1,487.8947,0,2,01-May-2014 14:32:07,01_05_2014 level21_continuous_Magnum 14_24 log.txt,37,37
71,1,496.5735,1,936,1551,2975,4263,701,-11.5,200,0,1,498.3515,0,2,01-May-2014 14:32:16,01_05_2014 level21_continuous_Magnum 14_24 log.txt,37,37
72,1,502.8515,0,936,1551,2975,4263,701,-11.5,200,0,0,504.0506,1,2,01-May-2014 14:32:22,01_05_2014 level21_continuous_Magnum 14_24 log.txt,37,37
73,0,509.1702,0,437,2761,2975,4263,526,-6.5,200,1,0,510.3868,0,2,01-May-2014 14:32:29,01_05_2014 level21_continuous_Magnum 14_24 log.txt,37,37
1,0,19.6424,0,936,1551,2975,4263,701,-12.5,200,0,1,23.7991,0,1,02-May-2014 09:43:19,02_05_2014 level20_discreteMagnum 09_43 log.txt,37,37
2,1,33.3735,0,936,1551,2975,4263,701,-12.5,200,0,0,35.239,1,1,02-May-2014 09:43:33,02_05_2014 level20_discreteMagnum 09_43 log.txt,37,37
3,0,40.1612,0,936,1551,2975,4263,626,-12.5,200,0,0,41.7304,1,0,02-May-2014 09:43:40,02_05_2014 level20_discreteMagnum 09_43 log.txt,37,37
4,0,46.8027,0,437,2761,2975,4263,651,-7.5,200,1,1,47.2883,1,0,02-May-2014 09:43:46,02_05_2014 level20_discreteMagnum 09_43 log.txt,37,37
5,0,50.5359,0,936,1551,2975,4263,601,-12.5,200,0,0,51.9062,1,1,02-May-2014 09:43:50,02_05_2014 level20_discreteMagnum 09_43 log.txt,37,37
6,0,56.765,1,936,1551,2975,4263,751,-12.5,200,0,1,57.0891,0,1,02-May-2014 09:43:56,02_05_2014 level20_discreteMagnum 09_43 log.txt,37,37
7,1,61.1859,0,936,1551,2975,4263,751,-12.5,200,0,1,62.136,0,1,02-May-2014 09:44:01,02_05_2014 level20_discreteMagnum 09_43 log.txt,37,37
8,1,68.3951,0,936,1551,2975,4263,751,-12.5,200,0,1,69.0585,0,1,02-May-2014 09:44:08,02_05_2014 level20_discreteMagnum 09_43 log.txt,37,37
9,1,73.584,0,936,1551,2975,4263,751,-12.5,200,0,0,75.0551,1,1,02-May-2014 09:44:13,02_05_2014 level20_discreteMagnum 09_43 log.txt,37,37
10,0,80.1376,1,437,2761,2975,4263,526,-7.5,200,1,0,82.5652,0,1,02-May-2014 09:44:20,02_05_2014 level20_discreteMagnum 09_43 log.txt,37,37
11,1,87.9157,1,437,2761,2975,4263,526,-7.5,200,1,1,89.8899,1,1,02-May-2014 09:44:27,02_05_2014 level20_discreteMagnum 09_43 log.txt,37,37
12,0,93.473,1,437,2761,2975,4263,576,-7.5,200,1,1,93.8578,1,0,02-May-2014 09:44:33,02_05_2014 level20_discreteMagnum 09_43 log.txt,37,37
13,0,97.5592,0,437,2761,2975,4263,726,-7.5,200,1,1,99.7062,1,0,02-May-2014 09:44:37,02_05_2014 level20_discreteMagnum 09_43 log.txt,37,37
14,0,105.8201,0,437,2761,2975,4263,551,-7.5,200,1,0,107.3913,0,1,02-May-2014 09:44:45,02_05_2014 level20_discreteMagnum 09_43 log.txt,37,37
15,1,112.1192,1,437,2761,2975,4263,551,-7.5,200,1,1,112.6367,1,1,02-May-2014 09:44:52,02_05_2014 level20_discreteMagnum 09_43 log.txt,37,37
16,0,116.0721,0,437,2761,2975,4263,501,-7.5,200,1,1,117.5173,1,1,02-May-2014 09:44:56,02_05_2014 level20_discreteMagnum 09_43 log.txt,37,37
17,0,121.3371,1,936,1551,2975,4263,701,-12.5,200,0,0,122.129,1,0,02-May-2014 09:45:01,02_05_2014 level20_discreteMagnum 09_43 log.txt,37,37
18,0,127.0997,0,936,1551,2975,4263,576,-12.5,200,0,0,129.622,1,0,02-May-2014 09:45:07,02_05_2014 level20_discreteMagnum 09_43 log.txt,37,37
19,0,135.4307,0,437,2761,2975,4263,501,-7.5,200,1,1,136.4203,1,0,02-May-2014 09:45:15,02_05_2014 level20_discreteMagnum 09_43 log.txt,37,37
20,0,140.183,1,936,1551,2975,4263,626,-12.5,200,0,0,141.0182,1,0,02-May-2014 09:45:20,02_05_2014 level20_discreteMagnum 09_43 log.txt,37,37
21,0,146.8907,0,936,1551,2975,4263,726,-12.5,200,0,1,148.4944,0,1,02-May-2014 09:45:26,02_05_2014 level20_discreteMagnum 09_43 log.txt,37,37
22,1,155.645,1,936,1551,2975,4263,726,-12.5,200,0,1,157.2825,0,1,02-May-2014 09:45:35,02_05_2014 level20_discreteMagnum 09_43 log.txt,37,37
23,1,162.7109,0,936,1551,2975,4263,726,-12.5,200,0,0,164.6327,1,1,02-May-2014 09:45:42,02_05_2014 level20_discreteMagnum 09_43 log.txt,37,37
24,0,170.6644,0,437,2761,2975,4263,751,-7.5,200,1,1,171.4139,1,1,02-May-2014 09:45:50,02_05_2014 level20_discreteMagnum 09_43 log.txt,37,37
25,0,179.2518,0,936,1551,2975,4263,676,-12.5,200,0,0,180.9001,1,0,02-May-2014 09:45:59,02_05_2014 level20_discreteMagnum 09_43 log.txt,37,37
26,0,186.7462,1,437,2761,2975,4263,651,-7.5,200,1,1,188.4193,1,0,02-May-2014 09:46:06,02_05_2014 level20_discreteMagnum 09_43 log.txt,37,37
27,0,191.8186,0,437,2761,2975,4263,551,-7.5,200,1,0,192.8982,0,1,02-May-2014 09:46:11,02_05_2014 level20_discreteMagnum 09_43 log.txt,37,37
28,1,198.3491,0,437,2761,2975,4263,551,-7.5,200,1,1,199.103,1,1,02-May-2014 09:46:18,02_05_2014 level20_discreteMagnum 09_43 log.txt,37,37
29,0,205.6443,0,437,2761,2975,4263,601,-7.5,200,1,1,206.6762,1,0,02-May-2014 09:46:25,02_05_2014 level20_discreteMagnum 09_43 log.txt,37,37
30,0,210.5398,0,936,1551,2975,4263,751,-12.5,200,0,0,211.5865,1,1,02-May-2014 09:46:30,02_05_2014 level20_discreteMagnum 09_43 log.txt,37,37
31,0,217.09,0,936,1551,2975,4263,701,-12.5,200,0,0,218.0579,1,1,02-May-2014 09:46:37,02_05_2014 level20_discreteMagnum 09_43 log.txt,37,37
32,0,223.9301,1,437,2761,2975,4263,726,-7.5,200,1,1,224.5044,1,1,02-May-2014 09:46:43,02_05_2014 level20_discreteMagnum 09_43 log.txt,37,37
33,0,228.2952,0,936,1551,2975,4263,601,-12.5,200,0,1,229.5721,0,0,02-May-2014 09:46:48,02_05_2014 level20_discreteMagnum 09_43 log.txt,37,37
34,1,233.5399,0,936,1551,2975,4263,601,-12.5,200,0,0,234.839,1,0,02-May-2014 09:46:53,02_05_2014 level20_discreteMagnum 09_43 log.txt,37,37
35,0,241.6111,0,936,1551,2975,4263,551,-12.5,200,0,1,242.4458,0,1,02-May-2014 09:47:01,02_05_2014 level20_discreteMagnum 09_43 log.txt,37,37
36,1,246.5899,1,936,1551,2975,4263,551,-12.5,200,0,0,249.2892,1,1,02-May-2014 09:47:06,02_05_2014 level20_discreteMagnum 09_43 log.txt,37,37
37,0,254.1712,0,437,2761,2975,4263,501,-7.5,200,1,1,255.155,1,1,02-May-2014 09:47:14,02_05_2014 level20_discreteMagnum 09_43 log.txt,37,37
38,0,258.8155,0,936,1551,2975,4263,576,-12.5,200,0,0,259.8011,1,1,02-May-2014 09:47:18,02_05_2014 level20_discreteMagnum 09_43 log.txt,37,37
39,0,266.2645,0,437,2761,2975,4263,626,-7.5,200,1,1,266.8371,1,1,02-May-2014 09:47:26,02_05_2014 level20_discreteMagnum 09_43 log.txt,37,37
40,0,270.4671,1,936,1551,2975,4263,676,-12.5,200,0,0,271.9097,1,0,02-May-2014 09:47:30,02_05_2014 level20_discreteMagnum 09_43 log.txt,37,37
41,0,278.5609,0,437,2761,2975,4263,651,-7.5,200,1,1,280.1608,1,1,02-May-2014 09:47:38,02_05_2014 level20_discreteMagnum 09_43 log.txt,37,37
42,0,284.1896,0,936,1551,2975,4263,676,-12.5,200,0,0,285.1478,1,0,02-May-2014 09:47:44,02_05_2014 level20_discreteMagnum 09_43 log.txt,37,37
43,0,290.2346,0,936,1551,2975,4263,601,-12.5,200,0,0,291.4392,1,0,02-May-2014 09:47:50,02_05_2014 level20_discreteMagnum 09_43 log.txt,37,37
44,0,298.3384,0,936,1551,2975,4263,576,-12.5,200,0,0,299.3822,1,1,02-May-2014 09:47:58,02_05_2014 level20_discreteMagnum 09_43 log.txt,37,37
45,0,304.7911,1,437,2761,2975,4263,551,-7.5,200,1,1,306.5135,1,0,02-May-2014 09:48:04,02_05_2014 level20_discreteMagnum 09_43 log.txt,37,37
46,0,310.5794,0,437,2761,2975,4263,701,-7.5,200,1,0,311.9411,0,0,02-May-2014 09:48:10,02_05_2014 level20_discreteMagnum 09_43 log.txt,37,37
47,1,315.8362,0,437,2761,2975,4263,701,-7.5,200,1,1,316.5326,1,0,02-May-2014 09:48:15,02_05_2014 level20_discreteMagnum 09_43 log.txt,37,37
48,0,320.4329,0,437,2761,2975,4263,726,-7.5,200,1,1,321.0049,1,0,02-May-2014 09:48:20,02_05_2014 level20_discreteMagnum 09_43 log.txt,37,37
49,0,324.5321,1,936,1551,2975,4263,651,-12.5,200,0,0,325.4261,1,1,02-May-2014 09:48:24,02_05_2014 level20_discreteMagnum 09_43 log.txt,37,37
50,0,330.5581,1,437,2761,2975,4263,526,-7.5,200,1,1,334.178,1,0,02-May-2014 09:48:30,02_05_2014 level20_discreteMagnum 09_43 log.txt,37,37
51,0,337.9703,0,437,2761,2975,4263,626,-7.5,200,1,0,338.9039,0,1,02-May-2014 09:48:37,02_05_2014 level20_discreteMagnum 09_43 log.txt,37,37
52,1,343.514,0,437,2761,2975,4263,626,-7.5,200,1,1,344.1103,1,1,02-May-2014 09:48:43,02_05_2014 level20_discreteMagnum 09_43 log.txt,37,37
53,0,350.3041,0,936,1551,2975,4263,751,-12.5,200,0,0,351.6681,1,1,02-May-2014 09:48:50,02_05_2014 level20_discreteMagnum 09_43 log.txt,37,37
54,0,356.3924,0,437,2761,2975,4263,651,-7.5,200,1,1,357.1255,1,0,02-May-2014 09:48:56,02_05_2014 level20_discreteMagnum 09_43 log.txt,37,37
55,0,360.5269,0,437,2761,2975,4263,501,-7.5,200,1,1,361.481,1,1,02-May-2014 09:49:00,02_05_2014 level20_discreteMagnum 09_43 log.txt,37,37
56,0,367.3626,0,437,2761,2975,4263,626,-7.5,200,1,0,368.5894,0,0,02-May-2014 09:49:07,02_05_2014 level20_discreteMagnum 09_43 log.txt,37,37
57,1,373.8863,0,437,2761,2975,4263,626,-7.5,200,1,1,374.3224,1,0,02-May-2014 09:49:13,02_05_2014 level20_discreteMagnum 09_43 log.txt,37,37
58,0,380.9956,0,936,1551,2975,4263,601,-12.5,200,0,0,382.188,1,0,02-May-2014 09:49:20,02_05_2014 level20_discreteMagnum 09_43 log.txt,37,37
59,0,387.5717,0,437,2761,2975,4263,526,-7.5,200,1,1,388.3142,1,1,02-May-2014 09:49:27,02_05_2014 level20_discreteMagnum 09_43 log.txt,37,37
60,0,392.103,0,936,1551,2975,4263,551,-12.5,200,0,0,393.116,1,0,02-May-2014 09:49:32,02_05_2014 level20_discreteMagnum 09_43 log.txt,37,37
61,0,398.0779,0,936,1551,2975,4263,701,-12.5,200,0,0,398.783,1,0,02-May-2014 09:49:38,02_05_2014 level20_discreteMagnum 09_43 log.txt,37,37
62,0,404.2149,0,936,1551,2975,4263,751,-12.5,200,0,0,405.24,1,1,02-May-2014 09:49:44,02_05_2014 level20_discreteMagnum 09_43 log.txt,37,37
63,0,411.3557,0,936,1551,2975,4263,676,-12.5,200,0,1,412.0746,0,0,02-May-2014 09:49:51,02_05_2014 level20_discreteMagnum 09_43 log.txt,37,37
64,1,416.094,0,936,1551,2975,4263,676,-12.5,200,0,0,417.0366,1,0,02-May-2014 09:49:56,02_05_2014 level20_discreteMagnum 09_43 log.txt,37,37
65,0,422.3174,0,936,1551,2975,4263,576,-12.5,200,0,1,422.9634,0,0,02-May-2014 09:50:02,02_05_2014 level20_discreteMagnum 09_43 log.txt,37,37
66,1,427.7063,0,936,1551,2975,4263,576,-12.5,200,0,0,429.0424,1,0,02-May-2014 09:50:07,02_05_2014 level20_discreteMagnum 09_43 log.txt,37,37
67,0,433.7842,0,437,2761,2975,4263,576,-7.5,200,1,0,434.8284,0,1,02-May-2014 09:50:13,02_05_2014 level20_discreteMagnum 09_43 log.txt,37,37
68,1,439.2022,0,437,2761,2975,4263,576,-7.5,200,1,1,440.0718,1,1,02-May-2014 09:50:19,02_05_2014 level20_discreteMagnum 09_43 log.txt,37,37
69,0,446.4972,0,437,2761,2975,4263,726,-7.5,200,1,1,447.3034,1,1,02-May-2014 09:50:26,02_05_2014 level20_discreteMagnum 09_43 log.txt,37,37
70,0,450.937,0,936,1551,2975,4263,526,-12.5,200,0,0,452.2947,1,1,02-May-2014 09:50:30,02_05_2014 level20_discreteMagnum 09_43 log.txt,37,37
71,0,458.0967,0,936,1551,2975,4263,551,-12.5,200,0,0,459.1599,1,1,02-May-2014 09:50:38,02_05_2014 level20_discreteMagnum 09_43 log.txt,37,37
72,0,464.6484,0,936,1551,2975,4263,751,-12.5,200,0,1,465.1756,0,1,02-May-2014 09:50:44,02_05_2014 level20_discreteMagnum 09_43 log.txt,37,37
73,1,469.118,0,936,1551,2975,4263,751,-12.5,200,0,0,470.1185,1,1,02-May-2014 09:50:49,02_05_2014 level20_discreteMagnum 09_43 log.txt,37,37
74,0,475.7648,1,936,1551,2975,4263,651,-12.5,200,0,0,477.2066,1,0,02-May-2014 09:50:55,02_05_2014 level20_discreteMagnum 09_43 log.txt,37,37
75,0,483.0027,0,437,2761,2975,4263,601,-7.5,200,1,1,484.8506,1,1,02-May-2014 09:51:03,02_05_2014 level20_discreteMagnum 09_43 log.txt,37,37
76,0,488.3858,0,437,2761,2975,4263,626,-7.5,200,1,1,488.9641,1,0,02-May-2014 09:51:08,02_05_2014 level20_discreteMagnum 09_43 log.txt,37,37
77,0,492.9903,0,437,2761,2975,4263,676,-7.5,200,1,0,493.8684,0,0,02-May-2014 09:51:12,02_05_2014 level20_discreteMagnum 09_43 log.txt,37,37
78,1,500.541,0,437,2761,2975,4263,676,-7.5,200,1,1,501.327,1,0,02-May-2014 09:51:20,02_05_2014 level20_discreteMagnum 09_43 log.txt,37,37
79,0,504.9459,1,437,2761,2975,4263,501,-7.5,200,1,1,505.6195,1,0,02-May-2014 09:51:24,02_05_2014 level20_discreteMagnum 09_43 log.txt,37,37
80,0,509.1996,0,437,2761,2975,4263,501,-7.5,200,1,0,511.2567,0,1,02-May-2014 09:51:29,02_05_2014 level20_discreteMagnum 09_43 log.txt,37,37
81,1,517.431,0,437,2761,2975,4263,501,-7.5,200,1,0,518.8271,0,1,02-May-2014 09:51:37,02_05_2014 level20_discreteMagnum 09_43 log.txt,37,37
82,1,524.2389,0,437,2761,2975,4263,501,-7.5,200,1,1,525.0154,1,1,02-May-2014 09:51:44,02_05_2014 level20_discreteMagnum 09_43 log.txt,37,37
83,0,529.0208,1,936,1551,2975,4263,526,-12.5,200,0,0,529.9882,1,0,02-May-2014 09:51:49,02_05_2014 level20_discreteMagnum 09_43 log.txt,37,37
84,0,535.5141,0,437,2761,2975,4263,601,-7.5,200,1,0,537.5131,0,0,02-May-2014 09:51:55,02_05_2014 level20_discreteMagnum 09_43 log.txt,37,37
85,1,541.9105,0,437,2761,2975,4263,601,-7.5,200,1,1,542.5339,1,0,02-May-2014 09:52:01,02_05_2014 level20_discreteMagnum 09_43 log.txt,37,37
86,0,550.6971,0,437,2761,2975,4263,676,-7.5,200,1,0,551.8293,0,0,02-May-2014 09:52:10,02_05_2014 level20_discreteMagnum 09_43 log.txt,37,37
87,1,557.0787,0,437,2761,2975,4263,676,-7.5,200,1,1,557.5426,1,0,02-May-2014 09:52:17,02_05_2014 level20_discreteMagnum 09_43 log.txt,37,37
88,0,561.51,0,936,1551,2975,4263,626,-12.5,200,0,0,562.565,1,0,02-May-2014 09:52:21,02_05_2014 level20_discreteMagnum 09_43 log.txt,37,37
89,0,568.2754,0,437,2761,2975,4263,551,-7.5,200,1,1,568.8627,1,1,02-May-2014 09:52:28,02_05_2014 level20_discreteMagnum 09_43 log.txt,37,37
90,0,572.532,1,936,1551,2975,4263,576,-12.5,200,0,0,575.1107,1,1,02-May-2014 09:52:32,02_05_2014 level20_discreteMagnum 09_43 log.txt,37,37
91,0,580.9993,1,936,1551,2975,4263,701,-12.5,200,0,0,583.4727,1,1,02-May-2014 09:52:40,02_05_2014 level20_discreteMagnum 09_43 log.txt,37,37
92,0,589.8716,1,936,1551,2975,4263,726,-12.5,200,0,0,593.0648,1,1,02-May-2014 09:52:49,02_05_2014 level20_discreteMagnum 09_43 log.txt,37,37
93,0,598.8928,0,437,2761,2975,4263,751,-7.5,200,1,1,599.8619,1,1,02-May-2014 09:52:58,02_05_2014 level20_discreteMagnum 09_43 log.txt,37,37
94,0,603.9221,0,936,1551,2975,4263,551,-12.5,200,0,0,604.74,1,0,02-May-2014 09:53:03,02_05_2014 level20_discreteMagnum 09_43 log.txt,37,37
95,0,612.5482,0,437,2761,2975,4263,701,-7.5,200,1,1,613.2563,1,0,02-May-2014 09:53:12,02_05_2014 level20_discreteMagnum 09_43 log.txt,37,37
96,0,617.2793,0,936,1551,2975,4263,676,-12.5,200,0,0,618.0413,1,1,02-May-2014 09:53:17,02_05_2014 level20_discreteMagnum 09_43 log.txt,37,37
97,0,624.7193,0,936,1551,2975,4263,601,-12.5,200,0,1,625.3547,0,0,02-May-2014 09:53:24,02_05_2014 level20_discreteMagnum 09_43 log.txt,37,37
98,1,632.683,1,936,1551,2975,4263,601,-12.5,200,0,0,635.6205,1,0,02-May-2014 09:53:32,02_05_2014 level20_discreteMagnum 09_43 log.txt,37,37
99,0,640.9512,0,437,2761,2975,4263,576,-7.5,200,1,1,641.8031,1,0,02-May-2014 09:53:40,02_05_2014 level20_discreteMagnum 09_43 log.txt,37,37
100,0,648.9321,0,437,2761,2975,4263,726,-7.5,200,1,1,649.575,1,1,02-May-2014 09:53:48,02_05_2014 level20_discreteMagnum 09_43 log.txt,37,37
101,0,653.7787,1,936,1551,2975,4263,626,-12.5,200,0,0,654.705,1,1,02-May-2014 09:53:53,02_05_2014 level20_discreteMagnum 09_43 log.txt,37,37
102,0,659.6338,1,936,1551,2975,4263,501,-12.5,200,0,0,664.1026,1,0,02-May-2014 09:53:59,02_05_2014 level20_discreteMagnum 09_43 log.txt,37,37
103,0,670.462,0,437,2761,2975,4263,651,-7.5,200,1,0,671.7142,0,0,02-May-2014 09:54:10,02_05_2014 level20_discreteMagnum 09_43 log.txt,37,37
104,1,676.4804,0,437,2761,2975,4263,651,-7.5,200,1,1,677.1462,1,0,02-May-2014 09:54:16,02_05_2014 level20_discreteMagnum 09_43 log.txt,37,37
105,0,680.6089,0,437,2761,2975,4263,526,-7.5,200,1,0,681.7846,0,0,02-May-2014 09:54:20,02_05_2014 level20_discreteMagnum 09_43 log.txt,37,37
106,1,686.2907,1,437,2761,2975,4263,526,-7.5,200,1,1,688.1036,1,0,02-May-2014 09:54:26,02_05_2014 level20_discreteMagnum 09_43 log.txt,37,37
107,0,692.3722,0,936,1551,2975,4263,726,-12.5,200,0,0,693.4394,1,0,02-May-2014 09:54:32,02_05_2014 level20_discreteMagnum 09_43 log.txt,37,37
108,0,699.35,0,437,2761,2975,4263,751,-7.5,200,1,0,700.5617,0,1,02-May-2014 09:54:39,02_05_2014 level20_discreteMagnum 09_43 log.txt,37,37
109,1,705.1005,1,437,2761,2975,4263,751,-7.5,200,1,1,705.6042,1,1,02-May-2014 09:54:45,02_05_2014 level20_discreteMagnum 09_43 log.txt,37,37
110,0,709.598,1,437,2761,2975,4263,501,-7.5,200,1,1,712.4078,1,1,02-May-2014 09:54:49,02_05_2014 level20_discreteMagnum 09_43 log.txt,37,37
111,0,716.5628,0,936,1551,2975,4263,601,-12.5,200,0,0,718.5623,1,1,02-May-2014 09:54:56,02_05_2014 level20_discreteMagnum 09_43 log.txt,37,37
112,0,724.6006,0,936,1551,2975,4263,626,-12.5,200,0,0,725.755,1,0,02-May-2014 09:55:04,02_05_2014 level20_discreteMagnum 09_43 log.txt,37,37
113,0,732.6355,0,936,1551,2975,4263,551,-12.5,200,0,0,733.9124,1,0,02-May-2014 09:55:12,02_05_2014 level20_discreteMagnum 09_43 log.txt,37,37
114,0,739.3332,0,936,1551,2975,4263,651,-12.5,200,0,1,739.739,0,0,02-May-2014 09:55:19,02_05_2014 level20_discreteMagnum 09_43 log.txt,37,37
115,1,743.9111,0,936,1551,2975,4263,651,-12.5,200,0,0,745.1206,1,0,02-May-2014 09:55:23,02_05_2014 level20_discreteMagnum 09_43 log.txt,37,37
116,0,750.1906,0,936,1551,2975,4263,676,-12.5,200,0,0,751.1585,1,1,02-May-2014 09:55:30,02_05_2014 level20_discreteMagnum 09_43 log.txt,37,37
117,0,756.6612,0,936,1551,2975,4263,701,-12.5,200,0,0,757.5957,1,1,02-May-2014 09:55:36,02_05_2014 level20_discreteMagnum 09_43 log.txt,37,37
118,0,763.4564,0,437,2761,2975,4263,576,-7.5,200,1,1,764.2692,1,1,02-May-2014 09:55:43,02_05_2014 level20_discreteMagnum 09_43 log.txt,37,37
119,0,767.9497,0,437,2761,2975,4263,526,-7.5,200,1,1,768.711,1,0,02-May-2014 09:55:47,02_05_2014 level20_discreteMagnum 09_43 log.txt,37,37
120,0,772.4623,0,437,2761,2975,4263,576,-7.5,200,1,0,773.262,0,0,02-May-2014 09:55:52,02_05_2014 level20_discreteMagnum 09_43 log.txt,37,37
121,1,779.5318,0,437,2761,2975,4263,576,-7.5,200,1,1,780.5046,1,0,02-May-2014 09:55:59,02_05_2014 level20_discreteMagnum 09_43 log.txt,37,37
122,0,784.5351,1,437,2761,2975,4263,651,-7.5,200,1,0,787.3762,0,1,02-May-2014 09:56:04,02_05_2014 level20_discreteMagnum 09_43 log.txt,37,37
123,1,800.0482,0,437,2761,2975,4263,651,-7.5,200,1,1,801.0879,1,1,02-May-2014 09:56:20,02_05_2014 level20_discreteMagnum 09_43 log.txt,37,37
124,0,805.0269,1,437,2761,2975,4263,601,-7.5,200,1,1,805.6771,1,0,02-May-2014 09:56:25,02_05_2014 level20_discreteMagnum 09_43 log.txt,37,37
125,0,810.9094,0,936,1551,2975,4263,751,-12.5,200,0,1,812.7191,0,1,02-May-2014 09:56:30,02_05_2014 level20_discreteMagnum 09_43 log.txt,37,37
126,1,817.1763,1,936,1551,2975,4263,751,-12.5,200,0,0,819.5994,1,1,02-May-2014 09:56:37,02_05_2014 level20_discreteMagnum 09_43 log.txt,37,37
127,0,823.8136,0,437,2761,2975,4263,676,-7.5,200,1,1,824.8572,1,1,02-May-2014 09:56:43,02_05_2014 level20_discreteMagnum 09_43 log.txt,37,37
128,0,832.3027,0,437,2761,2975,4263,551,-7.5,200,1,1,833.4284,1,1,02-May-2014 09:56:52,02_05_2014 level20_discreteMagnum 09_43 log.txt,37,37
129,0,837.9979,0,936,1551,2975,4263,726,-12.5,200,0,0,839.1586,1,0,02-May-2014 09:56:57,02_05_2014 level20_discreteMagnum 09_43 log.txt,37,37
130,0,845.0297,1,936,1551,2975,4263,701,-12.5,200,0,1,847.1532,0,1,02-May-2014 09:57:05,02_05_2014 level20_discreteMagnum 09_43 log.txt,37,37
1,0,5.6567,0,936,1551,2975,4263,751,-11.5,200,0,1,8.0668,0,2,02-May-2014 14:02:05,02_05_2014 level21_continuous_Magnum 14_02 log.txt,37,37
2,1,12.3696,0,936,1551,2975,4263,751,-11.5,200,0,0,13.6218,1,2,02-May-2014 14:02:12,02_05_2014 level21_continuous_Magnum 14_02 log.txt,37,37
3,0,18.3221,0,936,1551,2975,4263,501,-11.5,200,0,1,19.406,0,2,02-May-2014 14:02:18,02_05_2014 level21_continuous_Magnum 14_02 log.txt,37,37
4,1,24.9422,0,936,1551,2975,4263,501,-11.5,200,0,0,27.1702,1,2,02-May-2014 14:02:24,02_05_2014 level21_continuous_Magnum 14_02 log.txt,37,37
5,0,32.511,0,936,1551,2975,4263,601,-11.5,200,0,0,33.7686,1,2,02-May-2014 14:02:32,02_05_2014 level21_continuous_Magnum 14_02 log.txt,37,37
6,0,39.8302,1,437,2761,2975,4263,626,-6.5,200,1,0,42.1176,0,2,02-May-2014 14:02:39,02_05_2014 level21_continuous_Magnum 14_02 log.txt,37,37
7,1,46.792,0,437,2761,2975,4263,626,-6.5,200,1,0,48.013,0,2,02-May-2014 14:02:46,02_05_2014 level21_continuous_Magnum 14_02 log.txt,37,37
8,1,55.4642,1,437,2761,2975,4263,626,-6.5,200,1,1,57.4351,1,2,02-May-2014 14:02:55,02_05_2014 level21_continuous_Magnum 14_02 log.txt,37,37
9,0,61.2718,1,437,2761,2975,4263,526,-6.5,200,1,1,63.3277,1,2,02-May-2014 14:03:01,02_05_2014 level21_continuous_Magnum 14_02 log.txt,37,37
10,0,67.0972,0,437,2761,2975,4263,726,-6.5,200,1,0,68.5606,0,2,02-May-2014 14:03:07,02_05_2014 level21_continuous_Magnum 14_02 log.txt,37,37
11,1,75.1642,0,437,2761,2975,4263,726,-6.5,200,1,1,75.6166,1,2,02-May-2014 14:03:15,02_05_2014 level21_continuous_Magnum 14_02 log.txt,37,37
12,0,82.5885,0,936,1551,2975,4263,701,-11.5,200,0,0,83.2975,1,2,02-May-2014 14:03:22,02_05_2014 level21_continuous_Magnum 14_02 log.txt,37,37
13,0,88.5629,1,936,1551,2975,4263,551,-11.5,200,0,0,89.4603,1,2,02-May-2014 14:03:28,02_05_2014 level21_continuous_Magnum 14_02 log.txt,37,37
14,0,95.6733,0,437,2761,2975,4263,576,-6.5,200,1,0,97.7208,0,2,02-May-2014 14:03:35,02_05_2014 level21_continuous_Magnum 14_02 log.txt,37,37
15,1,103.279,0,437,2761,2975,4263,576,-6.5,200,1,1,103.7913,1,2,02-May-2014 14:03:43,02_05_2014 level21_continuous_Magnum 14_02 log.txt,37,37
16,0,112.3641,0,437,2761,2975,4263,676,-6.5,200,1,0,113.3451,0,2,02-May-2014 14:03:52,02_05_2014 level21_continuous_Magnum 14_02 log.txt,37,37
17,1,117.7492,0,437,2761,2975,4263,676,-6.5,200,1,1,118.3551,1,2,02-May-2014 14:03:57,02_05_2014 level21_continuous_Magnum 14_02 log.txt,37,37
18,0,122.172,1,437,2761,2975,4263,651,-6.5,200,1,0,123.6721,0,2,02-May-2014 14:04:02,02_05_2014 level21_continuous_Magnum 14_02 log.txt,37,37
19,1,133.3824,0,437,2761,2975,4263,651,-6.5,200,1,1,134.1757,1,2,02-May-2014 14:04:13,02_05_2014 level21_continuous_Magnum 14_02 log.txt,37,37
20,0,137.7105,0,936,1551,2975,4263,676,-11.5,200,0,0,138.7118,1,2,02-May-2014 14:04:17,02_05_2014 level21_continuous_Magnum 14_02 log.txt,37,37
21,0,143.2872,0,936,1551,2975,4263,551,-11.5,200,0,0,144.5568,1,2,02-May-2014 14:04:23,02_05_2014 level21_continuous_Magnum 14_02 log.txt,37,37
22,0,150.244,0,437,2761,2975,4263,601,-6.5,200,1,0,151.2752,0,2,02-May-2014 14:04:30,02_05_2014 level21_continuous_Magnum 14_02 log.txt,37,37
23,1,155.4781,1,437,2761,2975,4263,601,-6.5,200,1,1,155.8983,1,2,02-May-2014 14:04:35,02_05_2014 level21_continuous_Magnum 14_02 log.txt,37,37
24,0,159.5679,1,936,1551,2975,4263,626,-11.5,200,0,1,162.3182,0,2,02-May-2014 14:04:39,02_05_2014 level21_continuous_Magnum 14_02 log.txt,37,37
25,1,167.1888,0,936,1551,2975,4263,626,-11.5,200,0,1,168.1768,0,2,02-May-2014 14:04:47,02_05_2014 level21_continuous_Magnum 14_02 log.txt,37,37
26,1,172.7944,0,936,1551,2975,4263,626,-11.5,200,0,0,173.9682,1,2,02-May-2014 14:04:52,02_05_2014 level21_continuous_Magnum 14_02 log.txt,37,37
27,0,180.1545,0,437,2761,2975,4263,701,-6.5,200,1,1,180.7887,1,2,02-May-2014 14:05:00,02_05_2014 level21_continuous_Magnum 14_02 log.txt,37,37
28,0,184.8025,0,936,1551,2975,4263,726,-11.5,200,0,0,185.6089,1,2,02-May-2014 14:05:04,02_05_2014 level21_continuous_Magnum 14_02 log.txt,37,37
29,0,191.5544,0,437,2761,2975,4263,526,-6.5,200,1,1,192.3903,1,2,02-May-2014 14:05:11,02_05_2014 level21_continuous_Magnum 14_02 log.txt,37,37
30,0,196.0658,0,437,2761,2975,4263,501,-6.5,200,1,0,196.9192,0,2,02-May-2014 14:05:16,02_05_2014 level21_continuous_Magnum 14_02 log.txt,37,37
31,1,203.3792,0,437,2761,2975,4263,501,-6.5,200,1,1,204.1105,1,2,02-May-2014 14:05:23,02_05_2014 level21_continuous_Magnum 14_02 log.txt,37,37
32,0,211.3129,0,936,1551,2975,4263,751,-11.5,200,0,0,212.3987,1,2,02-May-2014 14:05:31,02_05_2014 level21_continuous_Magnum 14_02 log.txt,37,37
33,0,217.09,1,437,2761,2975,4263,601,-6.5,200,1,1,218.992,1,2,02-May-2014 14:05:37,02_05_2014 level21_continuous_Magnum 14_02 log.txt,37,37
34,0,222.6369,0,437,2761,2975,4263,576,-6.5,200,1,1,223.4901,1,2,02-May-2014 14:05:42,02_05_2014 level21_continuous_Magnum 14_02 log.txt,37,37
35,0,227.1629,1,936,1551,2975,4263,651,-11.5,200,0,0,228.0508,1,2,02-May-2014 14:05:47,02_05_2014 level21_continuous_Magnum 14_02 log.txt,37,37
36,0,233.3696,0,936,1551,2975,4263,676,-11.5,200,0,0,235.1483,1,2,02-May-2014 14:05:53,02_05_2014 level21_continuous_Magnum 14_02 log.txt,37,37
37,0,241.8828,0,936,1551,2975,4263,526,-11.5,200,0,1,242.9519,0,2,02-May-2014 14:06:01,02_05_2014 level21_continuous_Magnum 14_02 log.txt,37,37
38,1,246.6177,0,936,1551,2975,4263,526,-11.5,200,0,0,247.8644,1,2,02-May-2014 14:06:06,02_05_2014 level21_continuous_Magnum 14_02 log.txt,37,37
39,0,254.2561,0,437,2761,2975,4263,626,-6.5,200,1,1,255.1251,1,2,02-May-2014 14:06:14,02_05_2014 level21_continuous_Magnum 14_02 log.txt,37,37
40,0,259.0166,1,936,1551,2975,4263,501,-11.5,200,0,0,259.8829,1,2,02-May-2014 14:06:19,02_05_2014 level21_continuous_Magnum 14_02 log.txt,37,37
41,0,265.675,0,437,2761,2975,4263,751,-6.5,200,1,1,267.0036,1,2,02-May-2014 14:06:25,02_05_2014 level21_continuous_Magnum 14_02 log.txt,37,37
42,0,270.7706,1,437,2761,2975,4263,726,-6.5,200,1,1,272.8081,1,2,02-May-2014 14:06:30,02_05_2014 level21_continuous_Magnum 14_02 log.txt,37,37
43,0,276.7105,0,936,1551,2975,4263,551,-11.5,200,0,0,278.3091,1,2,02-May-2014 14:06:36,02_05_2014 level21_continuous_Magnum 14_02 log.txt,37,37
44,0,284.8873,0,936,1551,2975,4263,576,-11.5,200,0,1,286.1598,0,2,02-May-2014 14:06:44,02_05_2014 level21_continuous_Magnum 14_02 log.txt,37,37
45,1,290.6585,1,936,1551,2975,4263,576,-11.5,200,0,0,293.2326,1,2,02-May-2014 14:06:50,02_05_2014 level21_continuous_Magnum 14_02 log.txt,37,37
46,0,299.7962,0,437,2761,2975,4263,526,-6.5,200,1,1,300.8686,1,2,02-May-2014 14:06:59,02_05_2014 level21_continuous_Magnum 14_02 log.txt,37,37
47,0,304.7783,0,437,2761,2975,4263,551,-6.5,200,1,0,306.1171,0,2,02-May-2014 14:07:04,02_05_2014 level21_continuous_Magnum 14_02 log.txt,37,37
48,1,311.2965,0,437,2761,2975,4263,551,-6.5,200,1,1,312.1653,1,2,02-May-2014 14:07:11,02_05_2014 level21_continuous_Magnum 14_02 log.txt,37,37
49,0,315.9892,1,936,1551,2975,4263,651,-11.5,200,0,0,316.9299,1,2,02-May-2014 14:07:15,02_05_2014 level21_continuous_Magnum 14_02 log.txt,37,37
50,0,324.1574,0,437,2761,2975,4263,601,-6.5,200,1,1,325.8301,1,2,02-May-2014 14:07:24,02_05_2014 level21_continuous_Magnum 14_02 log.txt,37,37
51,0,329.6241,0,936,1551,2975,4263,701,-11.5,200,0,0,330.5926,1,2,02-May-2014 14:07:29,02_05_2014 level21_continuous_Magnum 14_02 log.txt,37,37
52,0,336.7543,0,936,1551,2975,4263,626,-11.5,200,0,0,337.8444,1,2,02-May-2014 14:07:36,02_05_2014 level21_continuous_Magnum 14_02 log.txt,37,37
53,0,343.7076,0,936,1551,2975,4263,501,-11.5,200,0,0,345.542,1,2,02-May-2014 14:07:43,02_05_2014 level21_continuous_Magnum 14_02 log.txt,37,37
54,0,352.7533,0,936,1551,2975,4263,726,-11.5,200,0,0,353.6869,1,2,02-May-2014 14:07:52,02_05_2014 level21_continuous_Magnum 14_02 log.txt,37,37
55,0,360.4838,0,437,2761,2975,4263,751,-6.5,200,1,1,361.1391,1,2,02-May-2014 14:08:00,02_05_2014 level21_continuous_Magnum 14_02 log.txt,37,37
56,0,365.0751,0,437,2761,2975,4263,626,-6.5,200,1,1,365.53,1,2,02-May-2014 14:08:05,02_05_2014 level21_continuous_Magnum 14_02 log.txt,37,37
57,0,369.3696,0,437,2761,2975,4263,651,-6.5,200,1,0,370.6356,0,2,02-May-2014 14:08:09,02_05_2014 level21_continuous_Magnum 14_02 log.txt,37,37
58,1,376.9813,0,437,2761,2975,4263,651,-6.5,200,1,1,377.64,1,2,02-May-2014 14:08:16,02_05_2014 level21_continuous_Magnum 14_02 log.txt,37,37
59,0,381.3641,0,437,2761,2975,4263,701,-6.5,200,1,1,381.9328,1,2,02-May-2014 14:08:21,02_05_2014 level21_continuous_Magnum 14_02 log.txt,37,37
60,0,385.4386,0,437,2761,2975,4263,551,-6.5,200,1,0,386.3166,0,2,02-May-2014 14:08:25,02_05_2014 level21_continuous_Magnum 14_02 log.txt,37,37
61,1,391.5252,0,437,2761,2975,4263,551,-6.5,200,1,1,392.192,1,2,02-May-2014 14:08:31,02_05_2014 level21_continuous_Magnum 14_02 log.txt,37,37
62,0,395.6579,0,936,1551,2975,4263,526,-11.5,200,0,0,396.6451,1,2,02-May-2014 14:08:35,02_05_2014 level21_continuous_Magnum 14_02 log.txt,37,37
63,0,401.8441,0,936,1551,2975,4263,601,-11.5,200,0,0,402.9423,1,2,02-May-2014 14:08:41,02_05_2014 level21_continuous_Magnum 14_02 log.txt,37,37
64,0,407.8801,0,936,1551,2975,4263,576,-11.5,200,0,0,408.9174,1,2,02-May-2014 14:08:47,02_05_2014 level21_continuous_Magnum 14_02 log.txt,37,37
65,0,414.5413,0,437,2761,2975,4263,501,-6.5,200,1,1,415.4707,1,2,02-May-2014 14:08:54,02_05_2014 level21_continuous_Magnum 14_02 log.txt,37,37
66,0,419.1003,1,936,1551,2975,4263,676,-11.5,200,0,0,420.2942,1,2,02-May-2014 14:08:59,02_05_2014 level21_continuous_Magnum 14_02 log.txt,37,37
67,0,425.7928,0,437,2761,2975,4263,726,-6.5,200,1,1,426.9778,1,2,02-May-2014 14:09:05,02_05_2014 level21_continuous_Magnum 14_02 log.txt,37,37
68,0,430.5981,1,437,2761,2975,4263,676,-6.5,200,1,1,431.0639,1,2,02-May-2014 14:09:10,02_05_2014 level21_continuous_Magnum 14_02 log.txt,37,37
69,0,434.8225,0,936,1551,2975,4263,551,-11.5,200,0,1,436.6913,0,2,02-May-2014 14:09:14,02_05_2014 level21_continuous_Magnum 14_02 log.txt,37,37
70,1,442.6596,1,936,1551,2975,4263,551,-11.5,200,0,0,446.0692,1,2,02-May-2014 14:09:22,02_05_2014 level21_continuous_Magnum 14_02 log.txt,37,37
71,0,451.8269,0,437,2761,2975,4263,576,-6.5,200,1,1,452.9761,1,2,02-May-2014 14:09:31,02_05_2014 level21_continuous_Magnum 14_02 log.txt,37,37
72,0,456.5269,0,936,1551,2975,4263,626,-11.5,200,0,0,458.196,1,2,02-May-2014 14:09:36,02_05_2014 level21_continuous_Magnum 14_02 log.txt,37,37
73,0,463.1335,0,936,1551,2975,4263,651,-11.5,200,0,0,464.2301,1,2,02-May-2014 14:09:43,02_05_2014 level21_continuous_Magnum 14_02 log.txt,37,37
74,0,470.7243,0,936,1551,2975,4263,701,-11.5,200,0,1,471.4257,0,2,02-May-2014 14:09:50,02_05_2014 level21_continuous_Magnum 14_02 log.txt,37,37
75,1,477.0123,0,936,1551,2975,4263,701,-11.5,200,0,1,477.6537,0,2,02-May-2014 14:09:57,02_05_2014 level21_continuous_Magnum 14_02 log.txt,37,37
76,1,482.236,0,936,1551,2975,4263,701,-11.5,200,0,0,483.3228,1,2,02-May-2014 14:10:02,02_05_2014 level21_continuous_Magnum 14_02 log.txt,37,37
77,0,487.8645,0,936,1551,2975,4263,526,-11.5,200,0,0,489.6698,1,2,02-May-2014 14:10:07,02_05_2014 level21_continuous_Magnum 14_02 log.txt,37,37
78,0,495.1002,0,437,2761,2975,4263,601,-6.5,200,1,1,496.1324,1,2,02-May-2014 14:10:15,02_05_2014 level21_continuous_Magnum 14_02 log.txt,37,37
79,0,499.9941,0,437,2761,2975,4263,501,-6.5,200,1,1,500.5585,1,2,02-May-2014 14:10:19,02_05_2014 level21_continuous_Magnum 14_02 log.txt,37,37
80,0,516.0826,1,437,2761,2975,4263,751,-6.5,200,1,1,516.5789,1,2,02-May-2014 14:10:36,02_05_2014 level21_continuous_Magnum 14_02 log.txt,37,37
81,0,520.2691,0,936,1551,2975,4263,726,-11.5,200,0,0,521.901,1,2,02-May-2014 14:10:40,02_05_2014 level21_continuous_Magnum 14_02 log.txt,37,37
82,0,525.8592,0,437,2761,2975,4263,651,-6.5,200,1,1,526.881,1,2,02-May-2014 14:10:45,02_05_2014 level21_continuous_Magnum 14_02 log.txt,37,37
83,0,533.8678,1,437,2761,2975,4263,751,-6.5,200,1,1,536.0394,1,2,02-May-2014 14:10:53,02_05_2014 level21_continuous_Magnum 14_02 log.txt,37,37
84,0,540.7971,0,437,2761,2975,4263,526,-6.5,200,1,1,541.4014,1,2,02-May-2014 14:11:00,02_05_2014 level21_continuous_Magnum 14_02 log.txt,37,37
85,0,545.1584,1,936,1551,2975,4263,701,-11.5,200,0,1,547.4968,0,2,02-May-2014 14:11:05,02_05_2014 level21_continuous_Magnum 14_02 log.txt,37,37
86,1,569.3968,1,936,1551,2975,4263,701,-11.5,200,0,1,571.266,0,2,02-May-2014 14:11:29,02_05_2014 level21_continuous_Magnum 14_02 log.txt,37,37
87,1,576.7594,0,936,1551,2975,4263,701,-11.5,200,0,1,577.9544,0,2,02-May-2014 14:11:36,02_05_2014 level21_continuous_Magnum 14_02 log.txt,37,37
88,1,601.7662,0,936,1551,2975,4263,701,-11.5,200,0,0,603.1195,1,2,02-May-2014 14:12:01,02_05_2014 level21_continuous_Magnum 14_02 log.txt,37,37
89,0,608.5482,1,936,1551,2975,4263,676,-11.5,200,0,0,610.6717,1,2,02-May-2014 14:12:08,02_05_2014 level21_continuous_Magnum 14_02 log.txt,37,37
90,0,614.9623,0,936,1551,2975,4263,626,-11.5,200,0,1,616.8292,0,2,02-May-2014 14:12:14,02_05_2014 level21_continuous_Magnum 14_02 log.txt,37,37
1,0,35.1609,0,936,1551,2975,4263,751,5,200,0,0,36.4422,1,1,02-Jun-2014 15:00:35,02_06_2014 level20_discreteMagnum 15_00 log.txt,37,37
2,0,43.5461,1,437,2761,2975,4263,576,10,200,1,1,44.2512,1,1,02-Jun-2014 15:00:43,02_06_2014 level20_discreteMagnum 15_00 log.txt,37,37
3,0,51.5362,0,437,2761,2975,4263,726,10,200,1,0,52.5605,0,1,02-Jun-2014 15:00:51,02_06_2014 level20_discreteMagnum 15_00 log.txt,37,37
4,1,59.2212,0,437,2761,2975,4263,726,10,200,1,1,60.231,1,1,02-Jun-2014 15:00:59,02_06_2014 level20_discreteMagnum 15_00 log.txt,37,37
5,0,63.9646,0,936,1551,2975,4263,701,5,200,0,0,64.6635,1,1,02-Jun-2014 15:01:03,02_06_2014 level20_discreteMagnum 15_00 log.txt,37,37
6,0,73.4448,0,936,1551,2975,4263,601,5,200,0,0,73.9005,1,0,02-Jun-2014 15:01:13,02_06_2014 level20_discreteMagnum 15_00 log.txt,37,37
7,0,79.5596,0,437,2761,2975,4263,676,10,200,1,0,80.2089,0,1,02-Jun-2014 15:01:19,02_06_2014 level20_discreteMagnum 15_00 log.txt,37,37
8,1,84.6723,0,437,2761,2975,4263,676,10,200,1,1,85.0391,1,1,02-Jun-2014 15:01:24,02_06_2014 level20_discreteMagnum 15_00 log.txt,37,37
9,0,88.2806,1,437,2761,2975,4263,501,10,200,1,0,89.0422,0,0,02-Jun-2014 15:01:28,02_06_2014 level20_discreteMagnum 15_00 log.txt,37,37
10,1,100.8716,0,437,2761,2975,4263,501,10,200,1,0,101.8825,0,0,02-Jun-2014 15:01:40,02_06_2014 level20_discreteMagnum 15_00 log.txt,37,37
11,1,105.9069,0,437,2761,2975,4263,501,10,200,1,1,106.6267,1,0,02-Jun-2014 15:01:45,02_06_2014 level20_discreteMagnum 15_00 log.txt,37,37
12,0,117.0795,1,437,2761,2975,4263,626,10,200,1,1,117.6469,1,0,02-Jun-2014 15:01:57,02_06_2014 level20_discreteMagnum 15_00 log.txt,37,37
13,0,121.1299,0,936,1551,2975,4263,526,5,200,0,0,121.7488,1,1,02-Jun-2014 15:02:01,02_06_2014 level20_discreteMagnum 15_00 log.txt,37,37
14,0,127.3531,0,936,1551,2975,4263,651,5,200,0,0,127.9481,1,0,02-Jun-2014 15:02:07,02_06_2014 level20_discreteMagnum 15_00 log.txt,37,37
15,0,133.9271,0,437,2761,2975,4263,626,10,200,1,1,134.5532,1,0,02-Jun-2014 15:02:13,02_06_2014 level20_discreteMagnum 15_00 log.txt,37,37
16,0,141.7152,0,936,1551,2975,4263,751,5,200,0,0,142.3855,1,0,02-Jun-2014 15:02:21,02_06_2014 level20_discreteMagnum 15_00 log.txt,37,37
17,0,149.0149,0,437,2761,2975,4263,576,10,200,1,1,149.5254,1,0,02-Jun-2014 15:02:29,02_06_2014 level20_discreteMagnum 15_00 log.txt,37,37
18,0,156.4438,0,936,1551,2975,4263,701,5,200,0,0,157.1586,1,0,02-Jun-2014 15:02:36,02_06_2014 level20_discreteMagnum 15_00 log.txt,37,37
19,0,163.1579,0,437,2761,2975,4263,651,10,200,1,1,163.7763,1,0,02-Jun-2014 15:02:43,02_06_2014 level20_discreteMagnum 15_00 log.txt,37,37
20,0,167.694,1,437,2761,2975,4263,601,10,200,1,0,168.239,0,0,02-Jun-2014 15:02:47,02_06_2014 level20_discreteMagnum 15_00 log.txt,37,37
21,1,172.0726,0,437,2761,2975,4263,601,10,200,1,0,173.0475,0,0,02-Jun-2014 15:02:52,02_06_2014 level20_discreteMagnum 15_00 log.txt,37,37
22,1,178.8033,0,437,2761,2975,4263,601,10,200,1,1,179.4036,1,0,02-Jun-2014 15:02:58,02_06_2014 level20_discreteMagnum 15_00 log.txt,37,37
23,0,183.9983,0,936,1551,2975,4263,726,5,200,0,0,184.6633,1,1,02-Jun-2014 15:03:03,02_06_2014 level20_discreteMagnum 15_00 log.txt,37,37
24,0,190.8474,1,936,1551,2975,4263,501,5,200,0,0,191.9346,1,1,02-Jun-2014 15:03:10,02_06_2014 level20_discreteMagnum 15_00 log.txt,37,37
25,0,197.9441,0,936,1551,2975,4263,526,5,200,0,1,198.7186,0,1,02-Jun-2014 15:03:17,02_06_2014 level20_discreteMagnum 15_00 log.txt,37,37
26,1,206.508,0,936,1551,2975,4263,526,5,200,0,0,207.6864,1,1,02-Jun-2014 15:03:26,02_06_2014 level20_discreteMagnum 15_00 log.txt,37,37
27,0,213.5779,0,437,2761,2975,4263,676,10,200,1,0,214.2135,0,1,02-Jun-2014 15:03:33,02_06_2014 level20_discreteMagnum 15_00 log.txt,37,37
28,1,219.6162,0,437,2761,2975,4263,676,10,200,1,1,220.3027,1,1,02-Jun-2014 15:03:39,02_06_2014 level20_discreteMagnum 15_00 log.txt,37,37
29,0,224.2565,1,437,2761,2975,4263,601,10,200,1,0,225.0389,0,1,02-Jun-2014 15:03:44,02_06_2014 level20_discreteMagnum 15_00 log.txt,37,37
30,1,229.5955,0,437,2761,2975,4263,601,10,200,1,1,229.9252,1,1,02-Jun-2014 15:03:49,02_06_2014 level20_discreteMagnum 15_00 log.txt,37,37
31,0,233.9321,0,936,1551,2975,4263,501,5,200,0,0,234.5052,1,0,02-Jun-2014 15:03:53,02_06_2014 level20_discreteMagnum 15_00 log.txt,37,37
32,0,240.9729,1,936,1551,2975,4263,676,5,200,0,0,241.8715,1,0,02-Jun-2014 15:04:00,02_06_2014 level20_discreteMagnum 15_00 log.txt,37,37
33,0,247.6815,1,437,2761,2975,4263,651,10,200,1,0,248.4913,0,1,02-Jun-2014 15:04:07,02_06_2014 level20_discreteMagnum 15_00 log.txt,37,37
34,1,252.4533,0,437,2761,2975,4263,651,10,200,1,1,253.1666,1,1,02-Jun-2014 15:04:12,02_06_2014 level20_discreteMagnum 15_00 log.txt,37,37
35,0,260.3404,0,936,1551,2975,4263,751,5,200,0,0,261.2281,1,1,02-Jun-2014 15:04:20,02_06_2014 level20_discreteMagnum 15_00 log.txt,37,37
36,0,267.6534,0,936,1551,2975,4263,701,5,200,0,1,268.0392,0,0,02-Jun-2014 15:04:27,02_06_2014 level20_discreteMagnum 15_00 log.txt,37,37
37,1,275.4545,0,936,1551,2975,4263,701,5,200,0,0,276.2036,1,0,02-Jun-2014 15:04:35,02_06_2014 level20_discreteMagnum 15_00 log.txt,37,37
38,0,281.9075,0,936,1551,2975,4263,526,5,200,0,1,287.0166,0,0,02-Jun-2014 15:04:41,02_06_2014 level20_discreteMagnum 15_00 log.txt,37,37
39,1,293.2017,0,936,1551,2975,4263,526,5,200,0,0,294.1083,1,0,02-Jun-2014 15:04:53,02_06_2014 level20_discreteMagnum 15_00 log.txt,37,37
40,0,300.7044,1,936,1551,2975,4263,626,5,200,0,0,301.7157,1,0,02-Jun-2014 15:05:00,02_06_2014 level20_discreteMagnum 15_00 log.txt,37,37
41,0,308.6228,0,437,2761,2975,4263,726,10,200,1,1,309.0229,1,1,02-Jun-2014 15:05:08,02_06_2014 level20_discreteMagnum 15_00 log.txt,37,37
42,0,312.903,0,936,1551,2975,4263,551,5,200,0,1,313.788,0,1,02-Jun-2014 15:05:12,02_06_2014 level20_discreteMagnum 15_00 log.txt,37,37
43,1,318.4736,0,936,1551,2975,4263,551,5,200,0,0,319.2263,1,1,02-Jun-2014 15:05:18,02_06_2014 level20_discreteMagnum 15_00 log.txt,37,37
44,0,325.6817,1,437,2761,2975,4263,751,10,200,1,1,325.9441,1,0,02-Jun-2014 15:05:25,02_06_2014 level20_discreteMagnum 15_00 log.txt,37,37
45,0,334.8495,0,437,2761,2975,4263,726,10,200,1,0,335.8845,0,0,02-Jun-2014 15:05:34,02_06_2014 level20_discreteMagnum 15_00 log.txt,37,37
46,1,340.9354,0,437,2761,2975,4263,726,10,200,1,1,341.6176,1,0,02-Jun-2014 15:05:40,02_06_2014 level20_discreteMagnum 15_00 log.txt,37,37
47,0,348.2851,1,437,2761,2975,4263,676,10,200,1,0,349.1088,0,1,02-Jun-2014 15:05:48,02_06_2014 level20_discreteMagnum 15_00 log.txt,37,37
48,1,355.6805,0,437,2761,2975,4263,676,10,200,1,0,356.6485,0,1,02-Jun-2014 15:05:55,02_06_2014 level20_discreteMagnum 15_00 log.txt,37,37
49,1,360.9203,1,437,2761,2975,4263,676,10,200,1,1,362.0104,1,1,02-Jun-2014 15:06:00,02_06_2014 level20_discreteMagnum 15_00 log.txt,37,37
50,0,370.5764,0,437,2761,2975,4263,651,10,200,1,1,371.2393,1,0,02-Jun-2014 15:06:10,02_06_2014 level20_discreteMagnum 15_00 log.txt,37,37
51,0,378.4931,0,936,1551,2975,4263,576,5,200,0,0,379.4362,1,1,02-Jun-2014 15:06:18,02_06_2014 level20_discreteMagnum 15_00 log.txt,37,37
52,0,386.3142,1,437,2761,2975,4263,501,10,200,1,1,386.8903,1,1,02-Jun-2014 15:06:26,02_06_2014 level20_discreteMagnum 15_00 log.txt,37,37
53,0,396.2619,0,936,1551,2975,4263,701,5,200,0,1,397.035,0,1,02-Jun-2014 15:06:36,02_06_2014 level20_discreteMagnum 15_00 log.txt,37,37
54,1,401.8253,0,936,1551,2975,4263,701,5,200,0,1,402.2003,0,1,02-Jun-2014 15:06:41,02_06_2014 level20_discreteMagnum 15_00 log.txt,37,37
55,1,407.0502,0,936,1551,2975,4263,701,5,200,0,0,408.3021,1,1,02-Jun-2014 15:06:47,02_06_2014 level20_discreteMagnum 15_00 log.txt,37,37
56,0,414.9328,0,437,2761,2975,4263,551,10,200,1,1,415.6731,1,1,02-Jun-2014 15:06:54,02_06_2014 level20_discreteMagnum 15_00 log.txt,37,37
57,0,420.0629,1,936,1551,2975,4263,601,5,200,0,1,420.7969,0,1,02-Jun-2014 15:07:00,02_06_2014 level20_discreteMagnum 15_00 log.txt,37,37
58,1,426.951,0,936,1551,2975,4263,601,5,200,0,0,428.0014,1,1,02-Jun-2014 15:07:06,02_06_2014 level20_discreteMagnum 15_00 log.txt,37,37
59,0,435.3397,0,437,2761,2975,4263,526,10,200,1,1,436.2378,1,1,02-Jun-2014 15:07:15,02_06_2014 level20_discreteMagnum 15_00 log.txt,37,37
60,0,440.5194,0,936,1551,2975,4263,651,5,200,0,0,441.0747,1,0,02-Jun-2014 15:07:20,02_06_2014 level20_discreteMagnum 15_00 log.txt,37,37
61,0,448.4182,1,437,2761,2975,4263,726,10,200,1,1,449.0491,1,0,02-Jun-2014 15:07:28,02_06_2014 level20_discreteMagnum 15_00 log.txt,37,37
62,0,456.3997,0,936,1551,2975,4263,751,5,200,0,0,457.3144,1,0,02-Jun-2014 15:07:36,02_06_2014 level20_discreteMagnum 15_00 log.txt,37,37
63,0,464.3074,1,437,2761,2975,4263,601,10,200,1,0,465.0211,0,0,02-Jun-2014 15:07:44,02_06_2014 level20_discreteMagnum 15_00 log.txt,37,37
64,1,469.4659,0,437,2761,2975,4263,601,10,200,1,1,470.5039,1,0,02-Jun-2014 15:07:49,02_06_2014 level20_discreteMagnum 15_00 log.txt,37,37
65,0,474.8447,0,936,1551,2975,4263,576,5,200,0,0,475.6962,1,0,02-Jun-2014 15:07:54,02_06_2014 level20_discreteMagnum 15_00 log.txt,37,37
66,0,482.843,0,936,1551,2975,4263,626,5,200,0,1,483.4991,0,1,02-Jun-2014 15:08:02,02_06_2014 level20_discreteMagnum 15_00 log.txt,37,37
67,1,489.0745,1,936,1551,2975,4263,626,5,200,0,0,491.4468,1,1,02-Jun-2014 15:08:09,02_06_2014 level20_discreteMagnum 15_00 log.txt,37,37
68,0,497.9931,0,437,2761,2975,4263,501,10,200,1,0,500.7813,0,1,02-Jun-2014 15:08:17,02_06_2014 level20_discreteMagnum 15_00 log.txt,37,37
69,1,506.0255,0,437,2761,2975,4263,501,10,200,1,0,507.2493,0,1,02-Jun-2014 15:08:26,02_06_2014 level20_discreteMagnum 15_00 log.txt,37,37
70,1,513.7746,0,437,2761,2975,4263,501,10,200,1,1,514.6423,1,1,02-Jun-2014 15:08:33,02_06_2014 level20_discreteMagnum 15_00 log.txt,37,37
71,0,518.3036,0,437,2761,2975,4263,551,10,200,1,1,519.1457,1,0,02-Jun-2014 15:08:38,02_06_2014 level20_discreteMagnum 15_00 log.txt,37,37
72,0,522.9117,1,936,1551,2975,4263,701,5,200,0,0,523.6915,1,1,02-Jun-2014 15:08:42,02_06_2014 level20_discreteMagnum 15_00 log.txt,37,37
73,0,529.3291,0,936,1551,2975,4263,676,5,200,0,1,530.0607,0,0,02-Jun-2014 15:08:49,02_06_2014 level20_discreteMagnum 15_00 log.txt,37,37
74,1,534.7971,0,936,1551,2975,4263,676,5,200,0,0,535.7609,1,0,02-Jun-2014 15:08:54,02_06_2014 level20_discreteMagnum 15_00 log.txt,37,37
75,0,542.27,0,936,1551,2975,4263,726,5,200,0,0,543.2358,1,1,02-Jun-2014 15:09:02,02_06_2014 level20_discreteMagnum 15_00 log.txt,37,37
76,0,551.8689,0,936,1551,2975,4263,526,5,200,0,0,553.9052,1,0,02-Jun-2014 15:09:11,02_06_2014 level20_discreteMagnum 15_00 log.txt,37,37
77,0,560.122,1,936,1551,2975,4263,551,5,200,0,1,562.5188,0,1,02-Jun-2014 15:09:20,02_06_2014 level20_discreteMagnum 15_00 log.txt,37,37
78,1,568.2439,0,936,1551,2975,4263,551,5,200,0,0,569.5676,1,1,02-Jun-2014 15:09:28,02_06_2014 level20_discreteMagnum 15_00 log.txt,37,37
79,0,575.9971,0,936,1551,2975,4263,576,5,200,0,0,577.0538,1,0,02-Jun-2014 15:09:35,02_06_2014 level20_discreteMagnum 15_00 log.txt,37,37
80,0,584.7744,1,437,2761,2975,4263,626,10,200,1,1,586.9033,1,0,02-Jun-2014 15:09:44,02_06_2014 level20_discreteMagnum 15_00 log.txt,37,37
81,0,591.4544,0,437,2761,2975,4263,676,10,200,1,0,592.0036,0,1,02-Jun-2014 15:09:51,02_06_2014 level20_discreteMagnum 15_00 log.txt,37,37
82,1,598.7266,1,437,2761,2975,4263,676,10,200,1,1,600.9935,1,1,02-Jun-2014 15:09:58,02_06_2014 level20_discreteMagnum 15_00 log.txt,37,37
83,0,604.9368,1,437,2761,2975,4263,651,10,200,1,0,605.5666,0,1,02-Jun-2014 15:10:04,02_06_2014 level20_discreteMagnum 15_00 log.txt,37,37
84,1,613.9805,0,437,2761,2975,4263,651,10,200,1,1,615.4038,1,1,02-Jun-2014 15:10:13,02_06_2014 level20_discreteMagnum 15_00 log.txt,37,37
85,0,619.1693,0,437,2761,2975,4263,701,10,200,1,0,620.2077,0,0,02-Jun-2014 15:10:19,02_06_2014 level20_discreteMagnum 15_00 log.txt,37,37
86,1,625.4047,0,437,2761,2975,4263,701,10,200,1,0,626.232,0,0,02-Jun-2014 15:10:25,02_06_2014 level20_discreteMagnum 15_00 log.txt,37,37
87,1,631.3298,0,437,2761,2975,4263,701,10,200,1,1,631.7521,1,0,02-Jun-2014 15:10:31,02_06_2014 level20_discreteMagnum 15_00 log.txt,37,37
88,0,638.1328,0,437,2761,2975,4263,501,10,200,1,1,639.2531,1,0,02-Jun-2014 15:10:38,02_06_2014 level20_discreteMagnum 15_00 log.txt,37,37
89,0,645.4836,0,437,2761,2975,4263,601,10,200,1,1,651.1085,1,1,02-Jun-2014 15:10:45,02_06_2014 level20_discreteMagnum 15_00 log.txt,37,37
90,0,660.821,0,437,2761,2975,4263,626,10,200,1,1,661.5981,1,0,02-Jun-2014 15:11:00,02_06_2014 level20_discreteMagnum 15_00 log.txt,37,37
91,0,667.4264,1,936,1551,2975,4263,651,5,200,0,0,669.3405,1,1,02-Jun-2014 15:11:07,02_06_2014 level20_discreteMagnum 15_00 log.txt,37,37
92,0,675.3169,0,437,2761,2975,4263,576,10,200,1,0,676.4575,0,1,02-Jun-2014 15:11:15,02_06_2014 level20_discreteMagnum 15_00 log.txt,37,37
93,1,681.6014,0,437,2761,2975,4263,576,10,200,1,1,682.4365,1,1,02-Jun-2014 15:11:21,02_06_2014 level20_discreteMagnum 15_00 log.txt,37,37
94,0,686.1783,0,437,2761,2975,4263,726,10,200,1,1,686.736,1,1,02-Jun-2014 15:11:26,02_06_2014 level20_discreteMagnum 15_00 log.txt,37,37
95,0,692.9781,0,437,2761,2975,4263,501,10,200,1,0,694.2817,0,1,02-Jun-2014 15:11:32,02_06_2014 level20_discreteMagnum 15_00 log.txt,37,37
96,1,732.2105,0,437,2761,2975,4263,501,10,200,1,1,734.6513,1,1,02-Jun-2014 15:12:12,02_06_2014 level20_discreteMagnum 15_00 log.txt,37,37
97,0,740.664,1,936,1551,2975,4263,751,5,200,0,0,741.4975,1,1,02-Jun-2014 15:12:20,02_06_2014 level20_discreteMagnum 15_00 log.txt,37,37
98,0,747.2916,1,936,1551,2975,4263,676,5,200,0,1,750.7985,0,0,02-Jun-2014 15:12:27,02_06_2014 level20_discreteMagnum 15_00 log.txt,37,37
99,1,755.7136,1,936,1551,2975,4263,676,5,200,0,0,758.306,1,0,02-Jun-2014 15:12:35,02_06_2014 level20_discreteMagnum 15_00 log.txt,37,37
100,0,763.3706,1,437,2761,2975,4263,526,10,200,1,1,765.3437,1,0,02-Jun-2014 15:12:43,02_06_2014 level20_discreteMagnum 15_00 log.txt,37,37
101,0,769.512,0,936,1551,2975,4263,551,5,200,0,1,770.5564,0,0,02-Jun-2014 15:12:49,02_06_2014 level20_discreteMagnum 15_00 log.txt,37,37
102,1,775.5942,0,936,1551,2975,4263,551,5,200,0,0,777.3091,1,0,02-Jun-2014 15:12:55,02_06_2014 level20_discreteMagnum 15_00 log.txt,37,37
103,0,784.9141,0,936,1551,2975,4263,601,5,200,0,1,785.9903,0,1,02-Jun-2014 15:13:04,02_06_2014 level20_discreteMagnum 15_00 log.txt,37,37
104,1,790.869,1,936,1551,2975,4263,601,5,200,0,1,793.0635,0,1,02-Jun-2014 15:13:10,02_06_2014 level20_discreteMagnum 15_00 log.txt,37,37
105,1,807.9217,1,936,1551,2975,4263,601,5,200,0,1,810.3786,0,1,02-Jun-2014 15:13:27,02_06_2014 level20_discreteMagnum 15_00 log.txt,37,37
106,1,814.8943,0,936,1551,2975,4263,601,5,200,0,0,816.6497,1,1,02-Jun-2014 15:13:34,02_06_2014 level20_discreteMagnum 15_00 log.txt,37,37
107,0,822.0157,0,437,2761,2975,4263,676,10,200,1,0,823.5632,0,0,02-Jun-2014 15:13:42,02_06_2014 level20_discreteMagnum 15_00 log.txt,37,37
108,1,829.4835,0,437,2761,2975,4263,676,10,200,1,1,830.6914,1,0,02-Jun-2014 15:13:49,02_06_2014 level20_discreteMagnum 15_00 log.txt,37,37
109,0,833.9696,1,936,1551,2975,4263,626,5,200,0,0,835.8741,1,0,02-Jun-2014 15:13:53,02_06_2014 level20_discreteMagnum 15_00 log.txt,37,37
110,0,842.5705,1,437,2761,2975,4263,526,10,200,1,1,845.4826,1,0,02-Jun-2014 15:14:02,02_06_2014 level20_discreteMagnum 15_00 log.txt,37,37
111,0,849.5878,0,936,1551,2975,4263,551,5,200,0,1,850.7376,0,1,02-Jun-2014 15:14:09,02_06_2014 level20_discreteMagnum 15_00 log.txt,37,37
112,1,941.2515,1,936,1551,2975,4263,551,5,200,0,1,945.478,0,1,02-Jun-2014 15:15:41,02_06_2014 level20_discreteMagnum 15_00 log.txt,37,37
113,1,950.5849,1,936,1551,2975,4263,551,5,200,0,0,952.2708,1,1,02-Jun-2014 15:15:50,02_06_2014 level20_discreteMagnum 15_00 log.txt,37,37
114,0,959.8373,0,936,1551,2975,4263,601,5,200,0,1,960.3481,0,0,02-Jun-2014 15:15:59,02_06_2014 level20_discreteMagnum 15_00 log.txt,37,37
115,1,968.3111,1,936,1551,2975,4263,601,5,200,0,1,971.2099,0,0,02-Jun-2014 15:16:08,02_06_2014 level20_discreteMagnum 15_00 log.txt,37,37
1,0,8.1058,0,936,1551,2975,4263,676,-17.5,200,0,1,14.5155,0,1,03-Jun-2014 08:21:08,03_06_2014 level20_discreteMagnum 08_21 log.txt,37,37
2,1,21.294,0,936,1551,2975,4263,676,-17.5,200,0,1,22.3926,0,1,03-Jun-2014 08:21:21,03_06_2014 level20_discreteMagnum 08_21 log.txt,37,37
3,1,33.9465,1,936,1551,2975,4263,676,-17.5,200,0,0,36.6257,1,1,03-Jun-2014 08:21:33,03_06_2014 level20_discreteMagnum 08_21 log.txt,37,37
4,0,44.5309,0,936,1551,2975,4263,701,-17.5,200,0,0,45.8164,1,0,03-Jun-2014 08:21:44,03_06_2014 level20_discreteMagnum 08_21 log.txt,37,37
5,0,52.312,0,936,1551,2975,4263,551,-17.5,200,0,1,53.6126,0,1,03-Jun-2014 08:21:52,03_06_2014 level20_discreteMagnum 08_21 log.txt,37,37
6,1,58.8741,0,936,1551,2975,4263,551,-17.5,200,0,0,59.7488,1,1,03-Jun-2014 08:21:58,03_06_2014 level20_discreteMagnum 08_21 log.txt,37,37
7,0,65.1245,0,437,2761,2975,4263,501,-12.5,200,1,1,66.0692,1,1,03-Jun-2014 08:22:05,03_06_2014 level20_discreteMagnum 08_21 log.txt,37,37
8,0,67.4498,0,437,2761,2975,4263,526,-12.5,200,1,0,68.5964,0,0,03-Jun-2014 08:22:07,03_06_2014 level20_discreteMagnum 08_21 log.txt,37,37
9,1,73.6989,0,437,2761,2975,4263,526,-12.5,200,1,0,74.7143,0,0,03-Jun-2014 08:22:13,03_06_2014 level20_discreteMagnum 08_21 log.txt,37,37
10,1,80.3277,0,437,2761,2975,4263,526,-12.5,200,1,1,81.1299,1,0,03-Jun-2014 08:22:20,03_06_2014 level20_discreteMagnum 08_21 log.txt,37,37
11,0,82.5542,0,936,1551,2975,4263,601,-17.5,200,0,0,83.3174,1,0,03-Jun-2014 08:22:22,03_06_2014 level20_discreteMagnum 08_21 log.txt,37,37
12,0,89.2889,0,437,2761,2975,4263,626,-12.5,200,1,0,90.0972,0,1,03-Jun-2014 08:22:29,03_06_2014 level20_discreteMagnum 08_21 log.txt,37,37
13,1,94.6843,0,437,2761,2975,4263,626,-12.5,200,1,0,95.7226,0,1,03-Jun-2014 08:22:34,03_06_2014 level20_discreteMagnum 08_21 log.txt,37,37
14,1,101.7317,1,437,2761,2975,4263,626,-12.5,200,1,0,103.8845,0,1,03-Jun-2014 08:22:41,03_06_2014 level20_discreteMagnum 08_21 log.txt,37,37
15,1,108.2003,0,437,2761,2975,4263,626,-12.5,200,1,1,109.1002,1,1,03-Jun-2014 08:22:48,03_06_2014 level20_discreteMagnum 08_21 log.txt,37,37
16,0,112.346,0,437,2761,2975,4263,751,-12.5,200,1,0,112.9676,0,1,03-Jun-2014 08:22:52,03_06_2014 level20_discreteMagnum 08_21 log.txt,37,37
17,1,117.7479,1,437,2761,2975,4263,751,-12.5,200,1,0,120.5121,0,1,03-Jun-2014 08:22:57,03_06_2014 level20_discreteMagnum 08_21 log.txt,37,37
18,1,124.8785,1,437,2761,2975,4263,751,-12.5,200,1,1,127.5966,1,1,03-Jun-2014 08:23:04,03_06_2014 level20_discreteMagnum 08_21 log.txt,37,37
19,0,130.6245,0,936,1551,2975,4263,651,-17.5,200,0,0,131.5777,1,1,03-Jun-2014 08:23:10,03_06_2014 level20_discreteMagnum 08_21 log.txt,37,37
20,0,137.1728,0,437,2761,2975,4263,726,-12.5,200,1,0,138.8902,0,0,03-Jun-2014 08:23:17,03_06_2014 level20_discreteMagnum 08_21 log.txt,37,37
21,1,143.7707,0,437,2761,2975,4263,726,-12.5,200,1,0,144.7759,0,0,03-Jun-2014 08:23:23,03_06_2014 level20_discreteMagnum 08_21 log.txt,37,37
22,1,149.9488,0,437,2761,2975,4263,726,-12.5,200,1,1,150.3956,1,0,03-Jun-2014 08:23:29,03_06_2014 level20_discreteMagnum 08_21 log.txt,37,37
23,0,154.1164,1,437,2761,2975,4263,526,-12.5,200,1,1,154.6562,1,0,03-Jun-2014 08:23:34,03_06_2014 level20_discreteMagnum 08_21 log.txt,37,37
24,0,158.9878,1,936,1551,2975,4263,726,-17.5,200,0,0,162.3946,1,0,03-Jun-2014 08:23:38,03_06_2014 level20_discreteMagnum 08_21 log.txt,37,37
25,0,168.5169,0,936,1551,2975,4263,651,-17.5,200,0,0,169.6229,1,1,03-Jun-2014 08:23:48,03_06_2014 level20_discreteMagnum 08_21 log.txt,37,37
26,0,175.7667,1,437,2761,2975,4263,551,-12.5,200,1,1,177.8173,1,1,03-Jun-2014 08:23:55,03_06_2014 level20_discreteMagnum 08_21 log.txt,37,37
27,0,181.6512,0,936,1551,2975,4263,576,-17.5,200,0,0,182.4869,1,0,03-Jun-2014 08:24:01,03_06_2014 level20_discreteMagnum 08_21 log.txt,37,37
28,0,189.2107,0,437,2761,2975,4263,626,-12.5,200,1,1,190.0779,1,1,03-Jun-2014 08:24:09,03_06_2014 level20_discreteMagnum 08_21 log.txt,37,37
29,0,194.6429,1,936,1551,2975,4263,751,-17.5,200,0,0,195.0541,1,1,03-Jun-2014 08:24:14,03_06_2014 level20_discreteMagnum 08_21 log.txt,37,37
30,0,200.5399,0,936,1551,2975,4263,501,-17.5,200,0,1,202.7558,0,1,03-Jun-2014 08:24:20,03_06_2014 level20_discreteMagnum 08_21 log.txt,37,37
31,1,206.4079,0,936,1551,2975,4263,501,-17.5,200,0,0,207.5246,1,1,03-Jun-2014 08:24:26,03_06_2014 level20_discreteMagnum 08_21 log.txt,37,37
32,0,213.9871,1,437,2761,2975,4263,701,-12.5,200,1,1,215.7919,1,0,03-Jun-2014 08:24:33,03_06_2014 level20_discreteMagnum 08_21 log.txt,37,37
33,0,219.3068,1,437,2761,2975,4263,676,-12.5,200,1,1,221.1925,1,0,03-Jun-2014 08:24:39,03_06_2014 level20_discreteMagnum 08_21 log.txt,37,37
34,0,224.3616,0,437,2761,2975,4263,501,-12.5,200,1,0,225.418,0,1,03-Jun-2014 08:24:44,03_06_2014 level20_discreteMagnum 08_21 log.txt,37,37
35,1,230.278,0,437,2761,2975,4263,501,-12.5,200,1,1,231.1665,1,1,03-Jun-2014 08:24:50,03_06_2014 level20_discreteMagnum 08_21 log.txt,37,37
36,0,234.6886,0,437,2761,2975,4263,626,-12.5,200,1,1,235.2417,1,0,03-Jun-2014 08:24:54,03_06_2014 level20_discreteMagnum 08_21 log.txt,37,37
37,0,241.7056,0,936,1551,2975,4263,726,-17.5,200,0,0,242.6153,1,0,03-Jun-2014 08:25:01,03_06_2014 level20_discreteMagnum 08_21 log.txt,37,37
38,0,248.8895,0,936,1551,2975,4263,676,-17.5,200,0,0,249.7186,1,0,03-Jun-2014 08:25:08,03_06_2014 level20_discreteMagnum 08_21 log.txt,37,37
39,0,255.1092,0,936,1551,2975,4263,576,-17.5,200,0,0,256.6921,1,0,03-Jun-2014 08:25:15,03_06_2014 level20_discreteMagnum 08_21 log.txt,37,37
40,0,262.3763,1,437,2761,2975,4263,701,-12.5,200,1,1,264.8464,1,1,03-Jun-2014 08:25:22,03_06_2014 level20_discreteMagnum 08_21 log.txt,37,37
41,0,268.8132,1,936,1551,2975,4263,551,-17.5,200,0,0,271.2124,1,0,03-Jun-2014 08:25:28,03_06_2014 level20_discreteMagnum 08_21 log.txt,37,37
42,0,276.993,1,437,2761,2975,4263,751,-12.5,200,1,1,277.5964,1,1,03-Jun-2014 08:25:36,03_06_2014 level20_discreteMagnum 08_21 log.txt,37,37
43,0,280.8799,1,936,1551,2975,4263,526,-17.5,200,0,1,284.4872,0,1,03-Jun-2014 08:25:40,03_06_2014 level20_discreteMagnum 08_21 log.txt,37,37
44,1,288.2038,0,936,1551,2975,4263,526,-17.5,200,0,0,289.2815,1,1,03-Jun-2014 08:25:48,03_06_2014 level20_discreteMagnum 08_21 log.txt,37,37
45,0,296.9748,1,437,2761,2975,4263,601,-12.5,200,1,1,299.4193,1,0,03-Jun-2014 08:25:56,03_06_2014 level20_discreteMagnum 08_21 log.txt,37,37
46,0,303.21,1,936,1551,2975,4263,501,-17.5,200,0,0,305.92,1,0,03-Jun-2014 08:26:03,03_06_2014 level20_discreteMagnum 08_21 log.txt,37,37
47,0,312.0677,1,437,2761,2975,4263,651,-12.5,200,1,1,315.1331,1,0,03-Jun-2014 08:26:12,03_06_2014 level20_discreteMagnum 08_21 log.txt,37,37
48,0,318.8036,1,437,2761,2975,4263,751,-12.5,200,1,1,319.3597,1,0,03-Jun-2014 08:26:18,03_06_2014 level20_discreteMagnum 08_21 log.txt,37,37
49,0,323.7029,1,936,1551,2975,4263,601,-17.5,200,0,0,326.8945,1,1,03-Jun-2014 08:26:23,03_06_2014 level20_discreteMagnum 08_21 log.txt,37,37
50,0,335.5566,0,437,2761,2975,4263,626,-12.5,200,1,1,336.5409,1,1,03-Jun-2014 08:26:35,03_06_2014 level20_discreteMagnum 08_21 log.txt,37,37
51,0,340.0013,1,936,1551,2975,4263,676,-17.5,200,0,0,342.2108,1,1,03-Jun-2014 08:26:40,03_06_2014 level20_discreteMagnum 08_21 log.txt,37,37
52,0,347.2011,0,437,2761,2975,4263,526,-12.5,200,1,1,348.3623,1,0,03-Jun-2014 08:26:47,03_06_2014 level20_discreteMagnum 08_21 log.txt,37,37
53,0,351.8084,0,437,2761,2975,4263,576,-12.5,200,1,0,352.9372,0,1,03-Jun-2014 08:26:51,03_06_2014 level20_discreteMagnum 08_21 log.txt,37,37
54,1,358.6851,0,437,2761,2975,4263,576,-12.5,200,1,1,359.6805,1,1,03-Jun-2014 08:26:58,03_06_2014 level20_discreteMagnum 08_21 log.txt,37,37
55,0,364.2191,0,936,1551,2975,4263,726,-17.5,200,0,0,364.7888,1,0,03-Jun-2014 08:27:04,03_06_2014 level20_discreteMagnum 08_21 log.txt,37,37
56,0,370.2188,1,936,1551,2975,4263,551,-17.5,200,0,0,371.1606,1,0,03-Jun-2014 08:27:10,03_06_2014 level20_discreteMagnum 08_21 log.txt,37,37
57,0,376.0627,1,936,1551,2975,4263,501,-17.5,200,0,1,378.7131,0,1,03-Jun-2014 08:27:16,03_06_2014 level20_discreteMagnum 08_21 log.txt,37,37
58,1,385.5981,1,936,1551,2975,4263,501,-17.5,200,0,0,388.588,1,1,03-Jun-2014 08:27:25,03_06_2014 level20_discreteMagnum 08_21 log.txt,37,37
59,0,393.7932,0,936,1551,2975,4263,551,-17.5,200,0,0,394.9225,1,0,03-Jun-2014 08:27:33,03_06_2014 level20_discreteMagnum 08_21 log.txt,37,37
60,0,401.842,0,437,2761,2975,4263,751,-12.5,200,1,1,402.5514,1,0,03-Jun-2014 08:27:41,03_06_2014 level20_discreteMagnum 08_21 log.txt,37,37
61,0,408.5111,0,437,2761,2975,4263,726,-12.5,200,1,1,409.4609,1,0,03-Jun-2014 08:27:48,03_06_2014 level20_discreteMagnum 08_21 log.txt,37,37
62,0,413.1552,1,437,2761,2975,4263,576,-12.5,200,1,1,413.864,1,1,03-Jun-2014 08:27:53,03_06_2014 level20_discreteMagnum 08_21 log.txt,37,37
63,0,418.3643,0,936,1551,2975,4263,651,-17.5,200,0,0,419.7158,1,1,03-Jun-2014 08:27:58,03_06_2014 level20_discreteMagnum 08_21 log.txt,37,37
64,0,425.9183,0,936,1551,2975,4263,701,-17.5,200,0,0,426.8011,1,1,03-Jun-2014 08:28:05,03_06_2014 level20_discreteMagnum 08_21 log.txt,37,37
65,0,432.9997,1,437,2761,2975,4263,676,-12.5,200,1,1,435.8108,1,1,03-Jun-2014 08:28:12,03_06_2014 level20_discreteMagnum 08_21 log.txt,37,37
66,0,439.8812,1,936,1551,2975,4263,526,-17.5,200,0,0,442.4443,1,1,03-Jun-2014 08:28:19,03_06_2014 level20_discreteMagnum 08_21 log.txt,37,37
67,0,449.2055,0,936,1551,2975,4263,601,-17.5,200,0,0,450.2229,1,0,03-Jun-2014 08:28:29,03_06_2014 level20_discreteMagnum 08_21 log.txt,37,37
68,0,455.6472,0,437,2761,2975,4263,676,-12.5,200,1,1,456.4147,1,1,03-Jun-2014 08:28:35,03_06_2014 level20_discreteMagnum 08_21 log.txt,37,37
69,0,460.0458,0,437,2761,2975,4263,726,-12.5,200,1,1,460.8966,1,1,03-Jun-2014 08:28:40,03_06_2014 level20_discreteMagnum 08_21 log.txt,37,37
70,0,464.7764,0,936,1551,2975,4263,626,-17.5,200,0,0,465.5534,1,0,03-Jun-2014 08:28:44,03_06_2014 level20_discreteMagnum 08_21 log.txt,37,37
71,0,470.6292,0,437,2761,2975,4263,651,-12.5,200,1,1,471.7432,1,1,03-Jun-2014 08:28:50,03_06_2014 level20_discreteMagnum 08_21 log.txt,37,37
72,0,475.146,0,437,2761,2975,4263,501,-12.5,200,1,1,476.0616,1,0,03-Jun-2014 08:28:55,03_06_2014 level20_discreteMagnum 08_21 log.txt,37,37
73,0,482.3961,1,936,1551,2975,4263,751,-17.5,200,0,0,482.9494,1,0,03-Jun-2014 08:29:02,03_06_2014 level20_discreteMagnum 08_21 log.txt,37,37
74,0,487.9606,1,437,2761,2975,4263,551,-12.5,200,1,1,491.0417,1,0,03-Jun-2014 08:29:07,03_06_2014 level20_discreteMagnum 08_21 log.txt,37,37
75,0,500.79,0,936,1551,2975,4263,701,-17.5,200,0,0,501.775,1,1,03-Jun-2014 08:29:20,03_06_2014 level20_discreteMagnum 08_21 log.txt,37,37
76,0,507.4916,0,936,1551,2975,4263,576,-17.5,200,0,0,508.4639,1,1,03-Jun-2014 08:29:27,03_06_2014 level20_discreteMagnum 08_21 log.txt,37,37
77,0,512.9309,0,437,2761,2975,4263,526,-12.5,200,1,1,513.8973,1,0,03-Jun-2014 08:29:32,03_06_2014 level20_discreteMagnum 08_21 log.txt,37,37
78,0,517.51,0,437,2761,2975,4263,601,-12.5,200,1,1,518.0818,1,0,03-Jun-2014 08:29:37,03_06_2014 level20_discreteMagnum 08_21 log.txt,37,37
79,0,521.9398,1,936,1551,2975,4263,526,-17.5,200,0,0,524.3664,1,0,03-Jun-2014 08:29:41,03_06_2014 level20_discreteMagnum 08_21 log.txt,37,37
80,0,528.5827,0,437,2761,2975,4263,676,-12.5,200,1,0,529.6867,0,1,03-Jun-2014 08:29:48,03_06_2014 level20_discreteMagnum 08_21 log.txt,37,37
81,1,535.2105,0,437,2761,2975,4263,676,-12.5,200,1,1,535.9378,1,1,03-Jun-2014 08:29:55,03_06_2014 level20_discreteMagnum 08_21 log.txt,37,37
82,0,540.5116,0,936,1551,2975,4263,551,-17.5,200,0,0,541.4469,1,0,03-Jun-2014 08:30:00,03_06_2014 level20_discreteMagnum 08_21 log.txt,37,37
83,0,547.3941,1,437,2761,2975,4263,576,-12.5,200,1,1,549.2138,1,1,03-Jun-2014 08:30:07,03_06_2014 level20_discreteMagnum 08_21 log.txt,37,37
84,0,552.5652,0,437,2761,2975,4263,626,-12.5,200,1,0,554.16,0,1,03-Jun-2014 08:30:12,03_06_2014 level20_discreteMagnum 08_21 log.txt,37,37
85,1,558.3582,0,437,2761,2975,4263,626,-12.5,200,1,1,559.2248,1,1,03-Jun-2014 08:30:18,03_06_2014 level20_discreteMagnum 08_21 log.txt,37,37
86,0,565.8629,0,936,1551,2975,4263,701,-17.5,200,0,0,566.6657,1,0,03-Jun-2014 08:30:25,03_06_2014 level20_discreteMagnum 08_21 log.txt,37,37
87,0,572.4202,1,437,2761,2975,4263,751,-12.5,200,1,1,573.0295,1,0,03-Jun-2014 08:30:32,03_06_2014 level20_discreteMagnum 08_21 log.txt,37,37
88,0,577.7152,0,936,1551,2975,4263,501,-17.5,200,0,1,579.852,0,1,03-Jun-2014 08:30:37,03_06_2014 level20_discreteMagnum 08_21 log.txt,37,37
89,1,584.5531,0,936,1551,2975,4263,501,-17.5,200,0,0,585.576,1,1,03-Jun-2014 08:30:44,03_06_2014 level20_discreteMagnum 08_21 log.txt,37,37
90,0,590.6035,0,437,2761,2975,4263,651,-12.5,200,1,1,591.6143,1,0,03-Jun-2014 08:30:50,03_06_2014 level20_discreteMagnum 08_21 log.txt,37,37
91,0,598.5184,0,936,1551,2975,4263,526,-17.5,200,0,0,599.6394,1,1,03-Jun-2014 08:30:58,03_06_2014 level20_discreteMagnum 08_21 log.txt,37,37
92,0,607.941,0,936,1551,2975,4263,751,-17.5,200,0,0,609.4414,1,1,03-Jun-2014 08:31:07,03_06_2014 level20_discreteMagnum 08_21 log.txt,37,37
93,0,616.2505,0,437,2761,2975,4263,551,-12.5,200,1,1,617.1545,1,0,03-Jun-2014 08:31:16,03_06_2014 level20_discreteMagnum 08_21 log.txt,37,37
94,0,620.6955,0,936,1551,2975,4263,576,-17.5,200,0,0,621.5089,1,0,03-Jun-2014 08:31:20,03_06_2014 level20_discreteMagnum 08_21 log.txt,37,37
95,0,627.2734,0,936,1551,2975,4263,601,-17.5,200,0,0,628.549,1,0,03-Jun-2014 08:31:27,03_06_2014 level20_discreteMagnum 08_21 log.txt,37,37
96,0,636.1353,0,437,2761,2975,4263,651,-12.5,200,1,1,636.9396,1,0,03-Jun-2014 08:31:36,03_06_2014 level20_discreteMagnum 08_21 log.txt,37,37
97,0,641.3266,1,936,1551,2975,4263,726,-17.5,200,0,0,642.1948,1,0,03-Jun-2014 08:31:41,03_06_2014 level20_discreteMagnum 08_21 log.txt,37,37
98,0,647.7672,0,437,2761,2975,4263,626,-12.5,200,1,1,650.2022,1,1,03-Jun-2014 08:31:47,03_06_2014 level20_discreteMagnum 08_21 log.txt,37,37
99,0,654.3212,0,936,1551,2975,4263,701,-17.5,200,0,0,654.9865,1,1,03-Jun-2014 08:31:54,03_06_2014 level20_discreteMagnum 08_21 log.txt,37,37
100,0,661.6652,0,437,2761,2975,4263,676,-12.5,200,1,1,662.5799,1,1,03-Jun-2014 08:32:01,03_06_2014 level20_discreteMagnum 08_21 log.txt,37,37
101,0,666.2971,0,936,1551,2975,4263,551,-17.5,200,0,0,667.6074,1,1,03-Jun-2014 08:32:06,03_06_2014 level20_discreteMagnum 08_21 log.txt,37,37
102,0,673.5051,0,936,1551,2975,4263,701,-17.5,200,0,0,674.5983,1,1,03-Jun-2014 08:32:13,03_06_2014 level20_discreteMagnum 08_21 log.txt,37,37
103,0,681.4034,0,437,2761,2975,4263,501,-12.5,200,1,1,682.3843,1,0,03-Jun-2014 08:32:21,03_06_2014 level20_discreteMagnum 08_21 log.txt,37,37
104,0,688.6963,0,437,2761,2975,4263,576,-12.5,200,1,1,689.6779,1,1,03-Jun-2014 08:32:28,03_06_2014 level20_discreteMagnum 08_21 log.txt,37,37
105,0,693.7561,0,936,1551,2975,4263,526,-17.5,200,0,0,694.8671,1,1,03-Jun-2014 08:32:33,03_06_2014 level20_discreteMagnum 08_21 log.txt,37,37
106,0,700.3349,1,437,2761,2975,4263,751,-12.5,200,1,1,702.3368,1,0,03-Jun-2014 08:32:40,03_06_2014 level20_discreteMagnum 08_21 log.txt,37,37
107,0,706.4981,0,936,1551,2975,4263,676,-17.5,200,0,0,707.7242,1,1,03-Jun-2014 08:32:46,03_06_2014 level20_discreteMagnum 08_21 log.txt,37,37
108,0,713.8479,1,936,1551,2975,4263,651,-17.5,200,0,1,716.8487,0,0,03-Jun-2014 08:32:53,03_06_2014 level20_discreteMagnum 08_21 log.txt,37,37
109,1,720.5736,0,936,1551,2975,4263,651,-17.5,200,0,0,721.718,1,0,03-Jun-2014 08:33:00,03_06_2014 level20_discreteMagnum 08_21 log.txt,37,37
110,0,728.1922,0,437,2761,2975,4263,726,-12.5,200,1,1,729.2015,1,0,03-Jun-2014 08:33:08,03_06_2014 level20_discreteMagnum 08_21 log.txt,37,37
111,0,732.6725,0,936,1551,2975,4263,601,-17.5,200,0,0,733.5385,1,0,03-Jun-2014 08:33:12,03_06_2014 level20_discreteMagnum 08_21 log.txt,37,37
112,0,739.0019,1,437,2761,2975,4263,726,-12.5,200,1,1,741.0648,1,1,03-Jun-2014 08:33:19,03_06_2014 level20_discreteMagnum 08_21 log.txt,37,37
113,0,744.5424,0,437,2761,2975,4263,551,-12.5,200,1,1,745.5104,1,1,03-Jun-2014 08:33:24,03_06_2014 level20_discreteMagnum 08_21 log.txt,37,37
114,0,750.1906,1,437,2761,2975,4263,501,-12.5,200,1,1,751.2653,1,0,03-Jun-2014 08:33:30,03_06_2014 level20_discreteMagnum 08_21 log.txt,37,37
115,0,755.1143,0,936,1551,2975,4263,651,-17.5,200,0,0,757.1071,1,1,03-Jun-2014 08:33:35,03_06_2014 level20_discreteMagnum 08_21 log.txt,37,37
116,0,763.4298,0,936,1551,2975,4263,626,-17.5,200,0,0,764.4188,1,0,03-Jun-2014 08:33:43,03_06_2014 level20_discreteMagnum 08_21 log.txt,37,37
117,0,770.2216,0,437,2761,2975,4263,526,-12.5,200,1,1,771.4085,1,1,03-Jun-2014 08:33:50,03_06_2014 level20_discreteMagnum 08_21 log.txt,37,37
118,0,775.6315,0,936,1551,2975,4263,576,-17.5,200,0,0,776.6569,1,0,03-Jun-2014 08:33:55,03_06_2014 level20_discreteMagnum 08_21 log.txt,37,37
119,0,781.8478,1,936,1551,2975,4263,601,-17.5,200,0,1,784.3136,0,1,03-Jun-2014 08:34:01,03_06_2014 level20_discreteMagnum 08_21 log.txt,37,37
120,1,788.1819,0,936,1551,2975,4263,601,-17.5,200,0,0,789.2986,1,1,03-Jun-2014 08:34:08,03_06_2014 level20_discreteMagnum 08_21 log.txt,37,37
121,0,794.3623,0,437,2761,2975,4263,701,-12.5,200,1,1,795.3617,1,1,03-Jun-2014 08:34:14,03_06_2014 level20_discreteMagnum 08_21 log.txt,37,37
122,0,798.7928,0,936,1551,2975,4263,676,-17.5,200,0,0,800.3592,1,1,03-Jun-2014 08:34:18,03_06_2014 level20_discreteMagnum 08_21 log.txt,37,37
123,0,805.8823,1,437,2761,2975,4263,726,-12.5,200,1,1,807.9213,1,1,03-Jun-2014 08:34:25,03_06_2014 level20_discreteMagnum 08_21 log.txt,37,37
124,0,811.7187,0,437,2761,2975,4263,651,-12.5,200,1,1,812.6923,1,0,03-Jun-2014 08:34:31,03_06_2014 level20_discreteMagnum 08_21 log.txt,37,37
125,0,816.0803,1,936,1551,2975,4263,626,-17.5,200,0,0,817.0969,1,0,03-Jun-2014 08:34:36,03_06_2014 level20_discreteMagnum 08_21 log.txt,37,37
126,0,822.5359,0,437,2761,2975,4263,751,-12.5,200,1,1,824.5535,1,1,03-Jun-2014 08:34:42,03_06_2014 level20_discreteMagnum 08_21 log.txt,37,37
127,0,828.4384,0,936,1551,2975,4263,601,-17.5,200,0,0,829.7889,1,1,03-Jun-2014 08:34:48,03_06_2014 level20_discreteMagnum 08_21 log.txt,37,37
128,0,834.8695,0,437,2761,2975,4263,551,-12.5,200,1,0,836.1746,0,0,03-Jun-2014 08:34:54,03_06_2014 level20_discreteMagnum 08_21 log.txt,37,37
129,1,840.6662,0,437,2761,2975,4263,551,-12.5,200,1,1,841.7045,1,0,03-Jun-2014 08:35:00,03_06_2014 level20_discreteMagnum 08_21 log.txt,37,37
130,0,850.5794,1,437,2761,2975,4263,701,-12.5,200,1,0,863.8942,0,0,03-Jun-2014 08:35:10,03_06_2014 level20_discreteMagnum 08_21 log.txt,37,37
131,1,870.7027,0,437,2761,2975,4263,701,-12.5,200,1,1,871.5271,1,0,03-Jun-2014 08:35:30,03_06_2014 level20_discreteMagnum 08_21 log.txt,37,37
132,0,875.3866,0,936,1551,2975,4263,576,-17.5,200,0,0,876.5478,1,0,03-Jun-2014 08:35:35,03_06_2014 level20_discreteMagnum 08_21 log.txt,37,37
133,0,881.7539,1,936,1551,2975,4263,526,-17.5,200,0,0,883.0811,1,1,03-Jun-2014 08:35:41,03_06_2014 level20_discreteMagnum 08_21 log.txt,37,37
134,0,889.2062,1,437,2761,2975,4263,501,-12.5,200,1,1,891.4052,1,0,03-Jun-2014 08:35:49,03_06_2014 level20_discreteMagnum 08_21 log.txt,37,37
135,0,909.4911,0,437,2761,2975,4263,676,-12.5,200,1,1,910.7118,1,1,03-Jun-2014 08:36:09,03_06_2014 level20_discreteMagnum 08_21 log.txt,37,37
136,0,914.2425,0,936,1551,2975,4263,601,-17.5,200,0,0,915.0442,1,1,03-Jun-2014 08:36:14,03_06_2014 level20_discreteMagnum 08_21 log.txt,37,37
137,0,920.3945,0,437,2761,2975,4263,751,-12.5,200,1,0,921.3363,0,0,03-Jun-2014 08:36:20,03_06_2014 level20_discreteMagnum 08_21 log.txt,37,37
138,1,932.8849,1,437,2761,2975,4263,751,-12.5,200,1,0,933.5655,0,0,03-Jun-2014 08:36:32,03_06_2014 level20_discreteMagnum 08_21 log.txt,37,37
1,0,4.985,0,437,2761,2975,4263,701,-7.5,200,1,1,5.6048,1,2,03-Jun-2014 14:53:04,03_06_2014 level21_continuous_Magnum 14_53 log.txt,37,37
2,0,9.0136,0,437,2761,2975,4263,626,-7.5,200,1,0,9.491,0,2,03-Jun-2014 14:53:09,03_06_2014 level21_continuous_Magnum 14_53 log.txt,37,37
3,1,14.2034,0,437,2761,2975,4263,626,-7.5,200,1,1,19.5507,1,2,03-Jun-2014 14:53:14,03_06_2014 level21_continuous_Magnum 14_53 log.txt,37,37
4,0,20.6975,0,936,1551,2975,4263,726,-12.5,200,0,1,21.1935,0,2,03-Jun-2014 14:53:20,03_06_2014 level21_continuous_Magnum 14_53 log.txt,37,37
5,1,27.2895,0,936,1551,2975,4263,726,-12.5,200,0,0,27.9036,1,2,03-Jun-2014 14:53:27,03_06_2014 level21_continuous_Magnum 14_53 log.txt,37,37
6,0,33.8962,0,936,1551,2975,4263,751,-12.5,200,0,1,34.6036,0,2,03-Jun-2014 14:53:33,03_06_2014 level21_continuous_Magnum 14_53 log.txt,37,37
7,1,40.2353,0,936,1551,2975,4263,751,-12.5,200,0,0,41.0225,1,2,03-Jun-2014 14:53:40,03_06_2014 level21_continuous_Magnum 14_53 log.txt,37,37
8,0,46.0022,0,437,2761,2975,4263,526,-7.5,200,1,1,46.8789,1,2,03-Jun-2014 14:53:46,03_06_2014 level21_continuous_Magnum 14_53 log.txt,37,37
9,0,54.8701,0,936,1551,2975,4263,651,-12.5,200,0,0,55.3743,1,2,03-Jun-2014 14:53:54,03_06_2014 level21_continuous_Magnum 14_53 log.txt,37,37
10,0,60.5663,0,936,1551,2975,4263,551,-12.5,200,0,0,61.2707,1,2,03-Jun-2014 14:54:00,03_06_2014 level21_continuous_Magnum 14_53 log.txt,37,37
11,0,66.873,0,437,2761,2975,4263,501,-7.5,200,1,0,67.8527,0,2,03-Jun-2014 14:54:06,03_06_2014 level21_continuous_Magnum 14_53 log.txt,37,37
12,1,72.263,1,437,2761,2975,4263,501,-7.5,200,1,1,73.9184,1,2,03-Jun-2014 14:54:12,03_06_2014 level21_continuous_Magnum 14_53 log.txt,37,37
13,0,77.3931,1,437,2761,2975,4263,601,-7.5,200,1,0,77.8963,0,2,03-Jun-2014 14:54:17,03_06_2014 level21_continuous_Magnum 14_53 log.txt,37,37
