Trial,CorrectionTrial,StartTime,CenterReward,F1,F2,F3,F4,HoldTime,Atten,Pitch,Side,Response,RespTime,Correct,Mask,UniversalStartTime,originalFile,LeftTemperature,RightTemperature,day
1,0,94.5403,0,460,1105,2857,4205,651,11.5,200,0,1,102.6273,0,2,02-Dec-2015 08:29:51,02_12_2015 level21_continuous_Robin 08_28_16.745 log.txt,37,37,736300
2,1,112.9055,0,460,1105,2857,4205,651,11.5,200,0,1,119.5922,0,2,02-Dec-2015 08:30:09,02_12_2015 level21_continuous_Robin 08_28_16.745 log.txt,37,37,736300
3,1,127.764,0,460,1105,2857,4205,651,11.5,200,0,1,129.1702,0,2,02-Dec-2015 08:30:24,02_12_2015 level21_continuous_Robin 08_28_16.745 log.txt,37,37,736300
4,1,136.3822,0,460,1105,2857,4205,651,11.5,200,0,0,138.102,1,2,02-Dec-2015 08:30:33,02_12_2015 level21_continuous_Robin 08_28_16.745 log.txt,37,37,736300
5,0,142.123,0,460,1105,2857,4205,1001,8.5,200,0,0,143.3952,1,2,02-Dec-2015 08:30:38,02_12_2015 level21_continuous_Robin 08_28_16.745 log.txt,37,37,736300
6,0,148.8984,1,460,1105,2857,4205,751,5.5,200,0,0,155.0333,1,2,02-Dec-2015 08:30:45,02_12_2015 level21_continuous_Robin 08_28_16.745 log.txt,37,37,736300
7,0,159.8034,0,730,2058,2857,4205,801,-3.5,200,1,1,161.415,1,2,02-Dec-2015 08:30:56,02_12_2015 level21_continuous_Robin 08_28_16.745 log.txt,37,37,736300
8,0,166.1851,0,460,1105,2857,4205,501,2.5,200,0,0,167.8439,1,2,02-Dec-2015 08:31:02,02_12_2015 level21_continuous_Robin 08_28_16.745 log.txt,37,37,736300
9,0,172.9379,0,460,1105,2857,4205,851,14.5,200,0,1,174.2517,0,2,02-Dec-2015 08:31:09,02_12_2015 level21_continuous_Robin 08_28_16.745 log.txt,37,37,736300
10,1,180.2906,0,460,1105,2857,4205,851,14.5,200,0,1,181.8209,0,2,02-Dec-2015 08:31:17,02_12_2015 level21_continuous_Robin 08_28_16.745 log.txt,37,37,736300
11,1,189.9204,0,460,1105,2857,4205,851,14.5,200,0,0,190.9273,1,2,02-Dec-2015 08:31:26,02_12_2015 level21_continuous_Robin 08_28_16.745 log.txt,37,37,736300
12,0,196.8098,0,730,2058,2857,4205,951,11.5,200,1,0,198.4812,0,2,02-Dec-2015 08:31:33,02_12_2015 level21_continuous_Robin 08_28_16.745 log.txt,37,37,736300
13,1,205.1848,0,730,2058,2857,4205,951,11.5,200,1,1,208.0326,1,2,02-Dec-2015 08:31:41,02_12_2015 level21_continuous_Robin 08_28_16.745 log.txt,37,37,736300
14,0,216.1987,0,730,2058,2857,4205,701,5.5,200,1,1,217.8721,1,2,02-Dec-2015 08:31:52,02_12_2015 level21_continuous_Robin 08_28_16.745 log.txt,37,37,736300
15,0,227.38,1,460,1105,2857,4205,901,-0.5,200,0,0,232.1887,1,2,02-Dec-2015 08:32:04,02_12_2015 level21_continuous_Robin 08_28_16.745 log.txt,37,37,736300
16,0,236.8803,0,730,2058,2857,4205,551,-0.5,200,1,1,240.051,1,2,02-Dec-2015 08:32:13,02_12_2015 level21_continuous_Robin 08_28_16.745 log.txt,37,37,736300
17,0,248.6139,1,730,2058,2857,4205,551,2.5,200,1,0,254.9092,0,2,02-Dec-2015 08:32:25,02_12_2015 level21_continuous_Robin 08_28_16.745 log.txt,37,37,736300
18,1,261.9651,0,730,2058,2857,4205,551,2.5,200,1,0,263.7092,0,2,02-Dec-2015 08:32:38,02_12_2015 level21_continuous_Robin 08_28_16.745 log.txt,37,37,736300
19,1,269.6795,0,730,2058,2857,4205,551,2.5,200,1,1,271.7181,1,2,02-Dec-2015 08:32:46,02_12_2015 level21_continuous_Robin 08_28_16.745 log.txt,37,37,736300
20,0,281.8392,0,730,2058,2857,4205,501,8.5,200,1,1,283.8912,1,2,02-Dec-2015 08:32:58,02_12_2015 level21_continuous_Robin 08_28_16.745 log.txt,37,37,736300
21,0,294.0201,0,460,1105,2857,4205,651,-3.5,200,0,0,295.3185,1,2,02-Dec-2015 08:33:10,02_12_2015 level21_continuous_Robin 08_28_16.745 log.txt,37,37,736300
22,0,299.8315,1,730,2058,2857,4205,801,14.5,200,1,0,305.5246,0,2,02-Dec-2015 08:33:16,02_12_2015 level21_continuous_Robin 08_28_16.745 log.txt,37,37,736300
23,1,313.5703,0,730,2058,2857,4205,801,14.5,200,1,0,315.3225,0,2,02-Dec-2015 08:33:30,02_12_2015 level21_continuous_Robin 08_28_16.745 log.txt,37,37,736300
24,1,321.46,0,730,2058,2857,4205,801,14.5,200,1,1,323.1141,1,2,02-Dec-2015 08:33:38,02_12_2015 level21_continuous_Robin 08_28_16.745 log.txt,37,37,736300
25,0,331.984,0,730,2058,2857,4205,751,14.5,200,1,0,334.0773,0,2,02-Dec-2015 08:33:48,02_12_2015 level21_continuous_Robin 08_28_16.745 log.txt,37,37,736300
26,1,339.366,0,730,2058,2857,4205,751,14.5,200,1,0,340.7837,0,2,02-Dec-2015 08:33:56,02_12_2015 level21_continuous_Robin 08_28_16.745 log.txt,37,37,736300
27,1,347.2909,0,730,2058,2857,4205,751,14.5,200,1,1,348.9808,1,2,02-Dec-2015 08:34:04,02_12_2015 level21_continuous_Robin 08_28_16.745 log.txt,37,37,736300
28,0,360.082,0,460,1105,2857,4205,601,-0.5,200,0,0,361.2458,1,2,02-Dec-2015 08:34:16,02_12_2015 level21_continuous_Robin 08_28_16.745 log.txt,37,37,736300
29,0,366.6079,0,460,1105,2857,4205,901,8.5,200,0,0,367.7661,1,2,02-Dec-2015 08:34:23,02_12_2015 level21_continuous_Robin 08_28_16.745 log.txt,37,37,736300
30,0,372.4295,0,730,2058,2857,4205,701,-3.5,200,1,1,374.0564,1,2,02-Dec-2015 08:34:29,02_12_2015 level21_continuous_Robin 08_28_16.745 log.txt,37,37,736300
31,0,385.0627,0,730,2058,2857,4205,851,8.5,200,1,1,386.7381,1,2,02-Dec-2015 08:34:41,02_12_2015 level21_continuous_Robin 08_28_16.745 log.txt,37,37,736300
32,0,395.7701,0,460,1105,2857,4205,1001,2.5,200,0,0,396.852,1,2,02-Dec-2015 08:34:52,02_12_2015 level21_continuous_Robin 08_28_16.745 log.txt,37,37,736300
33,0,401.9037,0,460,1105,2857,4205,501,11.5,200,0,0,403.2927,1,2,02-Dec-2015 08:34:58,02_12_2015 level21_continuous_Robin 08_28_16.745 log.txt,37,37,736300
34,0,407.6375,0,460,1105,2857,4205,851,-3.5,200,0,0,408.5447,1,2,02-Dec-2015 08:35:04,02_12_2015 level21_continuous_Robin 08_28_16.745 log.txt,37,37,736300
35,0,412.8272,0,730,2058,2857,4205,751,5.5,200,1,1,414.4459,1,2,02-Dec-2015 08:35:09,02_12_2015 level21_continuous_Robin 08_28_16.745 log.txt,37,37,736300
36,0,422.7774,1,730,2058,2857,4205,701,2.5,200,1,0,427.0594,0,2,02-Dec-2015 08:35:19,02_12_2015 level21_continuous_Robin 08_28_16.745 log.txt,37,37,736300
37,1,434.7306,0,730,2058,2857,4205,701,2.5,200,1,1,436.6752,1,2,02-Dec-2015 08:35:31,02_12_2015 level21_continuous_Robin 08_28_16.745 log.txt,37,37,736300
38,0,445.9596,0,730,2058,2857,4205,601,-0.5,200,1,0,447.662,0,2,02-Dec-2015 08:35:42,02_12_2015 level21_continuous_Robin 08_28_16.745 log.txt,37,37,736300
39,1,453.5972,1,730,2058,2857,4205,601,-0.5,200,1,1,459.134,1,2,02-Dec-2015 08:35:50,02_12_2015 level21_continuous_Robin 08_28_16.745 log.txt,37,37,736300
40,0,470.071,0,730,2058,2857,4205,1001,11.5,200,1,1,472.3556,1,2,02-Dec-2015 08:36:06,02_12_2015 level21_continuous_Robin 08_28_16.745 log.txt,37,37,736300
41,0,482.8023,0,460,1105,2857,4205,651,5.5,200,0,0,484.8762,1,2,02-Dec-2015 08:36:19,02_12_2015 level21_continuous_Robin 08_28_16.745 log.txt,37,37,736300
42,0,490.5002,0,460,1105,2857,4205,951,14.5,200,0,1,491.7769,0,2,02-Dec-2015 08:36:27,02_12_2015 level21_continuous_Robin 08_28_16.745 log.txt,37,37,736300
43,1,500.3111,0,460,1105,2857,4205,951,14.5,200,0,0,503.9836,1,2,02-Dec-2015 08:36:37,02_12_2015 level21_continuous_Robin 08_28_16.745 log.txt,37,37,736300
44,0,508.4396,0,460,1105,2857,4205,551,14.5,200,0,1,510.2284,0,2,02-Dec-2015 08:36:45,02_12_2015 level21_continuous_Robin 08_28_16.745 log.txt,37,37,736300
45,1,517.471,0,460,1105,2857,4205,551,14.5,200,0,0,518.9214,1,2,02-Dec-2015 08:36:54,02_12_2015 level21_continuous_Robin 08_28_16.745 log.txt,37,37,736300
46,0,523.9976,1,460,1105,2857,4205,901,11.5,200,0,0,528.4076,1,2,02-Dec-2015 08:37:00,02_12_2015 level21_continuous_Robin 08_28_16.745 log.txt,37,37,736300
47,0,533.8576,0,730,2058,2857,4205,751,-3.5,200,1,1,536.9052,1,2,02-Dec-2015 08:37:10,02_12_2015 level21_continuous_Robin 08_28_16.745 log.txt,37,37,736300
48,0,546.2084,0,730,2058,2857,4205,501,2.5,200,1,1,548.4121,1,2,02-Dec-2015 08:37:22,02_12_2015 level21_continuous_Robin 08_28_16.745 log.txt,37,37,736300
49,0,557.7762,0,730,2058,2857,4205,801,5.5,200,1,0,559.002,0,2,02-Dec-2015 08:37:34,02_12_2015 level21_continuous_Robin 08_28_16.745 log.txt,37,37,736300
50,1,564.9316,0,730,2058,2857,4205,801,5.5,200,1,0,567.201,0,2,02-Dec-2015 08:37:41,02_12_2015 level21_continuous_Robin 08_28_16.745 log.txt,37,37,736300
51,1,574.1527,0,730,2058,2857,4205,801,5.5,200,1,1,575.679,1,2,02-Dec-2015 08:37:50,02_12_2015 level21_continuous_Robin 08_28_16.745 log.txt,37,37,736300
52,0,585.3806,1,730,2058,2857,4205,701,-0.5,200,1,0,590.1684,0,2,02-Dec-2015 08:38:02,02_12_2015 level21_continuous_Robin 08_28_16.745 log.txt,37,37,736300
53,1,597.6703,0,730,2058,2857,4205,701,-0.5,200,1,0,599.4961,0,2,02-Dec-2015 08:38:14,02_12_2015 level21_continuous_Robin 08_28_16.745 log.txt,37,37,736300
54,1,604.4618,0,730,2058,2857,4205,701,-0.5,200,1,0,605.5379,0,2,02-Dec-2015 08:38:21,02_12_2015 level21_continuous_Robin 08_28_16.745 log.txt,37,37,736300
55,1,614.0175,0,730,2058,2857,4205,701,-0.5,200,1,1,616.8382,1,2,02-Dec-2015 08:38:30,02_12_2015 level21_continuous_Robin 08_28_16.745 log.txt,37,37,736300
56,0,625.3692,0,730,2058,2857,4205,551,8.5,200,1,1,627.6959,1,2,02-Dec-2015 08:38:42,02_12_2015 level21_continuous_Robin 08_28_16.745 log.txt,37,37,736300
57,0,639.0683,0,460,1105,2857,4205,651,2.5,200,0,0,640.1017,1,2,02-Dec-2015 08:38:55,02_12_2015 level21_continuous_Robin 08_28_16.745 log.txt,37,37,736300
58,0,645.2538,0,730,2058,2857,4205,951,14.5,200,1,1,647.0785,1,2,02-Dec-2015 08:39:01,02_12_2015 level21_continuous_Robin 08_28_16.745 log.txt,37,37,736300
59,0,656.9008,0,460,1105,2857,4205,1001,5.5,200,0,0,658.1133,1,2,02-Dec-2015 08:39:13,02_12_2015 level21_continuous_Robin 08_28_16.745 log.txt,37,37,736300
60,0,663.5733,0,460,1105,2857,4205,851,8.5,200,0,0,664.6415,1,2,02-Dec-2015 08:39:20,02_12_2015 level21_continuous_Robin 08_28_16.745 log.txt,37,37,736300
61,0,670.0936,0,730,2058,2857,4205,601,11.5,200,1,0,671.1074,0,2,02-Dec-2015 08:39:26,02_12_2015 level21_continuous_Robin 08_28_16.745 log.txt,37,37,736300
62,1,680.4191,0,730,2058,2857,4205,601,11.5,200,1,1,681.8298,1,2,02-Dec-2015 08:39:37,02_12_2015 level21_continuous_Robin 08_28_16.745 log.txt,37,37,736300
63,0,693.577,1,460,1105,2857,4205,501,-0.5,200,0,0,697.6003,1,2,02-Dec-2015 08:39:50,02_12_2015 level21_continuous_Robin 08_28_16.745 log.txt,37,37,736300
64,0,702.0715,0,460,1105,2857,4205,701,-3.5,200,0,0,703.3527,1,2,02-Dec-2015 08:39:58,02_12_2015 level21_continuous_Robin 08_28_16.745 log.txt,37,37,736300
65,0,707.6616,0,460,1105,2857,4205,551,11.5,200,0,1,709.3535,0,2,02-Dec-2015 08:40:04,02_12_2015 level21_continuous_Robin 08_28_16.745 log.txt,37,37,736300
66,1,715.7264,0,460,1105,2857,4205,551,11.5,200,0,0,716.9432,1,2,02-Dec-2015 08:40:12,02_12_2015 level21_continuous_Robin 08_28_16.745 log.txt,37,37,736300
67,0,721.7275,0,460,1105,2857,4205,751,2.5,200,0,0,722.8185,1,2,02-Dec-2015 08:40:18,02_12_2015 level21_continuous_Robin 08_28_16.745 log.txt,37,37,736300
68,0,727.4119,0,460,1105,2857,4205,851,14.5,200,0,1,728.7458,0,2,02-Dec-2015 08:40:24,02_12_2015 level21_continuous_Robin 08_28_16.745 log.txt,37,37,736300
69,1,734.5001,0,460,1105,2857,4205,851,14.5,200,0,1,738.4429,0,2,02-Dec-2015 08:40:31,02_12_2015 level21_continuous_Robin 08_28_16.745 log.txt,37,37,736300
70,1,745.5548,0,460,1105,2857,4205,851,14.5,200,0,0,747.0571,1,2,02-Dec-2015 08:40:42,02_12_2015 level21_continuous_Robin 08_28_16.745 log.txt,37,37,736300
71,0,752.9401,0,460,1105,2857,4205,951,5.5,200,0,0,754.1934,1,2,02-Dec-2015 08:40:49,02_12_2015 level21_continuous_Robin 08_28_16.745 log.txt,37,37,736300
72,0,758.362,0,730,2058,2857,4205,601,5.5,200,1,0,760.105,0,2,02-Dec-2015 08:40:55,02_12_2015 level21_continuous_Robin 08_28_16.745 log.txt,37,37,736300
73,1,767.4069,0,730,2058,2857,4205,601,5.5,200,1,1,770.1703,1,2,02-Dec-2015 08:41:04,02_12_2015 level21_continuous_Robin 08_28_16.745 log.txt,37,37,736300
74,0,778.28,0,460,1105,2857,4205,651,-0.5,200,0,0,779.4896,1,2,02-Dec-2015 08:41:15,02_12_2015 level21_continuous_Robin 08_28_16.745 log.txt,37,37,736300
75,0,784.8595,0,460,1105,2857,4205,901,-3.5,200,0,0,785.8078,1,2,02-Dec-2015 08:41:21,02_12_2015 level21_continuous_Robin 08_28_16.745 log.txt,37,37,736300
76,0,789.865,0,730,2058,2857,4205,801,14.5,200,1,0,790.7741,0,2,02-Dec-2015 08:41:26,02_12_2015 level21_continuous_Robin 08_28_16.745 log.txt,37,37,736300
77,1,796.4448,0,730,2058,2857,4205,801,14.5,200,1,1,799.2178,1,2,02-Dec-2015 08:41:33,02_12_2015 level21_continuous_Robin 08_28_16.745 log.txt,37,37,736300
78,0,807.8158,0,730,2058,2857,4205,651,-0.5,200,1,0,809.305,0,2,02-Dec-2015 08:41:44,02_12_2015 level21_continuous_Robin 08_28_16.745 log.txt,37,37,736300
79,1,815.5093,0,730,2058,2857,4205,651,-0.5,200,1,1,818.8968,1,2,02-Dec-2015 08:41:52,02_12_2015 level21_continuous_Robin 08_28_16.745 log.txt,37,37,736300
80,0,829.7668,0,730,2058,2857,4205,501,2.5,200,1,1,831.4805,1,2,02-Dec-2015 08:42:06,02_12_2015 level21_continuous_Robin 08_28_16.745 log.txt,37,37,736300
81,0,840.4497,0,460,1105,2857,4205,801,8.5,200,0,0,841.4546,1,2,02-Dec-2015 08:42:17,02_12_2015 level21_continuous_Robin 08_28_16.745 log.txt,37,37,736300
82,0,846.9126,0,730,2058,2857,4205,701,11.5,200,1,1,848.6504,1,2,02-Dec-2015 08:42:23,02_12_2015 level21_continuous_Robin 08_28_16.745 log.txt,37,37,736300
83,0,857.622,0,730,2058,2857,4205,751,8.5,200,1,1,858.8716,1,2,02-Dec-2015 08:42:34,02_12_2015 level21_continuous_Robin 08_28_16.745 log.txt,37,37,736300
84,0,871.0251,0,730,2058,2857,4205,601,-3.5,200,1,0,872.4252,0,2,02-Dec-2015 08:42:47,02_12_2015 level21_continuous_Robin 08_28_16.745 log.txt,37,37,736300
85,1,878.0759,0,730,2058,2857,4205,601,-3.5,200,1,1,880.356,1,2,02-Dec-2015 08:42:54,02_12_2015 level21_continuous_Robin 08_28_16.745 log.txt,37,37,736300
86,0,890.1832,0,730,2058,2857,4205,951,14.5,200,1,1,891.1983,1,2,02-Dec-2015 08:43:06,02_12_2015 level21_continuous_Robin 08_28_16.745 log.txt,37,37,736300
87,0,901.4647,0,730,2058,2857,4205,901,-3.5,200,1,1,903.3772,1,2,02-Dec-2015 08:43:18,02_12_2015 level21_continuous_Robin 08_28_16.745 log.txt,37,37,736300
88,0,914.3138,0,460,1105,2857,4205,551,-0.5,200,0,0,915.3395,1,2,02-Dec-2015 08:43:31,02_12_2015 level21_continuous_Robin 08_28_16.745 log.txt,37,37,736300
89,0,920.5477,0,730,2058,2857,4205,1001,2.5,200,1,1,921.8582,1,2,02-Dec-2015 08:43:37,02_12_2015 level21_continuous_Robin 08_28_16.745 log.txt,37,37,736300
90,0,930.9514,0,460,1105,2857,4205,551,5.5,200,0,0,932.1665,1,2,02-Dec-2015 08:43:47,02_12_2015 level21_continuous_Robin 08_28_16.745 log.txt,37,37,736300
91,0,937.7024,1,730,2058,2857,4205,501,11.5,200,1,0,940.3222,0,2,02-Dec-2015 08:43:54,02_12_2015 level21_continuous_Robin 08_28_16.745 log.txt,37,37,736300
92,1,944.9474,0,730,2058,2857,4205,501,11.5,200,1,1,946.518,1,2,02-Dec-2015 08:44:01,02_12_2015 level21_continuous_Robin 08_28_16.745 log.txt,37,37,736300
93,0,956.5727,0,460,1105,2857,4205,651,14.5,200,0,1,958.0352,0,2,02-Dec-2015 08:44:13,02_12_2015 level21_continuous_Robin 08_28_16.745 log.txt,37,37,736300
94,1,965.3019,0,460,1105,2857,4205,651,14.5,200,0,0,966.8311,1,2,02-Dec-2015 08:44:22,02_12_2015 level21_continuous_Robin 08_28_16.745 log.txt,37,37,736300
95,0,972.2297,1,730,2058,2857,4205,951,-0.5,200,1,0,977.5171,0,2,02-Dec-2015 08:44:28,02_12_2015 level21_continuous_Robin 08_28_16.745 log.txt,37,37,736300
96,1,985.3791,0,730,2058,2857,4205,951,-0.5,200,1,1,987.0605,1,2,02-Dec-2015 08:44:42,02_12_2015 level21_continuous_Robin 08_28_16.745 log.txt,37,37,736300
97,0,995.8929,0,460,1105,2857,4205,601,8.5,200,0,0,997.2733,1,2,02-Dec-2015 08:44:52,02_12_2015 level21_continuous_Robin 08_28_16.745 log.txt,37,37,736300
98,0,1002.889,0,730,2058,2857,4205,1001,5.5,200,1,0,1003.7637,0,2,02-Dec-2015 08:44:59,02_12_2015 level21_continuous_Robin 08_28_16.745 log.txt,37,37,736300
99,1,1012.0643,0,730,2058,2857,4205,1001,5.5,200,1,1,1013.5441,1,2,02-Dec-2015 08:45:08,02_12_2015 level21_continuous_Robin 08_28_16.745 log.txt,37,37,736300
100,0,1023.2971,0,730,2058,2857,4205,851,8.5,200,1,1,1024.4027,1,2,02-Dec-2015 08:45:20,02_12_2015 level21_continuous_Robin 08_28_16.745 log.txt,37,37,736300
101,0,1035.0261,1,460,1105,2857,4205,751,-3.5,200,0,0,1039.7559,1,2,02-Dec-2015 08:45:31,02_12_2015 level21_continuous_Robin 08_28_16.745 log.txt,37,37,736300
102,0,1045.3723,0,460,1105,2857,4205,701,2.5,200,0,0,1046.7576,1,2,02-Dec-2015 08:45:42,02_12_2015 level21_continuous_Robin 08_28_16.745 log.txt,37,37,736300
103,0,1051.6738,0,460,1105,2857,4205,901,11.5,200,0,0,1053.2486,1,2,02-Dec-2015 08:45:48,02_12_2015 level21_continuous_Robin 08_28_16.745 log.txt,37,37,736300
104,0,1057.3916,0,460,1105,2857,4205,501,-0.5,200,0,0,1058.4583,1,2,02-Dec-2015 08:45:54,02_12_2015 level21_continuous_Robin 08_28_16.745 log.txt,37,37,736300
105,0,1062.8565,1,730,2058,2857,4205,651,11.5,200,1,0,1068.3216,0,2,02-Dec-2015 08:45:59,02_12_2015 level21_continuous_Robin 08_28_16.745 log.txt,37,37,736300
106,1,1074.0688,0,730,2058,2857,4205,651,11.5,200,1,0,1075.6832,0,2,02-Dec-2015 08:46:10,02_12_2015 level21_continuous_Robin 08_28_16.745 log.txt,37,37,736300
107,1,1083.8847,0,730,2058,2857,4205,651,11.5,200,1,0,1086.4603,0,2,02-Dec-2015 08:46:20,02_12_2015 level21_continuous_Robin 08_28_16.745 log.txt,37,37,736300
108,1,1092.9008,0,730,2058,2857,4205,651,11.5,200,1,1,1094.2019,1,2,02-Dec-2015 08:46:29,02_12_2015 level21_continuous_Robin 08_28_16.745 log.txt,37,37,736300
109,0,1102.9499,0,730,2058,2857,4205,601,-0.5,200,1,1,1104.4495,1,2,02-Dec-2015 08:46:39,02_12_2015 level21_continuous_Robin 08_28_16.745 log.txt,37,37,736300
110,0,1112.9482,1,460,1105,2857,4205,901,8.5,200,0,0,1117.7929,1,2,02-Dec-2015 08:46:49,02_12_2015 level21_continuous_Robin 08_28_16.745 log.txt,37,37,736300
111,0,1122.8103,0,460,1105,2857,4205,801,-3.5,200,0,0,1124.0881,1,2,02-Dec-2015 08:46:59,02_12_2015 level21_continuous_Robin 08_28_16.745 log.txt,37,37,736300
112,0,1128.3196,0,460,1105,2857,4205,851,11.5,200,0,0,1130.2036,1,2,02-Dec-2015 08:47:05,02_12_2015 level21_continuous_Robin 08_28_16.745 log.txt,37,37,736300
113,0,1134.9308,0,460,1105,2857,4205,751,2.5,200,0,0,1136.1034,1,2,02-Dec-2015 08:47:11,02_12_2015 level21_continuous_Robin 08_28_16.745 log.txt,37,37,736300
114,0,1140.536,0,730,2058,2857,4205,951,-3.5,200,1,1,1141.8519,1,2,02-Dec-2015 08:47:17,02_12_2015 level21_continuous_Robin 08_28_16.745 log.txt,37,37,736300
115,0,1150.65,0,730,2058,2857,4205,551,2.5,200,1,0,1152.1247,0,2,02-Dec-2015 08:47:27,02_12_2015 level21_continuous_Robin 08_28_16.745 log.txt,37,37,736300
116,1,1170.5703,0,730,2058,2857,4205,551,2.5,200,1,0,1171.7199,0,2,02-Dec-2015 08:47:47,02_12_2015 level21_continuous_Robin 08_28_16.745 log.txt,37,37,736300
1,0,5.4685,0,730,2058,2857,4205,551,5.5,200,1,0,6.8765,0,2,02-Dec-2015 16:45:54,02_12_2015 level21_continuous_Robin_cooling 16_45_49.025 log.txt,37,37,736300
2,1,31.2586,0,730,2058,2857,4205,551,5.5,200,1,1,35.9392,1,2,02-Dec-2015 16:46:20,02_12_2015 level21_continuous_Robin_cooling 16_45_49.025 log.txt,37,37,736300
3,0,46.1856,1,460,1105,2857,4205,501,8.5,200,0,0,47.6213,1,2,02-Dec-2015 16:46:35,02_12_2015 level21_continuous_Robin_cooling 16_45_49.025 log.txt,37,37,736300
4,0,57.4459,0,460,1105,2857,4205,601,2.5,200,0,0,58.4391,1,2,02-Dec-2015 16:46:46,02_12_2015 level21_continuous_Robin_cooling 16_45_49.025 log.txt,37,37,736300
5,0,66.4069,0,460,1105,2857,4205,901,-3.5,200,0,0,67.4899,1,2,02-Dec-2015 16:46:55,02_12_2015 level21_continuous_Robin_cooling 16_45_49.025 log.txt,37,37,736300
6,0,73.9589,0,730,2058,2857,4205,751,8.5,200,1,1,75.1152,1,2,02-Dec-2015 16:47:02,02_12_2015 level21_continuous_Robin_cooling 16_45_49.025 log.txt,36.8032199999809,36.8032199999809,736300
7,0,82.8271,0,730,2058,2857,4205,801,-0.5,200,1,0,83.7994,0,2,02-Dec-2015 16:47:11,02_12_2015 level21_continuous_Robin_cooling 16_45_49.025 log.txt,32.2887400000572,32.2887400000572,736300
8,1,91.7428,0,730,2058,2857,4205,801,-0.5,200,1,0,93.8515,0,2,02-Dec-2015 16:47:20,02_12_2015 level21_continuous_Robin_cooling 16_45_49.025 log.txt,29.2464399999619,29.2464399999619,736300
9,1,108.6401,0,730,2058,2857,4205,801,-0.5,200,1,1,118.4494,1,2,02-Dec-2015 16:47:37,02_12_2015 level21_continuous_Robin_cooling 16_45_49.025 log.txt,28,28,736300
10,0,247.7747,0,460,1105,2857,4205,651,-0.5,200,0,0,248.9778,1,2,02-Dec-2015 16:49:56,02_12_2015 level21_continuous_Robin_cooling 16_45_49.025 log.txt,31.1198800001144,31.1198800001144,736300
11,0,257.2684,0,460,1105,2857,4205,851,5.5,200,0,0,258.4017,1,2,02-Dec-2015 16:50:06,02_12_2015 level21_continuous_Robin_cooling 16_45_49.025 log.txt,33.2586800000191,33.2586800000191,736300
12,0,272.3376,0,730,2058,2857,4205,1001,-3.5,200,1,1,273.366,1,2,02-Dec-2015 16:50:21,02_12_2015 level21_continuous_Robin_cooling 16_45_49.025 log.txt,31.0549600000381,31.0549600000381,736300
13,0,287.0432,0,730,2058,2857,4205,951,2.5,200,1,0,288.2739,0,2,02-Dec-2015 16:50:36,02_12_2015 level21_continuous_Robin_cooling 16_45_49.025 log.txt,26.7863599999428,26.7863599999428,736300
14,1,295.7939,0,730,2058,2857,4205,951,2.5,200,1,1,297.0826,1,2,02-Dec-2015 16:50:44,02_12_2015 level21_continuous_Robin_cooling 16_45_49.025 log.txt,26,26,736300
15,0,310.3887,0,460,1105,2857,4205,751,8.5,200,0,0,312.253,1,2,02-Dec-2015 16:50:59,02_12_2015 level21_continuous_Robin_cooling 16_45_49.025 log.txt,25,25,736300
16,0,328.7144,0,460,1105,2857,4205,1001,-3.5,200,0,0,330.705,1,2,02-Dec-2015 16:51:17,02_12_2015 level21_continuous_Robin_cooling 16_45_49.025 log.txt,24,24,736300
17,0,338.5675,0,730,2058,2857,4205,801,8.5,200,1,1,339.4089,1,2,02-Dec-2015 16:51:27,02_12_2015 level21_continuous_Robin_cooling 16_45_49.025 log.txt,23,23,736300
18,0,350.7536,1,730,2058,2857,4205,601,-0.5,200,1,0,357.7484,0,2,02-Dec-2015 16:51:39,02_12_2015 level21_continuous_Robin_cooling 16_45_49.025 log.txt,22.8442800000191,22.8442800000191,736300
19,1,363.2336,0,730,2058,2857,4205,601,-0.5,200,1,1,364.1641,1,2,02-Dec-2015 16:51:52,02_12_2015 level21_continuous_Robin_cooling 16_45_49.025 log.txt,22,22,736300
20,0,374.9837,1,730,2058,2857,4205,851,2.5,200,1,1,381.692,1,2,02-Dec-2015 16:52:04,02_12_2015 level21_continuous_Robin_cooling 16_45_49.025 log.txt,21,21,736300
21,0,388.3946,1,460,1105,2857,4205,651,-0.5,200,0,1,397.1917,0,2,02-Dec-2015 16:52:17,02_12_2015 level21_continuous_Robin_cooling 16_45_49.025 log.txt,20.7160800000191,20.7160800000191,736300
22,1,405.4412,0,460,1105,2857,4205,651,-0.5,200,0,0,407.4897,1,2,02-Dec-2015 16:52:34,02_12_2015 level21_continuous_Robin_cooling 16_45_49.025 log.txt,19,19,736300
23,0,414.4829,1,730,2058,2857,4205,501,5.5,200,1,1,420.2303,1,2,02-Dec-2015 16:52:43,02_12_2015 level21_continuous_Robin_cooling 16_45_49.025 log.txt,19,19,736300
24,0,426.4163,0,460,1105,2857,4205,551,5.5,200,0,1,430.7181,0,2,02-Dec-2015 16:52:55,02_12_2015 level21_continuous_Robin_cooling 16_45_49.025 log.txt,18,18,736300
25,1,437.3318,1,460,1105,2857,4205,551,5.5,200,0,1,443.217,0,2,02-Dec-2015 16:53:06,02_12_2015 level21_continuous_Robin_cooling 16_45_49.025 log.txt,18,18,736300
26,1,447.9928,0,460,1105,2857,4205,551,5.5,200,0,0,449.8395,1,2,02-Dec-2015 16:53:17,02_12_2015 level21_continuous_Robin_cooling 16_45_49.025 log.txt,18,18,736300
27,0,457.1998,0,730,2058,2857,4205,951,-3.5,200,1,1,458.9292,1,2,02-Dec-2015 16:53:26,02_12_2015 level21_continuous_Robin_cooling 16_45_49.025 log.txt,18,18,736300
28,0,465.3768,0,460,1105,2857,4205,701,2.5,200,0,1,467.6109,0,2,02-Dec-2015 16:53:34,02_12_2015 level21_continuous_Robin_cooling 16_45_49.025 log.txt,17.1196399999619,17.1196399999619,736300
29,1,476.2533,0,460,1105,2857,4205,701,2.5,200,0,1,477.7709,0,2,02-Dec-2015 16:53:45,02_12_2015 level21_continuous_Robin_cooling 16_45_49.025 log.txt,17,17,736300
30,1,484.9056,0,460,1105,2857,4205,701,2.5,200,0,0,486.721,1,2,02-Dec-2015 16:53:53,02_12_2015 level21_continuous_Robin_cooling 16_45_49.025 log.txt,16.0138800000191,16.0138800000191,736300
31,0,493.81,0,460,1105,2857,4205,551,2.5,200,0,1,495.3919,0,2,02-Dec-2015 16:54:02,02_12_2015 level21_continuous_Robin_cooling 16_45_49.025 log.txt,16,16,736300
32,1,502.9719,0,460,1105,2857,4205,551,2.5,200,0,0,504.6149,1,2,02-Dec-2015 16:54:11,02_12_2015 level21_continuous_Robin_cooling 16_45_49.025 log.txt,16,16,736300
33,0,511.8552,0,460,1105,2857,4205,651,8.5,200,0,1,513.568,0,2,02-Dec-2015 16:54:20,02_12_2015 level21_continuous_Robin_cooling 16_45_49.025 log.txt,16,16,736300
34,1,522.4057,0,460,1105,2857,4205,651,8.5,200,0,1,523.9464,0,2,02-Dec-2015 16:54:31,02_12_2015 level21_continuous_Robin_cooling 16_45_49.025 log.txt,15,15,736300
35,1,530.3577,0,460,1105,2857,4205,651,8.5,200,0,0,531.6911,1,2,02-Dec-2015 16:54:39,02_12_2015 level21_continuous_Robin_cooling 16_45_49.025 log.txt,15,15,736300
36,0,541.3938,0,730,2058,2857,4205,951,-0.5,200,1,0,542.5039,0,2,02-Dec-2015 16:54:50,02_12_2015 level21_continuous_Robin_cooling 16_45_49.025 log.txt,15,15,736300
37,1,548.1085,0,730,2058,2857,4205,951,-0.5,200,1,1,548.9807,1,2,02-Dec-2015 16:54:57,02_12_2015 level21_continuous_Robin_cooling 16_45_49.025 log.txt,14,14,736300
38,0,557.0232,0,460,1105,2857,4205,751,5.5,200,0,1,558.6741,0,2,02-Dec-2015 16:55:06,02_12_2015 level21_continuous_Robin_cooling 16_45_49.025 log.txt,14,14,736300
39,1,571.5568,0,460,1105,2857,4205,751,5.5,200,0,1,572.8762,0,2,02-Dec-2015 16:55:20,02_12_2015 level21_continuous_Robin_cooling 16_45_49.025 log.txt,14,14,736300
40,1,580.2266,0,460,1105,2857,4205,751,5.5,200,0,0,581.7879,1,2,02-Dec-2015 16:55:29,02_12_2015 level21_continuous_Robin_cooling 16_45_49.025 log.txt,14,14,736300
41,0,589.9809,1,730,2058,2857,4205,601,-3.5,200,1,0,593.3147,0,2,02-Dec-2015 16:55:39,02_12_2015 level21_continuous_Robin_cooling 16_45_49.025 log.txt,14,14,736300
42,1,598.645,0,730,2058,2857,4205,601,-3.5,200,1,1,600.8988,1,2,02-Dec-2015 16:55:47,02_12_2015 level21_continuous_Robin_cooling 16_45_49.025 log.txt,14,14,736300
43,0,607.4164,0,730,2058,2857,4205,901,5.5,200,1,1,609.185,1,2,02-Dec-2015 16:55:56,02_12_2015 level21_continuous_Robin_cooling 16_45_49.025 log.txt,14,14,736300
44,0,621.6634,0,730,2058,2857,4205,1001,2.5,200,1,1,623.2206,1,2,02-Dec-2015 16:56:10,02_12_2015 level21_continuous_Robin_cooling 16_45_49.025 log.txt,14,14,736300
45,0,636.9009,0,730,2058,2857,4205,501,8.5,200,1,0,638.8489,0,2,02-Dec-2015 16:56:25,02_12_2015 level21_continuous_Robin_cooling 16_45_49.025 log.txt,14,14,736300
46,1,646.0551,0,730,2058,2857,4205,501,8.5,200,1,1,648.0655,1,2,02-Dec-2015 16:56:35,02_12_2015 level21_continuous_Robin_cooling 16_45_49.025 log.txt,13,13,736300
47,0,660.9413,0,460,1105,2857,4205,851,-3.5,200,0,0,662.0765,1,2,02-Dec-2015 16:56:49,02_12_2015 level21_continuous_Robin_cooling 16_45_49.025 log.txt,13,13,736300
48,0,667.7351,0,460,1105,2857,4205,701,-0.5,200,0,0,669.337,1,2,02-Dec-2015 16:56:56,02_12_2015 level21_continuous_Robin_cooling 16_45_49.025 log.txt,13,13,736300
49,0,675.0441,0,460,1105,2857,4205,651,2.5,200,0,1,677.079,0,2,02-Dec-2015 16:57:04,02_12_2015 level21_continuous_Robin_cooling 16_45_49.025 log.txt,13,13,736300
50,1,683.8084,0,460,1105,2857,4205,651,2.5,200,0,0,685.5453,1,2,02-Dec-2015 16:57:12,02_12_2015 level21_continuous_Robin_cooling 16_45_49.025 log.txt,13,13,736300
51,0,692.1241,0,460,1105,2857,4205,851,8.5,200,0,1,693.7184,0,2,02-Dec-2015 16:57:21,02_12_2015 level21_continuous_Robin_cooling 16_45_49.025 log.txt,13,13,736300
52,1,701.2076,0,460,1105,2857,4205,851,8.5,200,0,0,702.3709,1,2,02-Dec-2015 16:57:30,02_12_2015 level21_continuous_Robin_cooling 16_45_49.025 log.txt,13,13,736300
53,0,708.5092,0,460,1105,2857,4205,601,-3.5,200,0,0,709.7777,1,2,02-Dec-2015 16:57:37,02_12_2015 level21_continuous_Robin_cooling 16_45_49.025 log.txt,13,13,736300
54,0,718.0195,0,730,2058,2857,4205,551,5.5,200,1,1,720.3549,1,2,02-Dec-2015 16:57:47,02_12_2015 level21_continuous_Robin_cooling 16_45_49.025 log.txt,13,13,736300
55,0,733.2536,0,730,2058,2857,4205,1001,-3.5,200,1,1,735.18,1,2,02-Dec-2015 16:58:02,02_12_2015 level21_continuous_Robin_cooling 16_45_49.025 log.txt,13,13,736300
56,0,747.6302,0,460,1105,2857,4205,951,-0.5,200,0,0,748.8522,1,2,02-Dec-2015 16:58:16,02_12_2015 level21_continuous_Robin_cooling 16_45_49.025 log.txt,13,13,736300
57,0,755.1628,0,730,2058,2857,4205,751,8.5,200,1,1,757.3837,1,2,02-Dec-2015 16:58:24,02_12_2015 level21_continuous_Robin_cooling 16_45_49.025 log.txt,13,13,736300
58,0,768.648,0,730,2058,2857,4205,501,-0.5,200,1,0,770.4965,0,2,02-Dec-2015 16:58:37,02_12_2015 level21_continuous_Robin_cooling 16_45_49.025 log.txt,12.6654,12.6654,736300
59,1,781.1303,0,730,2058,2857,4205,501,-0.5,200,1,0,783.7325,0,2,02-Dec-2015 16:58:50,02_12_2015 level21_continuous_Robin_cooling 16_45_49.025 log.txt,12,12,736300
60,1,788.7797,0,730,2058,2857,4205,501,-0.5,200,1,0,790.4251,0,2,02-Dec-2015 16:58:57,02_12_2015 level21_continuous_Robin_cooling 16_45_49.025 log.txt,12,12,736300
61,1,798.6935,0,730,2058,2857,4205,501,-0.5,200,1,1,802.1918,1,2,02-Dec-2015 16:59:07,02_12_2015 level21_continuous_Robin_cooling 16_45_49.025 log.txt,12,12,736300
62,0,814.7586,0,730,2058,2857,4205,801,2.5,200,1,1,817.0203,1,2,02-Dec-2015 16:59:23,02_12_2015 level21_continuous_Robin_cooling 16_45_49.025 log.txt,13,13,736300
63,0,829.9305,0,460,1105,2857,4205,701,5.5,200,0,0,831.4135,1,2,02-Dec-2015 16:59:38,02_12_2015 level21_continuous_Robin_cooling 16_45_49.025 log.txt,12.4089,12.4089,736300
64,0,838.0026,0,460,1105,2857,4205,651,2.5,200,0,0,839.491,1,2,02-Dec-2015 16:59:47,02_12_2015 level21_continuous_Robin_cooling 16_45_49.025 log.txt,12,12,736300
65,0,845.2058,0,730,2058,2857,4205,601,-3.5,200,1,1,846.9538,1,2,02-Dec-2015 16:59:54,02_12_2015 level21_continuous_Robin_cooling 16_45_49.025 log.txt,12,12,736300
66,0,859.4915,0,460,1105,2857,4205,951,-3.5,200,0,0,860.629,1,2,02-Dec-2015 17:00:08,02_12_2015 level21_continuous_Robin_cooling 16_45_49.025 log.txt,11.6967,11.6967,736300
67,0,871.5579,0,730,2058,2857,4205,851,8.5,200,1,0,873.2461,0,2,02-Dec-2015 17:00:20,02_12_2015 level21_continuous_Robin_cooling 16_45_49.025 log.txt,11,11,736300
68,1,878.5327,1,730,2058,2857,4205,851,8.5,200,1,1,883.3826,1,2,02-Dec-2015 17:00:27,02_12_2015 level21_continuous_Robin_cooling 16_45_49.025 log.txt,11,11,736300
69,0,896.2101,0,730,2058,2857,4205,501,5.5,200,1,0,901.5536,0,2,02-Dec-2015 17:00:45,02_12_2015 level21_continuous_Robin_cooling 16_45_49.025 log.txt,11,11,736300
70,1,906.9231,0,730,2058,2857,4205,501,5.5,200,1,1,909.1863,1,2,02-Dec-2015 17:00:55,02_12_2015 level21_continuous_Robin_cooling 16_45_49.025 log.txt,11,11,736300
71,0,918.1381,0,460,1105,2857,4205,801,5.5,200,0,1,919.5853,0,2,02-Dec-2015 17:01:07,02_12_2015 level21_continuous_Robin_cooling 16_45_49.025 log.txt,11,11,736300
72,1,928.094,0,460,1105,2857,4205,801,5.5,200,0,0,930.316,1,2,02-Dec-2015 17:01:17,02_12_2015 level21_continuous_Robin_cooling 16_45_49.025 log.txt,11,11,736300
73,0,937.5161,0,730,2058,2857,4205,701,2.5,200,1,1,939.3381,1,2,02-Dec-2015 17:01:26,02_12_2015 level21_continuous_Robin_cooling 16_45_49.025 log.txt,11,11,736300
74,0,947.1693,0,730,2058,2857,4205,751,-0.5,200,1,1,949.1982,1,2,02-Dec-2015 17:01:36,02_12_2015 level21_continuous_Robin_cooling 16_45_49.025 log.txt,11,11,736300
75,0,958.614,0,460,1105,2857,4205,551,8.5,200,0,1,960.5269,0,2,02-Dec-2015 17:01:47,02_12_2015 level21_continuous_Robin_cooling 16_45_49.025 log.txt,11,11,736300
76,1,970.6766,0,460,1105,2857,4205,551,8.5,200,0,0,972.3075,1,2,02-Dec-2015 17:01:59,02_12_2015 level21_continuous_Robin_cooling 16_45_49.025 log.txt,11,11,736300
77,0,979.169,0,460,1105,2857,4205,901,-0.5,200,0,0,980.5633,1,2,02-Dec-2015 17:02:08,02_12_2015 level21_continuous_Robin_cooling 16_45_49.025 log.txt,11,11,736300
78,0,986.6784,0,730,2058,2857,4205,951,-0.5,200,1,1,988.1838,1,2,02-Dec-2015 17:02:15,02_12_2015 level21_continuous_Robin_cooling 16_45_49.025 log.txt,11,11,736300
79,0,998.0816,0,460,1105,2857,4205,851,8.5,200,0,1,1000.0385,0,2,02-Dec-2015 17:02:27,02_12_2015 level21_continuous_Robin_cooling 16_45_49.025 log.txt,11,11,736300
80,1,1016.5657,0,460,1105,2857,4205,851,8.5,200,0,0,1019.7158,1,2,02-Dec-2015 17:02:45,02_12_2015 level21_continuous_Robin_cooling 16_45_49.025 log.txt,11,11,736300
81,0,1024.5878,0,730,2058,2857,4205,501,8.5,200,1,1,1026.5918,1,2,02-Dec-2015 17:02:53,02_12_2015 level21_continuous_Robin_cooling 16_45_49.025 log.txt,11,11,736300
82,0,1043.4402,0,460,1105,2857,4205,601,-3.5,200,0,0,1045.0892,1,2,02-Dec-2015 17:03:12,02_12_2015 level21_continuous_Robin_cooling 16_45_49.025 log.txt,11,11,736300
83,0,1050.2337,0,730,2058,2857,4205,751,5.5,200,1,1,1051.7674,1,2,02-Dec-2015 17:03:19,02_12_2015 level21_continuous_Robin_cooling 16_45_49.025 log.txt,11,11,736300
84,0,1060.1325,0,730,2058,2857,4205,551,-3.5,200,1,1,1062.323,1,2,02-Dec-2015 17:03:29,02_12_2015 level21_continuous_Robin_cooling 16_45_49.025 log.txt,11,11,736300
85,0,1073.4262,0,460,1105,2857,4205,901,-0.5,200,0,0,1074.1396,1,2,02-Dec-2015 17:03:42,02_12_2015 level21_continuous_Robin_cooling 16_45_49.025 log.txt,11,11,736300
86,0,1081.158,0,460,1105,2857,4205,801,5.5,200,0,1,1083.148,0,2,02-Dec-2015 17:03:50,02_12_2015 level21_continuous_Robin_cooling 16_45_49.025 log.txt,10,10,736300
87,1,1088.1407,0,460,1105,2857,4205,801,5.5,200,0,1,1088.9191,0,2,02-Dec-2015 17:03:57,02_12_2015 level21_continuous_Robin_cooling 16_45_49.025 log.txt,10,10,736300
88,1,1102.7119,1,460,1105,2857,4205,801,5.5,200,0,0,1108.8858,1,2,02-Dec-2015 17:04:11,02_12_2015 level21_continuous_Robin_cooling 16_45_49.025 log.txt,10,10,736300
89,0,1113.7063,0,730,2058,2857,4205,701,2.5,200,1,1,1115.4892,1,2,02-Dec-2015 17:04:22,02_12_2015 level21_continuous_Robin_cooling 16_45_49.025 log.txt,10,10,736300
90,0,1121.5917,0,460,1105,2857,4205,1001,2.5,200,0,1,1124.0568,0,2,02-Dec-2015 17:04:30,02_12_2015 level21_continuous_Robin_cooling 16_45_49.025 log.txt,10,10,736300
91,1,1133.4542,0,460,1105,2857,4205,1001,2.5,200,0,0,1134.9253,1,2,02-Dec-2015 17:04:42,02_12_2015 level21_continuous_Robin_cooling 16_45_49.025 log.txt,10,10,736300
92,0,1139.863,0,460,1105,2857,4205,501,-3.5,200,0,0,1141.5112,1,2,02-Dec-2015 17:04:48,02_12_2015 level21_continuous_Robin_cooling 16_45_49.025 log.txt,10,10,736300
93,0,1146.4616,0,460,1105,2857,4205,751,2.5,200,0,1,1148.6621,0,2,02-Dec-2015 17:04:55,02_12_2015 level21_continuous_Robin_cooling 16_45_49.025 log.txt,10,10,736300
94,1,1173.5427,0,460,1105,2857,4205,751,2.5,200,0,1,1179.8277,0,2,02-Dec-2015 17:05:22,02_12_2015 level21_continuous_Robin_cooling 16_45_49.025 log.txt,10,10,736300
95,1,1186.2258,0,460,1105,2857,4205,751,2.5,200,0,1,1190.9315,0,2,02-Dec-2015 17:05:35,02_12_2015 level21_continuous_Robin_cooling 16_45_49.025 log.txt,10,10,736300
96,1,1195.9693,1,460,1105,2857,4205,751,2.5,200,0,0,1202.29,1,2,02-Dec-2015 17:05:44,02_12_2015 level21_continuous_Robin_cooling 16_45_49.025 log.txt,10,10,736300
97,0,1206.8563,1,730,2058,2857,4205,651,-3.5,200,1,1,1215.2438,1,2,02-Dec-2015 17:05:55,02_12_2015 level21_continuous_Robin_cooling 16_45_49.025 log.txt,10,10,736300
98,0,1222.605,1,460,1105,2857,4205,551,5.5,200,0,1,1228.9428,0,2,02-Dec-2015 17:06:11,02_12_2015 level21_continuous_Robin_cooling 16_45_49.025 log.txt,10,10,736300
99,1,1236.6978,0,460,1105,2857,4205,551,5.5,200,0,1,1243.7609,0,2,02-Dec-2015 17:06:25,02_12_2015 level21_continuous_Robin_cooling 16_45_49.025 log.txt,10,10,736300
100,1,1248.4216,0,460,1105,2857,4205,551,5.5,200,0,0,1250.5461,1,2,02-Dec-2015 17:06:37,02_12_2015 level21_continuous_Robin_cooling 16_45_49.025 log.txt,10,10,736300
101,0,1255.8134,0,460,1105,2857,4205,1001,-0.5,200,0,0,1257.3,1,2,02-Dec-2015 17:06:44,02_12_2015 level21_continuous_Robin_cooling 16_45_49.025 log.txt,10,10,736300
102,0,1262.3804,0,730,2058,2857,4205,951,2.5,200,1,1,1264.0902,1,2,02-Dec-2015 17:06:51,02_12_2015 level21_continuous_Robin_cooling 16_45_49.025 log.txt,10,10,736300
103,0,1270.6324,0,730,2058,2857,4205,601,5.5,200,1,1,1272.545,1,2,02-Dec-2015 17:06:59,02_12_2015 level21_continuous_Robin_cooling 16_45_49.025 log.txt,10,10,736300
104,0,1279.5861,0,730,2058,2857,4205,851,-0.5,200,1,1,1281.4162,1,2,02-Dec-2015 17:07:08,02_12_2015 level21_continuous_Robin_cooling 16_45_49.025 log.txt,10,10,736300
105,0,1288.4832,0,730,2058,2857,4205,801,8.5,200,1,1,1290.6366,1,2,02-Dec-2015 17:07:17,02_12_2015 level21_continuous_Robin_cooling 16_45_49.025 log.txt,9.29835999994278,9.29835999994278,736300
106,0,1298.3729,0,460,1105,2857,4205,701,8.5,200,0,1,1300.1846,0,2,02-Dec-2015 17:07:27,02_12_2015 level21_continuous_Robin_cooling 16_45_49.025 log.txt,9,9,736300
107,1,1314.7754,0,460,1105,2857,4205,701,8.5,200,0,0,1316.5782,1,2,02-Dec-2015 17:07:43,02_12_2015 level21_continuous_Robin_cooling 16_45_49.025 log.txt,9,9,736300
108,0,1322.9369,0,730,2058,2857,4205,801,5.5,200,1,1,1324.3094,1,2,02-Dec-2015 17:07:51,02_12_2015 level21_continuous_Robin_cooling 16_45_49.025 log.txt,9,9,736300
109,0,1331.5632,0,460,1105,2857,4205,1001,8.5,200,0,1,1333.3045,0,2,02-Dec-2015 17:08:00,02_12_2015 level21_continuous_Robin_cooling 16_45_49.025 log.txt,9,9,736300
110,1,1347.733,0,460,1105,2857,4205,1001,8.5,200,0,0,1350.2096,1,2,02-Dec-2015 17:08:16,02_12_2015 level21_continuous_Robin_cooling 16_45_49.025 log.txt,9,9,736300
111,0,1354.9905,0,460,1105,2857,4205,601,5.5,200,0,1,1357.1514,0,2,02-Dec-2015 17:08:24,02_12_2015 level21_continuous_Robin_cooling 16_45_49.025 log.txt,9,9,736300
112,1,1366.6433,0,460,1105,2857,4205,601,5.5,200,0,0,1371.1711,1,2,02-Dec-2015 17:08:35,02_12_2015 level21_continuous_Robin_cooling 16_45_49.025 log.txt,9,9,736300
113,0,1375.8079,0,460,1105,2857,4205,551,-0.5,200,0,0,1377.1889,1,2,02-Dec-2015 17:08:44,02_12_2015 level21_continuous_Robin_cooling 16_45_49.025 log.txt,9,9,736300
114,0,1382.5756,0,460,1105,2857,4205,701,-3.5,200,0,0,1383.9658,1,2,02-Dec-2015 17:08:51,02_12_2015 level21_continuous_Robin_cooling 16_45_49.025 log.txt,9,9,736300
115,0,1389.1376,0,460,1105,2857,4205,651,2.5,200,0,1,1391.008,0,2,02-Dec-2015 17:08:58,02_12_2015 level21_continuous_Robin_cooling 16_45_49.025 log.txt,9,9,736300
116,1,1414.3075,0,460,1105,2857,4205,651,2.5,200,0,0,1415.9595,1,2,02-Dec-2015 17:09:23,02_12_2015 level21_continuous_Robin_cooling 16_45_49.025 log.txt,9.0665,9.0665,736300
117,0,1420.3031,0,730,2058,2857,4205,501,2.5,200,1,1,1422.4833,1,2,02-Dec-2015 17:09:29,02_12_2015 level21_continuous_Robin_cooling 16_45_49.025 log.txt,10,10,736300
118,0,1429.823,0,730,2058,2857,4205,951,-3.5,200,1,1,1431.5582,1,2,02-Dec-2015 17:09:38,02_12_2015 level21_continuous_Robin_cooling 16_45_49.025 log.txt,10,10,736300
119,0,1438.9286,0,730,2058,2857,4205,901,8.5,200,1,1,1440.3651,1,2,02-Dec-2015 17:09:47,02_12_2015 level21_continuous_Robin_cooling 16_45_49.025 log.txt,10,10,736300
120,0,1446.6792,0,730,2058,2857,4205,751,-0.5,200,1,1,1448.3834,1,2,02-Dec-2015 17:09:55,02_12_2015 level21_continuous_Robin_cooling 16_45_49.025 log.txt,10,10,736300
121,0,1456.3131,0,730,2058,2857,4205,801,5.5,200,1,1,1457.8062,1,2,02-Dec-2015 17:10:05,02_12_2015 level21_continuous_Robin_cooling 16_45_49.025 log.txt,10,10,736300
122,0,1464.6832,0,460,1105,2857,4205,501,8.5,200,0,1,1466.7632,0,2,02-Dec-2015 17:10:13,02_12_2015 level21_continuous_Robin_cooling 16_45_49.025 log.txt,10,10,736300
123,1,1506.6585,0,460,1105,2857,4205,501,8.5,200,0,1,1509.0523,0,2,02-Dec-2015 17:10:55,02_12_2015 level21_continuous_Robin_cooling 16_45_49.025 log.txt,10,10,736300
124,1,1517.5652,0,460,1105,2857,4205,501,8.5,200,0,1,1518.7367,0,2,02-Dec-2015 17:11:06,02_12_2015 level21_continuous_Robin_cooling 16_45_49.025 log.txt,10.5180400000572,10.5180400000572,736300
1,0,155.8585,0,730,2058,2857,4205,551,-9.5,200,1,0,155.8746,0,2,03-Mar-2016 08:45:36,03_03_2016 level21_continuous_Robin 08_43_00.247 log.txt,37,37,736392
2,1,162.14,0,730,2058,2857,4205,551,-9.5,200,1,0,162.173,0,2,03-Mar-2016 08:45:42,03_03_2016 level21_continuous_Robin 08_43_00.247 log.txt,37,37,736392
3,1,170.2093,0,730,2058,2857,4205,551,-9.5,200,1,0,170.3149,0,2,03-Mar-2016 08:45:50,03_03_2016 level21_continuous_Robin 08_43_00.247 log.txt,37,37,736392
4,1,180.3452,0,730,2058,2857,4205,551,-9.5,200,1,0,180.4539,0,2,03-Mar-2016 08:46:00,03_03_2016 level21_continuous_Robin 08_43_00.247 log.txt,37,37,736392
5,1,187.1588,0,730,2058,2857,4205,551,-9.5,200,1,0,187.2132,0,2,03-Mar-2016 08:46:07,03_03_2016 level21_continuous_Robin 08_43_00.247 log.txt,37,37,736392
6,1,195.7171,0,730,2058,2857,4205,551,-9.5,200,1,0,195.8159,0,2,03-Mar-2016 08:46:15,03_03_2016 level21_continuous_Robin 08_43_00.247 log.txt,37,37,736392
7,1,200.5282,0,730,2058,2857,4205,551,-9.5,200,1,0,201.761,0,2,03-Mar-2016 08:46:20,03_03_2016 level21_continuous_Robin 08_43_00.247 log.txt,37,37,736392
8,1,206.56,0,730,2058,2857,4205,551,-9.5,200,1,1,212.5657,1,2,03-Mar-2016 08:46:26,03_03_2016 level21_continuous_Robin 08_43_00.247 log.txt,37,37,736392
9,0,216.752,0,730,2058,2857,4205,701,-6.5,200,1,1,218.0349,1,2,03-Mar-2016 08:46:36,03_03_2016 level21_continuous_Robin 08_43_00.247 log.txt,37,37,736392
10,0,223.6896,0,460,1105,2857,4205,901,-0.5,200,0,0,225.0371,1,2,03-Mar-2016 08:46:43,03_03_2016 level21_continuous_Robin 08_43_00.247 log.txt,37,37,736392
11,0,227.7817,0,730,2058,2857,4205,801,-0.5,200,1,1,229.2038,1,2,03-Mar-2016 08:46:48,03_03_2016 level21_continuous_Robin 08_43_00.247 log.txt,37,37,736392
12,0,232.5024,0,460,1105,2857,4205,1001,14.5,200,0,1,233.5808,0,2,03-Mar-2016 08:46:52,03_03_2016 level21_continuous_Robin 08_43_00.247 log.txt,37,37,736392
13,1,243.9808,0,460,1105,2857,4205,1001,14.5,200,0,0,244.9456,1,2,03-Mar-2016 08:47:04,03_03_2016 level21_continuous_Robin 08_43_00.247 log.txt,37,37,736392
14,0,251.9012,0,460,1105,2857,4205,651,-6.5,200,0,0,252.8842,1,2,03-Mar-2016 08:47:12,03_03_2016 level21_continuous_Robin 08_43_00.247 log.txt,37,37,736392
15,0,258.1722,0,460,1105,2857,4205,501,-9.5,200,0,0,259.1017,1,2,03-Mar-2016 08:47:18,03_03_2016 level21_continuous_Robin 08_43_00.247 log.txt,37,37,736392
16,0,264.7621,0,730,2058,2857,4205,951,14.5,200,1,1,265.7957,1,2,03-Mar-2016 08:47:25,03_03_2016 level21_continuous_Robin 08_43_00.247 log.txt,37,37,736392
17,0,282.8578,0,460,1105,2857,4205,601,-0.5,200,0,0,283.6487,1,2,03-Mar-2016 08:47:43,03_03_2016 level21_continuous_Robin 08_43_00.247 log.txt,37,37,736392
18,0,292.8321,0,730,2058,2857,4205,751,14.5,200,1,1,293.4765,1,2,03-Mar-2016 08:47:53,03_03_2016 level21_continuous_Robin 08_43_00.247 log.txt,37,37,736392
19,0,311.5792,0,730,2058,2857,4205,1001,-0.5,200,1,1,312.3084,1,2,03-Mar-2016 08:48:11,03_03_2016 level21_continuous_Robin 08_43_00.247 log.txt,37,37,736392
20,0,321.2895,0,460,1105,2857,4205,501,14.5,200,0,0,322.3197,1,2,03-Mar-2016 08:48:21,03_03_2016 level21_continuous_Robin 08_43_00.247 log.txt,37,37,736392
21,0,327.1668,0,460,1105,2857,4205,951,-9.5,200,0,0,327.7808,1,2,03-Mar-2016 08:48:27,03_03_2016 level21_continuous_Robin 08_43_00.247 log.txt,37,37,736392
22,0,332.2454,0,730,2058,2857,4205,801,-9.5,200,1,0,333.0105,0,2,03-Mar-2016 08:48:32,03_03_2016 level21_continuous_Robin 08_43_00.247 log.txt,37,37,736392
23,1,339.0476,0,730,2058,2857,4205,801,-9.5,200,1,1,340.327,1,2,03-Mar-2016 08:48:39,03_03_2016 level21_continuous_Robin 08_43_00.247 log.txt,37,37,736392
24,0,346.5014,0,730,2058,2857,4205,551,-6.5,200,1,0,348.0044,0,2,03-Mar-2016 08:48:46,03_03_2016 level21_continuous_Robin 08_43_00.247 log.txt,37,37,736392
25,1,355.2574,0,730,2058,2857,4205,551,-6.5,200,1,1,356.498,1,2,03-Mar-2016 08:48:55,03_03_2016 level21_continuous_Robin 08_43_00.247 log.txt,37,37,736392
26,0,363.3153,0,460,1105,2857,4205,651,-6.5,200,0,0,363.9566,1,2,03-Mar-2016 08:49:03,03_03_2016 level21_continuous_Robin 08_43_00.247 log.txt,37,37,736392
27,0,368.6523,0,730,2058,2857,4205,601,14.5,200,1,1,369.7115,1,2,03-Mar-2016 08:49:08,03_03_2016 level21_continuous_Robin 08_43_00.247 log.txt,37,37,736392
28,0,378.0453,0,730,2058,2857,4205,851,-6.5,200,1,0,378.7095,0,2,03-Mar-2016 08:49:18,03_03_2016 level21_continuous_Robin 08_43_00.247 log.txt,37,37,736392
29,1,385.5162,0,730,2058,2857,4205,851,-6.5,200,1,1,386.5531,1,2,03-Mar-2016 08:49:25,03_03_2016 level21_continuous_Robin 08_43_00.247 log.txt,37,37,736392
30,0,393.815,0,460,1105,2857,4205,751,-0.5,200,0,0,394.4287,1,2,03-Mar-2016 08:49:34,03_03_2016 level21_continuous_Robin 08_43_00.247 log.txt,37,37,736392
31,0,399.5619,0,460,1105,2857,4205,901,-6.5,200,0,0,400.2089,1,2,03-Mar-2016 08:49:39,03_03_2016 level21_continuous_Robin 08_43_00.247 log.txt,37,37,736392
32,0,404.8683,0,730,2058,2857,4205,1001,-9.5,200,1,1,405.6925,1,2,03-Mar-2016 08:49:45,03_03_2016 level21_continuous_Robin 08_43_00.247 log.txt,37,37,736392
33,0,412.4831,1,460,1105,2857,4205,701,14.5,200,0,0,413.6888,1,2,03-Mar-2016 08:49:52,03_03_2016 level21_continuous_Robin 08_43_00.247 log.txt,37,37,736392
34,0,418.3799,0,730,2058,2857,4205,801,-0.5,200,1,1,419.1218,1,2,03-Mar-2016 08:49:58,03_03_2016 level21_continuous_Robin 08_43_00.247 log.txt,37,37,736392
35,0,425.0451,0,460,1105,2857,4205,901,-9.5,200,0,0,425.8627,1,2,03-Mar-2016 08:50:05,03_03_2016 level21_continuous_Robin 08_43_00.247 log.txt,37,37,736392
36,0,429.5786,0,730,2058,2857,4205,601,14.5,200,1,1,430.743,1,2,03-Mar-2016 08:50:09,03_03_2016 level21_continuous_Robin 08_43_00.247 log.txt,37,37,736392
37,0,435.408,0,730,2058,2857,4205,651,-0.5,200,1,1,436.8317,1,2,03-Mar-2016 08:50:15,03_03_2016 level21_continuous_Robin 08_43_00.247 log.txt,37,37,736392
38,0,442.4287,0,730,2058,2857,4205,751,-9.5,200,1,0,443.3659,0,2,03-Mar-2016 08:50:22,03_03_2016 level21_continuous_Robin 08_43_00.247 log.txt,37,37,736392
39,1,448.1791,0,730,2058,2857,4205,751,-9.5,200,1,0,448.7592,0,2,03-Mar-2016 08:50:28,03_03_2016 level21_continuous_Robin 08_43_00.247 log.txt,37,37,736392
40,1,453.5618,0,730,2058,2857,4205,751,-9.5,200,1,1,454.7665,1,2,03-Mar-2016 08:50:33,03_03_2016 level21_continuous_Robin 08_43_00.247 log.txt,37,37,736392
41,0,459.931,0,460,1105,2857,4205,551,-6.5,200,0,0,461.2016,1,2,03-Mar-2016 08:50:40,03_03_2016 level21_continuous_Robin 08_43_00.247 log.txt,37,37,736392
42,0,464.8669,0,730,2058,2857,4205,501,-6.5,200,1,1,465.8728,1,2,03-Mar-2016 08:50:45,03_03_2016 level21_continuous_Robin 08_43_00.247 log.txt,37,37,736392
43,0,470.7272,0,460,1105,2857,4205,851,-0.5,200,0,1,472.0028,0,2,03-Mar-2016 08:50:50,03_03_2016 level21_continuous_Robin 08_43_00.247 log.txt,37,37,736392
44,1,479.659,0,460,1105,2857,4205,851,-0.5,200,0,0,480.3051,1,2,03-Mar-2016 08:50:59,03_03_2016 level21_continuous_Robin 08_43_00.247 log.txt,37,37,736392
45,0,483.8643,0,460,1105,2857,4205,701,-9.5,200,0,0,484.9363,1,2,03-Mar-2016 08:51:04,03_03_2016 level21_continuous_Robin 08_43_00.247 log.txt,37,37,736392
46,0,489.7172,0,460,1105,2857,4205,901,14.5,200,0,0,490.4034,1,2,03-Mar-2016 08:51:09,03_03_2016 level21_continuous_Robin 08_43_00.247 log.txt,37,37,736392
47,0,494.7511,0,460,1105,2857,4205,751,-6.5,200,0,0,495.6681,1,2,03-Mar-2016 08:51:14,03_03_2016 level21_continuous_Robin 08_43_00.247 log.txt,37,37,736392
48,0,500.1614,1,730,2058,2857,4205,1001,-9.5,200,1,1,501.6927,1,2,03-Mar-2016 08:51:20,03_03_2016 level21_continuous_Robin 08_43_00.247 log.txt,37,37,736392
49,0,506.3057,0,730,2058,2857,4205,551,14.5,200,1,1,508.7127,1,2,03-Mar-2016 08:51:26,03_03_2016 level21_continuous_Robin 08_43_00.247 log.txt,37,37,736392
50,0,513.7259,0,460,1105,2857,4205,601,-9.5,200,0,0,514.644,1,2,03-Mar-2016 08:51:33,03_03_2016 level21_continuous_Robin 08_43_00.247 log.txt,37,37,736392
51,0,519.0801,0,460,1105,2857,4205,951,14.5,200,0,1,520.0438,0,2,03-Mar-2016 08:51:39,03_03_2016 level21_continuous_Robin 08_43_00.247 log.txt,37,37,736392
52,1,525.962,0,460,1105,2857,4205,951,14.5,200,0,1,533.7219,0,2,03-Mar-2016 08:51:46,03_03_2016 level21_continuous_Robin 08_43_00.247 log.txt,37,37,736392
53,1,543.1977,0,460,1105,2857,4205,951,14.5,200,0,1,549.0836,0,2,03-Mar-2016 08:52:03,03_03_2016 level21_continuous_Robin 08_43_00.247 log.txt,37,37,736392
54,1,556.4329,0,460,1105,2857,4205,951,14.5,200,0,0,557.5614,1,2,03-Mar-2016 08:52:16,03_03_2016 level21_continuous_Robin 08_43_00.247 log.txt,37,37,736392
55,0,562.8007,0,460,1105,2857,4205,851,-0.5,200,0,0,564.5353,1,2,03-Mar-2016 08:52:23,03_03_2016 level21_continuous_Robin 08_43_00.247 log.txt,37,37,736392
56,0,568.7547,0,730,2058,2857,4205,501,-6.5,200,1,0,570.7557,0,2,03-Mar-2016 08:52:29,03_03_2016 level21_continuous_Robin 08_43_00.247 log.txt,37,37,736392
57,1,575.6786,0,730,2058,2857,4205,501,-6.5,200,1,1,576.954,1,2,03-Mar-2016 08:52:35,03_03_2016 level21_continuous_Robin 08_43_00.247 log.txt,37,37,736392
58,0,582.2584,0,730,2058,2857,4205,651,-0.5,200,1,1,583.359,1,2,03-Mar-2016 08:52:42,03_03_2016 level21_continuous_Robin 08_43_00.247 log.txt,37,37,736392
59,0,594.3549,0,730,2058,2857,4205,651,-9.5,200,1,0,595.9657,0,2,03-Mar-2016 08:52:54,03_03_2016 level21_continuous_Robin 08_43_00.247 log.txt,37,37,736392
60,1,603.4581,0,730,2058,2857,4205,651,-9.5,200,1,1,604.6595,1,2,03-Mar-2016 08:53:03,03_03_2016 level21_continuous_Robin 08_43_00.247 log.txt,37,37,736392
61,0,613.5799,0,460,1105,2857,4205,901,-0.5,200,0,0,614.5974,1,2,03-Mar-2016 08:53:13,03_03_2016 level21_continuous_Robin 08_43_00.247 log.txt,37,37,736392
62,0,618.6048,1,460,1105,2857,4205,751,-9.5,200,0,0,619.8228,1,2,03-Mar-2016 08:53:18,03_03_2016 level21_continuous_Robin 08_43_00.247 log.txt,37,37,736392
63,0,624.3535,0,730,2058,2857,4205,851,14.5,200,1,1,626.1826,1,2,03-Mar-2016 08:53:24,03_03_2016 level21_continuous_Robin 08_43_00.247 log.txt,37,37,736392
64,0,630.4374,0,460,1105,2857,4205,801,14.5,200,0,0,632.8134,1,2,03-Mar-2016 08:53:30,03_03_2016 level21_continuous_Robin 08_43_00.247 log.txt,37,37,736392
65,0,637.0129,0,730,2058,2857,4205,501,-6.5,200,1,1,638.5279,1,2,03-Mar-2016 08:53:37,03_03_2016 level21_continuous_Robin 08_43_00.247 log.txt,37,37,736392
66,0,643.1882,0,730,2058,2857,4205,951,-0.5,200,1,1,644.7291,1,2,03-Mar-2016 08:53:43,03_03_2016 level21_continuous_Robin 08_43_00.247 log.txt,37,37,736392
67,0,650.482,0,460,1105,2857,4205,1001,-6.5,200,0,0,652.8587,1,2,03-Mar-2016 08:53:50,03_03_2016 level21_continuous_Robin 08_43_00.247 log.txt,37,37,736392
68,0,657.1983,0,730,2058,2857,4205,551,14.5,200,1,1,658.457,1,2,03-Mar-2016 08:53:57,03_03_2016 level21_continuous_Robin 08_43_00.247 log.txt,37,37,736392
69,0,663.099,0,460,1105,2857,4205,601,-6.5,200,0,0,665.3133,1,2,03-Mar-2016 08:54:03,03_03_2016 level21_continuous_Robin 08_43_00.247 log.txt,37,37,736392
70,0,670.2873,0,730,2058,2857,4205,801,-6.5,200,1,1,671.43,1,2,03-Mar-2016 08:54:10,03_03_2016 level21_continuous_Robin 08_43_00.247 log.txt,37,37,736392
71,0,677.5688,0,730,2058,2857,4205,901,-9.5,200,1,1,678.7735,1,2,03-Mar-2016 08:54:17,03_03_2016 level21_continuous_Robin 08_43_00.247 log.txt,37,37,736392
72,0,684.1808,0,460,1105,2857,4205,1001,14.5,200,0,0,685.7023,1,2,03-Mar-2016 08:54:24,03_03_2016 level21_continuous_Robin 08_43_00.247 log.txt,37,37,736392
73,0,690.127,0,460,1105,2857,4205,751,-0.5,200,0,0,692.6136,1,2,03-Mar-2016 08:54:30,03_03_2016 level21_continuous_Robin 08_43_00.247 log.txt,37,37,736392
74,0,697.8932,0,730,2058,2857,4205,701,-0.5,200,1,1,698.9281,1,2,03-Mar-2016 08:54:38,03_03_2016 level21_continuous_Robin 08_43_00.247 log.txt,37,37,736392
75,0,703.8078,0,460,1105,2857,4205,551,-9.5,200,0,0,705.9823,1,2,03-Mar-2016 08:54:44,03_03_2016 level21_continuous_Robin 08_43_00.247 log.txt,37,37,736392
76,0,712.0001,0,460,1105,2857,4205,501,14.5,200,0,1,713.1103,0,2,03-Mar-2016 08:54:52,03_03_2016 level21_continuous_Robin 08_43_00.247 log.txt,37,37,736392
77,1,718.0612,0,460,1105,2857,4205,501,14.5,200,0,0,720.229,1,2,03-Mar-2016 08:54:58,03_03_2016 level21_continuous_Robin 08_43_00.247 log.txt,37,37,736392
78,0,725.6792,0,460,1105,2857,4205,651,-9.5,200,0,0,727.7552,1,2,03-Mar-2016 08:55:05,03_03_2016 level21_continuous_Robin 08_43_00.247 log.txt,37,37,736392
79,0,732.7112,0,730,2058,2857,4205,851,-6.5,200,1,1,733.7875,1,2,03-Mar-2016 08:55:12,03_03_2016 level21_continuous_Robin 08_43_00.247 log.txt,37,37,736392
80,0,738.9278,0,460,1105,2857,4205,951,-0.5,200,0,0,740.7466,1,2,03-Mar-2016 08:55:19,03_03_2016 level21_continuous_Robin 08_43_00.247 log.txt,37,37,736392
81,0,745.1005,0,730,2058,2857,4205,901,-9.5,200,1,1,746.329,1,2,03-Mar-2016 08:55:25,03_03_2016 level21_continuous_Robin 08_43_00.247 log.txt,37,37,736392
82,0,750.8846,0,460,1105,2857,4205,751,-6.5,200,0,0,751.9328,1,2,03-Mar-2016 08:55:31,03_03_2016 level21_continuous_Robin 08_43_00.247 log.txt,37,37,736392
83,0,756.6638,0,730,2058,2857,4205,801,-0.5,200,1,1,757.6112,1,2,03-Mar-2016 08:55:36,03_03_2016 level21_continuous_Robin 08_43_00.247 log.txt,37,37,736392
84,0,761.7362,0,730,2058,2857,4205,501,14.5,200,1,1,762.9848,1,2,03-Mar-2016 08:55:41,03_03_2016 level21_continuous_Robin 08_43_00.247 log.txt,37,37,736392
85,0,770.1032,0,730,2058,2857,4205,1001,-6.5,200,1,1,770.8418,1,2,03-Mar-2016 08:55:50,03_03_2016 level21_continuous_Robin 08_43_00.247 log.txt,37,37,736392
86,0,775.4723,1,460,1105,2857,4205,551,-0.5,200,0,0,776.3531,1,2,03-Mar-2016 08:55:55,03_03_2016 level21_continuous_Robin 08_43_00.247 log.txt,37,37,736392
87,0,780.7653,0,730,2058,2857,4205,701,-0.5,200,1,1,784.2207,1,2,03-Mar-2016 08:56:01,03_03_2016 level21_continuous_Robin 08_43_00.247 log.txt,37,37,736392
88,0,788.5831,0,730,2058,2857,4205,601,-9.5,200,1,1,791.2981,1,2,03-Mar-2016 08:56:08,03_03_2016 level21_continuous_Robin 08_43_00.247 log.txt,37,37,736392
89,0,797.1066,0,460,1105,2857,4205,851,-6.5,200,0,0,798.5051,1,2,03-Mar-2016 08:56:17,03_03_2016 level21_continuous_Robin 08_43_00.247 log.txt,37,37,736392
90,0,802.1828,1,460,1105,2857,4205,651,-9.5,200,0,0,806.0763,1,2,03-Mar-2016 08:56:22,03_03_2016 level21_continuous_Robin 08_43_00.247 log.txt,37,37,736392
91,0,810.1147,0,730,2058,2857,4205,701,14.5,200,1,1,811.8298,1,2,03-Mar-2016 08:56:30,03_03_2016 level21_continuous_Robin 08_43_00.247 log.txt,37,37,736392
92,0,815.9977,1,460,1105,2857,4205,501,14.5,200,0,1,821.1834,0,2,03-Mar-2016 08:56:36,03_03_2016 level21_continuous_Robin 08_43_00.247 log.txt,37,37,736392
93,1,827.2622,0,460,1105,2857,4205,501,14.5,200,0,0,829.3392,1,2,03-Mar-2016 08:56:47,03_03_2016 level21_continuous_Robin 08_43_00.247 log.txt,37,37,736392
94,0,832.9752,0,730,2058,2857,4205,551,-0.5,200,1,1,834.7258,1,2,03-Mar-2016 08:56:53,03_03_2016 level21_continuous_Robin 08_43_00.247 log.txt,37,37,736392
95,0,838.6086,0,730,2058,2857,4205,801,-9.5,200,1,1,840.1999,1,2,03-Mar-2016 08:56:58,03_03_2016 level21_continuous_Robin 08_43_00.247 log.txt,37,37,736392
96,0,845.0148,0,730,2058,2857,4205,1001,-6.5,200,1,1,846.6864,1,2,03-Mar-2016 08:57:05,03_03_2016 level21_continuous_Robin 08_43_00.247 log.txt,37,37,736392
97,0,851.2166,0,460,1105,2857,4205,951,14.5,200,0,0,852.6746,1,2,03-Mar-2016 08:57:11,03_03_2016 level21_continuous_Robin 08_43_00.247 log.txt,37,37,736392
98,0,856.4534,0,460,1105,2857,4205,651,-9.5,200,0,0,858.5661,1,2,03-Mar-2016 08:57:16,03_03_2016 level21_continuous_Robin 08_43_00.247 log.txt,37,37,736392
99,0,862.2752,0,730,2058,2857,4205,601,14.5,200,1,1,863.4476,1,2,03-Mar-2016 08:57:22,03_03_2016 level21_continuous_Robin 08_43_00.247 log.txt,37,37,736392
100,0,868.1828,0,460,1105,2857,4205,851,-0.5,200,0,0,870.2572,1,2,03-Mar-2016 08:57:28,03_03_2016 level21_continuous_Robin 08_43_00.247 log.txt,37,37,736392
101,0,874.9661,0,460,1105,2857,4205,751,-6.5,200,0,0,876.5447,1,2,03-Mar-2016 08:57:35,03_03_2016 level21_continuous_Robin 08_43_00.247 log.txt,37,37,736392
102,0,880.8753,0,730,2058,2857,4205,701,-9.5,200,1,1,881.9407,1,2,03-Mar-2016 08:57:41,03_03_2016 level21_continuous_Robin 08_43_00.247 log.txt,37,37,736392
103,0,885.881,0,730,2058,2857,4205,501,-6.5,200,1,1,887.4589,1,2,03-Mar-2016 08:57:46,03_03_2016 level21_continuous_Robin 08_43_00.247 log.txt,37,37,736392
104,0,892.1457,0,460,1105,2857,4205,901,14.5,200,0,1,893.5998,0,2,03-Mar-2016 08:57:52,03_03_2016 level21_continuous_Robin 08_43_00.247 log.txt,37,37,736392
105,1,907.1831,0,460,1105,2857,4205,901,14.5,200,0,0,908.1992,1,2,03-Mar-2016 08:58:07,03_03_2016 level21_continuous_Robin 08_43_00.247 log.txt,37,37,736392
106,0,912.6625,0,730,2058,2857,4205,851,14.5,200,1,1,913.596,1,2,03-Mar-2016 08:58:12,03_03_2016 level21_continuous_Robin 08_43_00.247 log.txt,37,37,736392
107,0,918.3354,0,460,1105,2857,4205,651,-9.5,200,0,0,919.8686,1,2,03-Mar-2016 08:58:18,03_03_2016 level21_continuous_Robin 08_43_00.247 log.txt,37,37,736392
108,0,923.7049,0,460,1105,2857,4205,601,-0.5,200,0,0,925.3589,1,2,03-Mar-2016 08:58:23,03_03_2016 level21_continuous_Robin 08_43_00.247 log.txt,37,37,736392
109,0,929.1712,0,730,2058,2857,4205,751,-0.5,200,1,1,930.3111,1,2,03-Mar-2016 08:58:29,03_03_2016 level21_continuous_Robin 08_43_00.247 log.txt,37,37,736392
110,0,935.2466,0,460,1105,2857,4205,1001,-6.5,200,0,0,936.7956,1,2,03-Mar-2016 08:58:35,03_03_2016 level21_continuous_Robin 08_43_00.247 log.txt,37,37,736392
111,0,940.9362,1,460,1105,2857,4205,801,-9.5,200,0,0,944.4606,1,2,03-Mar-2016 08:58:41,03_03_2016 level21_continuous_Robin 08_43_00.247 log.txt,37,37,736392
112,0,948.6239,0,730,2058,2857,4205,951,14.5,200,1,1,949.7839,1,2,03-Mar-2016 08:58:48,03_03_2016 level21_continuous_Robin 08_43_00.247 log.txt,37,37,736392
113,0,954.7362,0,730,2058,2857,4205,651,-9.5,200,1,1,956.4314,1,2,03-Mar-2016 08:58:54,03_03_2016 level21_continuous_Robin 08_43_00.247 log.txt,37,37,736392
114,0,963.4591,0,730,2058,2857,4205,501,-6.5,200,1,1,964.8452,1,2,03-Mar-2016 08:59:03,03_03_2016 level21_continuous_Robin 08_43_00.247 log.txt,37,37,736392
115,0,969.6576,0,460,1105,2857,4205,1001,14.5,200,0,0,971.486,1,2,03-Mar-2016 08:59:09,03_03_2016 level21_continuous_Robin 08_43_00.247 log.txt,37,37,736392
116,0,975.3538,0,460,1105,2857,4205,851,-6.5,200,0,0,977.1842,1,2,03-Mar-2016 08:59:15,03_03_2016 level21_continuous_Robin 08_43_00.247 log.txt,37,37,736392
117,0,981.2173,0,730,2058,2857,4205,951,-0.5,200,1,1,982.0419,1,2,03-Mar-2016 08:59:21,03_03_2016 level21_continuous_Robin 08_43_00.247 log.txt,37,37,736392
118,0,986.1564,0,460,1105,2857,4205,601,-0.5,200,0,1,987.8723,0,2,03-Mar-2016 08:59:26,03_03_2016 level21_continuous_Robin 08_43_00.247 log.txt,37,37,736392
119,1,998.6739,0,460,1105,2857,4205,601,-0.5,200,0,0,999.3071,1,2,03-Mar-2016 08:59:38,03_03_2016 level21_continuous_Robin 08_43_00.247 log.txt,37,37,736392
120,0,1003.3254,1,460,1105,2857,4205,701,-6.5,200,0,0,1007.1218,1,2,03-Mar-2016 08:59:43,03_03_2016 level21_continuous_Robin 08_43_00.247 log.txt,37,37,736392
121,0,1010.8229,0,460,1105,2857,4205,551,-9.5,200,0,0,1012.3498,1,2,03-Mar-2016 08:59:51,03_03_2016 level21_continuous_Robin 08_43_00.247 log.txt,37,37,736392
122,0,1015.852,0,460,1105,2857,4205,901,14.5,200,0,1,1017.1735,0,2,03-Mar-2016 08:59:56,03_03_2016 level21_continuous_Robin 08_43_00.247 log.txt,37,37,736392
123,1,1022.1851,0,460,1105,2857,4205,901,14.5,200,0,0,1023.5841,1,2,03-Mar-2016 09:00:02,03_03_2016 level21_continuous_Robin 08_43_00.247 log.txt,37,37,736392
124,0,1027.9671,0,730,2058,2857,4205,801,14.5,200,1,1,1029.1536,1,2,03-Mar-2016 09:00:08,03_03_2016 level21_continuous_Robin 08_43_00.247 log.txt,37,37,736392
125,0,1033.4405,0,460,1105,2857,4205,601,-0.5,200,0,1,1034.903,0,2,03-Mar-2016 09:00:13,03_03_2016 level21_continuous_Robin 08_43_00.247 log.txt,37,37,736392
126,1,1042.2856,0,460,1105,2857,4205,601,-0.5,200,0,0,1044.2614,1,2,03-Mar-2016 09:00:22,03_03_2016 level21_continuous_Robin 08_43_00.247 log.txt,37,37,736392
127,0,1048.2042,0,730,2058,2857,4205,1001,-6.5,200,1,1,1049.4859,1,2,03-Mar-2016 09:00:28,03_03_2016 level21_continuous_Robin 08_43_00.247 log.txt,37,37,736392
128,0,1053.8915,0,730,2058,2857,4205,951,-0.5,200,1,1,1055.1035,1,2,03-Mar-2016 09:00:34,03_03_2016 level21_continuous_Robin 08_43_00.247 log.txt,37,37,736392
129,0,1059.6128,0,730,2058,2857,4205,851,-9.5,200,1,0,1061.2078,0,2,03-Mar-2016 09:00:39,03_03_2016 level21_continuous_Robin 08_43_00.247 log.txt,37,37,736392
130,1,1068.4495,1,730,2058,2857,4205,851,-9.5,200,1,1,1072.9489,1,2,03-Mar-2016 09:00:48,03_03_2016 level21_continuous_Robin 08_43_00.247 log.txt,37,37,736392
131,0,1079.4818,1,460,1105,2857,4205,901,-0.5,200,0,0,1083.1119,1,2,03-Mar-2016 09:00:59,03_03_2016 level21_continuous_Robin 08_43_00.247 log.txt,37,37,736392
132,0,1086.7226,0,730,2058,2857,4205,501,-6.5,200,1,1,1088.4488,1,2,03-Mar-2016 09:01:06,03_03_2016 level21_continuous_Robin 08_43_00.247 log.txt,37,37,736392
133,0,1093.8128,0,730,2058,2857,4205,551,14.5,200,1,1,1095.4374,1,2,03-Mar-2016 09:01:14,03_03_2016 level21_continuous_Robin 08_43_00.247 log.txt,37,37,736392
134,0,1100.775,0,460,1105,2857,4205,801,-9.5,200,0,0,1102.1634,1,2,03-Mar-2016 09:01:21,03_03_2016 level21_continuous_Robin 08_43_00.247 log.txt,37,37,736392
135,0,1106.3666,0,460,1105,2857,4205,751,-6.5,200,0,0,1108.0931,1,2,03-Mar-2016 09:01:26,03_03_2016 level21_continuous_Robin 08_43_00.247 log.txt,37,37,736392
136,0,1112.2672,0,460,1105,2857,4205,701,14.5,200,0,1,1113.6586,0,2,03-Mar-2016 09:01:32,03_03_2016 level21_continuous_Robin 08_43_00.247 log.txt,37,37,736392
137,1,1118.6024,0,460,1105,2857,4205,701,14.5,200,0,0,1120.4547,1,2,03-Mar-2016 09:01:38,03_03_2016 level21_continuous_Robin 08_43_00.247 log.txt,37,37,736392
138,0,1124.3217,0,730,2058,2857,4205,1001,-9.5,200,1,1,1125.8302,1,2,03-Mar-2016 09:01:44,03_03_2016 level21_continuous_Robin 08_43_00.247 log.txt,37,37,736392
139,0,1129.8472,0,730,2058,2857,4205,701,-0.5,200,1,1,1131.6881,1,2,03-Mar-2016 09:01:50,03_03_2016 level21_continuous_Robin 08_43_00.247 log.txt,37,37,736392
140,0,1135.5808,0,730,2058,2857,4205,801,-0.5,200,1,0,1137.6562,0,2,03-Mar-2016 09:01:55,03_03_2016 level21_continuous_Robin 08_43_00.247 log.txt,37,37,736392
141,1,1151.1339,1,730,2058,2857,4205,801,-0.5,200,1,0,1151.8507,0,2,03-Mar-2016 09:02:11,03_03_2016 level21_continuous_Robin 08_43_00.247 log.txt,37,37,736392
142,1,1156.6909,0,730,2058,2857,4205,801,-0.5,200,1,1,1158.0219,1,2,03-Mar-2016 09:02:16,03_03_2016 level21_continuous_Robin 08_43_00.247 log.txt,37,37,736392
143,0,1162.1714,0,730,2058,2857,4205,851,14.5,200,1,1,1163.5013,1,2,03-Mar-2016 09:02:22,03_03_2016 level21_continuous_Robin 08_43_00.247 log.txt,37,37,736392
144,0,1188.1247,0,460,1105,2857,4205,551,14.5,200,0,0,1189.0772,1,2,03-Mar-2016 09:02:48,03_03_2016 level21_continuous_Robin 08_43_00.247 log.txt,37,37,736392
1,0,1.1668,0,730,2058,2857,4205,651,-6.5,200,1,0,3.8928,0,2,03-Mar-2016 17:00:54,03_03_2016 level21_continuous_Robin_cooling 17_00_52.936 log.txt,11,11,736392
2,1,10.8672,1,730,2058,2857,4205,651,-6.5,200,1,0,15.7686,0,2,03-Mar-2016 17:01:03,03_03_2016 level21_continuous_Robin_cooling 17_00_52.936 log.txt,11,11,736392
3,1,22.7229,0,730,2058,2857,4205,651,-6.5,200,1,0,24.1134,0,2,03-Mar-2016 17:01:15,03_03_2016 level21_continuous_Robin_cooling 17_00_52.936 log.txt,11,11,736392
4,1,31.9888,1,730,2058,2857,4205,651,-6.5,200,1,1,38.3299,1,2,03-Mar-2016 17:01:24,03_03_2016 level21_continuous_Robin_cooling 17_00_52.936 log.txt,11,11,736392
5,0,40.7918,0,460,1105,2857,4205,751,-6.5,200,0,0,42.6105,1,2,03-Mar-2016 17:01:33,03_03_2016 level21_continuous_Robin_cooling 17_00_52.936 log.txt,11,11,736392
6,0,49.8485,0,730,2058,2857,4205,951,-0.5,200,1,1,52.1304,1,2,03-Mar-2016 17:01:42,03_03_2016 level21_continuous_Robin_cooling 17_00_52.936 log.txt,11,11,736392
7,0,64.2098,0,460,1105,2857,4205,801,-9.5,200,0,0,65.7845,1,2,03-Mar-2016 17:01:57,03_03_2016 level21_continuous_Robin_cooling 17_00_52.936 log.txt,11,11,736392
8,0,77.9708,0,730,2058,2857,4205,601,14.5,200,1,1,79.7872,1,2,03-Mar-2016 17:02:10,03_03_2016 level21_continuous_Robin_cooling 17_00_52.936 log.txt,10,10,736392
9,0,85.0196,0,460,1105,2857,4205,501,-0.5,200,0,0,86.6464,1,2,03-Mar-2016 17:02:17,03_03_2016 level21_continuous_Robin_cooling 17_00_52.936 log.txt,10,10,736392
10,0,94.1785,0,460,1105,2857,4205,701,14.5,200,0,1,95.5708,0,2,03-Mar-2016 17:02:27,03_03_2016 level21_continuous_Robin_cooling 17_00_52.936 log.txt,10,10,736392
11,1,102.6273,0,460,1105,2857,4205,701,14.5,200,0,0,103.9323,1,2,03-Mar-2016 17:02:35,03_03_2016 level21_continuous_Robin_cooling 17_00_52.936 log.txt,10,10,736392
12,0,110.7037,1,730,2058,2857,4205,551,-9.5,200,1,1,116.2904,1,2,03-Mar-2016 17:02:43,03_03_2016 level21_continuous_Robin_cooling 17_00_52.936 log.txt,10,10,736392
13,0,122.19,0,730,2058,2857,4205,901,-9.5,200,1,1,123.9531,1,2,03-Mar-2016 17:02:55,03_03_2016 level21_continuous_Robin_cooling 17_00_52.936 log.txt,10,10,736392
14,0,137.0431,0,460,1105,2857,4205,1001,14.5,200,0,0,138.0234,1,2,03-Mar-2016 17:03:09,03_03_2016 level21_continuous_Robin_cooling 17_00_52.936 log.txt,10,10,736392
15,0,143.3893,0,730,2058,2857,4205,901,-0.5,200,1,0,144.9074,0,2,03-Mar-2016 17:03:16,03_03_2016 level21_continuous_Robin_cooling 17_00_52.936 log.txt,10,10,736392
16,1,150.9309,0,730,2058,2857,4205,901,-0.5,200,1,1,152.6204,1,2,03-Mar-2016 17:03:23,03_03_2016 level21_continuous_Robin_cooling 17_00_52.936 log.txt,10,10,736392
17,0,157.7777,0,730,2058,2857,4205,751,14.5,200,1,1,159.9132,1,2,03-Mar-2016 17:03:30,03_03_2016 level21_continuous_Robin_cooling 17_00_52.936 log.txt,10,10,736392
18,0,165.9654,0,460,1105,2857,4205,1001,-0.5,200,0,0,167.0168,1,2,03-Mar-2016 17:03:38,03_03_2016 level21_continuous_Robin_cooling 17_00_52.936 log.txt,10,10,736392
19,0,174.0175,0,460,1105,2857,4205,601,-6.5,200,0,0,175.3083,1,2,03-Mar-2016 17:03:46,03_03_2016 level21_continuous_Robin_cooling 17_00_52.936 log.txt,10,10,736392
20,0,181.1868,1,730,2058,2857,4205,701,-6.5,200,1,0,185.1581,0,2,03-Mar-2016 17:03:54,03_03_2016 level21_continuous_Robin_cooling 17_00_52.936 log.txt,10,10,736392
21,1,193.2511,0,730,2058,2857,4205,701,-6.5,200,1,0,195.0603,0,2,03-Mar-2016 17:04:06,03_03_2016 level21_continuous_Robin_cooling 17_00_52.936 log.txt,10,10,736392
22,1,200.4992,0,730,2058,2857,4205,701,-6.5,200,1,0,201.9442,0,2,03-Mar-2016 17:04:13,03_03_2016 level21_continuous_Robin_cooling 17_00_52.936 log.txt,10,10,736392
23,1,211.3956,0,730,2058,2857,4205,701,-6.5,200,1,0,212.8919,0,2,03-Mar-2016 17:04:24,03_03_2016 level21_continuous_Robin_cooling 17_00_52.936 log.txt,10,10,736392
24,1,224.3798,0,730,2058,2857,4205,701,-6.5,200,1,0,225.9788,0,2,03-Mar-2016 17:04:37,03_03_2016 level21_continuous_Robin_cooling 17_00_52.936 log.txt,10,10,736392
25,1,233.2096,1,730,2058,2857,4205,701,-6.5,200,1,1,238.5931,1,2,03-Mar-2016 17:04:46,03_03_2016 level21_continuous_Robin_cooling 17_00_52.936 log.txt,10,10,736392
26,0,245.7591,0,460,1105,2857,4205,651,-9.5,200,0,0,247.2869,1,2,03-Mar-2016 17:04:58,03_03_2016 level21_continuous_Robin_cooling 17_00_52.936 log.txt,10,10,736392
27,0,251.8345,0,460,1105,2857,4205,551,-6.5,200,0,0,253.0409,1,2,03-Mar-2016 17:05:04,03_03_2016 level21_continuous_Robin_cooling 17_00_52.936 log.txt,10,10,736392
28,0,258.9514,0,730,2058,2857,4205,801,14.5,200,1,1,260.4326,1,2,03-Mar-2016 17:05:11,03_03_2016 level21_continuous_Robin_cooling 17_00_52.936 log.txt,10,10,736392
29,0,272.1863,0,460,1105,2857,4205,501,-0.5,200,0,0,273.5797,1,2,03-Mar-2016 17:05:25,03_03_2016 level21_continuous_Robin_cooling 17_00_52.936 log.txt,10,10,736392
30,0,278.2173,1,460,1105,2857,4205,851,14.5,200,0,1,283.2726,0,2,03-Mar-2016 17:05:31,03_03_2016 level21_continuous_Robin_cooling 17_00_52.936 log.txt,9.16933999996185,9.16933999996185,736392
31,1,293.2528,0,460,1105,2857,4205,851,14.5,200,0,0,295.2652,1,2,03-Mar-2016 17:05:46,03_03_2016 level21_continuous_Robin_cooling 17_00_52.936 log.txt,9,9,736392
32,0,300.1863,0,730,2058,2857,4205,1001,-6.5,200,1,0,301.8887,0,2,03-Mar-2016 17:05:53,03_03_2016 level21_continuous_Robin_cooling 17_00_52.936 log.txt,9,9,736392
33,1,309.223,0,730,2058,2857,4205,1001,-6.5,200,1,0,310.9165,0,2,03-Mar-2016 17:06:02,03_03_2016 level21_continuous_Robin_cooling 17_00_52.936 log.txt,9,9,736392
34,1,316.8219,0,730,2058,2857,4205,1001,-6.5,200,1,0,317.8281,0,2,03-Mar-2016 17:06:09,03_03_2016 level21_continuous_Robin_cooling 17_00_52.936 log.txt,9,9,736392
35,1,326.5695,0,730,2058,2857,4205,1001,-6.5,200,1,1,328.8913,1,2,03-Mar-2016 17:06:19,03_03_2016 level21_continuous_Robin_cooling 17_00_52.936 log.txt,9,9,736392
36,0,334.3156,0,730,2058,2857,4205,901,-9.5,200,1,0,336.274,0,2,03-Mar-2016 17:06:27,03_03_2016 level21_continuous_Robin_cooling 17_00_52.936 log.txt,9,9,736392
37,1,341.899,0,730,2058,2857,4205,901,-9.5,200,1,0,343.408,0,2,03-Mar-2016 17:06:34,03_03_2016 level21_continuous_Robin_cooling 17_00_52.936 log.txt,9,9,736392
38,1,348.8054,0,730,2058,2857,4205,901,-9.5,200,1,1,350.2092,1,2,03-Mar-2016 17:06:41,03_03_2016 level21_continuous_Robin_cooling 17_00_52.936 log.txt,9,9,736392
39,0,355.4164,0,460,1105,2857,4205,951,-9.5,200,0,0,356.5285,1,2,03-Mar-2016 17:06:48,03_03_2016 level21_continuous_Robin_cooling 17_00_52.936 log.txt,9,9,736392
40,0,361.4554,0,730,2058,2857,4205,551,-0.5,200,1,0,363.0849,0,2,03-Mar-2016 17:06:54,03_03_2016 level21_continuous_Robin_cooling 17_00_52.936 log.txt,9,9,736392
41,1,369.1457,0,730,2058,2857,4205,551,-0.5,200,1,1,370.9559,1,2,03-Mar-2016 17:07:02,03_03_2016 level21_continuous_Robin_cooling 17_00_52.936 log.txt,9,9,736392
42,0,377.921,0,730,2058,2857,4205,651,-9.5,200,1,1,379.5258,1,2,03-Mar-2016 17:07:10,03_03_2016 level21_continuous_Robin_cooling 17_00_52.936 log.txt,9,9,736392
43,0,386.8428,1,460,1105,2857,4205,601,14.5,200,0,1,391.3019,0,2,03-Mar-2016 17:07:19,03_03_2016 level21_continuous_Robin_cooling 17_00_52.936 log.txt,9,9,736392
44,1,400.8004,0,460,1105,2857,4205,601,14.5,200,0,0,402.4682,1,2,03-Mar-2016 17:07:33,03_03_2016 level21_continuous_Robin_cooling 17_00_52.936 log.txt,9,9,736392
45,0,407.5223,1,730,2058,2857,4205,851,-0.5,200,1,1,412.0526,1,2,03-Mar-2016 17:07:40,03_03_2016 level21_continuous_Robin_cooling 17_00_52.936 log.txt,9,9,736392
46,0,417.2845,0,460,1105,2857,4205,701,-9.5,200,0,0,419.0313,1,2,03-Mar-2016 17:07:50,03_03_2016 level21_continuous_Robin_cooling 17_00_52.936 log.txt,9,9,736392
47,0,423.3884,0,460,1105,2857,4205,501,-6.5,200,0,0,424.8012,1,2,03-Mar-2016 17:07:56,03_03_2016 level21_continuous_Robin_cooling 17_00_52.936 log.txt,9,9,736392
48,0,430.0072,0,730,2058,2857,4205,801,-6.5,200,1,1,431.5629,1,2,03-Mar-2016 17:08:02,03_03_2016 level21_continuous_Robin_cooling 17_00_52.936 log.txt,9,9,736392
49,0,437.5458,0,460,1105,2857,4205,1001,-0.5,200,0,1,438.9048,0,2,03-Mar-2016 17:08:10,03_03_2016 level21_continuous_Robin_cooling 17_00_52.936 log.txt,9,9,736392
50,1,446.8113,0,460,1105,2857,4205,1001,-0.5,200,0,0,448.0969,1,2,03-Mar-2016 17:08:19,03_03_2016 level21_continuous_Robin_cooling 17_00_52.936 log.txt,9,9,736392
51,0,452.5143,1,730,2058,2857,4205,601,14.5,200,1,1,458.0643,1,2,03-Mar-2016 17:08:25,03_03_2016 level21_continuous_Robin_cooling 17_00_52.936 log.txt,9,9,736392
52,0,465.3437,0,460,1105,2857,4205,801,-9.5,200,0,0,466.6465,1,2,03-Mar-2016 17:08:38,03_03_2016 level21_continuous_Robin_cooling 17_00_52.936 log.txt,9,9,736392
53,0,470.9668,0,730,2058,2857,4205,501,-9.5,200,1,1,473.1006,1,2,03-Mar-2016 17:08:43,03_03_2016 level21_continuous_Robin_cooling 17_00_52.936 log.txt,9,9,736392
54,0,481.8841,0,730,2058,2857,4205,851,-6.5,200,1,0,483.1318,0,2,03-Mar-2016 17:08:54,03_03_2016 level21_continuous_Robin_cooling 17_00_52.936 log.txt,9,9,736392
55,1,490.5171,0,730,2058,2857,4205,851,-6.5,200,1,1,493.442,1,2,03-Mar-2016 17:09:03,03_03_2016 level21_continuous_Robin_cooling 17_00_52.936 log.txt,9,9,736392
56,0,498.8077,0,460,1105,2857,4205,951,14.5,200,0,1,499.9586,0,2,03-Mar-2016 17:09:11,03_03_2016 level21_continuous_Robin_cooling 17_00_52.936 log.txt,9,9,736392
57,1,511.7322,0,460,1105,2857,4205,951,14.5,200,0,0,512.4983,1,2,03-Mar-2016 17:09:24,03_03_2016 level21_continuous_Robin_cooling 17_00_52.936 log.txt,9,9,736392
58,0,516.9329,0,730,2058,2857,4205,901,-0.5,200,1,1,518.2761,1,2,03-Mar-2016 17:09:29,03_03_2016 level21_continuous_Robin_cooling 17_00_52.936 log.txt,9,9,736392
59,0,523.3254,1,730,2058,2857,4205,551,14.5,200,1,1,527.6,1,2,03-Mar-2016 17:09:36,03_03_2016 level21_continuous_Robin_cooling 17_00_52.936 log.txt,9,9,736392
60,0,533.3327,0,460,1105,2857,4205,651,-0.5,200,0,0,535.2591,1,2,03-Mar-2016 17:09:46,03_03_2016 level21_continuous_Robin_cooling 17_00_52.936 log.txt,9,9,736392
61,0,540.0128,0,460,1105,2857,4205,751,-6.5,200,0,0,541.5567,1,2,03-Mar-2016 17:09:52,03_03_2016 level21_continuous_Robin_cooling 17_00_52.936 log.txt,9,9,736392
62,0,546.1935,0,460,1105,2857,4205,1001,14.5,200,0,1,547.2894,0,2,03-Mar-2016 17:09:59,03_03_2016 level21_continuous_Robin_cooling 17_00_52.936 log.txt,9,9,736392
63,1,556.6064,0,460,1105,2857,4205,1001,14.5,200,0,0,558.3045,1,2,03-Mar-2016 17:10:09,03_03_2016 level21_continuous_Robin_cooling 17_00_52.936 log.txt,9,9,736392
64,0,563.2409,0,730,2058,2857,4205,751,-6.5,200,1,1,564.8257,1,2,03-Mar-2016 17:10:16,03_03_2016 level21_continuous_Robin_cooling 17_00_52.936 log.txt,9,9,736392
65,0,569.4022,0,730,2058,2857,4205,901,-9.5,200,1,1,571.1911,1,2,03-Mar-2016 17:10:22,03_03_2016 level21_continuous_Robin_cooling 17_00_52.936 log.txt,9,9,736392
66,0,577.5944,0,460,1105,2857,4205,701,-9.5,200,0,0,579.1346,1,2,03-Mar-2016 17:10:30,03_03_2016 level21_continuous_Robin_cooling 17_00_52.936 log.txt,9,9,736392
67,0,582.8805,0,460,1105,2857,4205,551,-0.5,200,0,0,584.5501,1,2,03-Mar-2016 17:10:35,03_03_2016 level21_continuous_Robin_cooling 17_00_52.936 log.txt,9,9,736392
68,0,590.4537,0,730,2058,2857,4205,801,-0.5,200,1,1,591.8294,1,2,03-Mar-2016 17:10:43,03_03_2016 level21_continuous_Robin_cooling 17_00_52.936 log.txt,9,9,736392
69,0,597.3483,0,460,1105,2857,4205,951,-6.5,200,0,0,598.9143,1,2,03-Mar-2016 17:10:50,03_03_2016 level21_continuous_Robin_cooling 17_00_52.936 log.txt,9,9,736392
70,0,603.1337,0,730,2058,2857,4205,851,14.5,200,1,1,604.4879,1,2,03-Mar-2016 17:10:56,03_03_2016 level21_continuous_Robin_cooling 17_00_52.936 log.txt,9,9,736392
71,0,608.8328,0,460,1105,2857,4205,601,-0.5,200,0,0,610.5039,1,2,03-Mar-2016 17:11:01,03_03_2016 level21_continuous_Robin_cooling 17_00_52.936 log.txt,9,9,736392
72,0,614.8073,0,730,2058,2857,4205,651,-0.5,200,1,1,616.748,1,2,03-Mar-2016 17:11:07,03_03_2016 level21_continuous_Robin_cooling 17_00_52.936 log.txt,9,9,736392
73,0,622.3136,0,730,2058,2857,4205,551,14.5,200,1,1,623.9661,1,2,03-Mar-2016 17:11:15,03_03_2016 level21_continuous_Robin_cooling 17_00_52.936 log.txt,9,9,736392
74,0,629.0914,0,460,1105,2857,4205,1001,14.5,200,0,0,630.9203,1,2,03-Mar-2016 17:11:22,03_03_2016 level21_continuous_Robin_cooling 17_00_52.936 log.txt,9,9,736392
75,0,635.7583,0,730,2058,2857,4205,801,-6.5,200,1,1,637.2376,1,2,03-Mar-2016 17:11:28,03_03_2016 level21_continuous_Robin_cooling 17_00_52.936 log.txt,9,9,736392
76,0,641.3166,0,460,1105,2857,4205,501,-9.5,200,0,0,642.6675,1,2,03-Mar-2016 17:11:34,03_03_2016 level21_continuous_Robin_cooling 17_00_52.936 log.txt,9,9,736392
77,0,647.6956,0,730,2058,2857,4205,751,-9.5,200,1,1,648.9267,1,2,03-Mar-2016 17:11:40,03_03_2016 level21_continuous_Robin_cooling 17_00_52.936 log.txt,9,9,736392
78,0,652.9769,0,460,1105,2857,4205,601,-6.5,200,0,0,654.6539,1,2,03-Mar-2016 17:11:45,03_03_2016 level21_continuous_Robin_cooling 17_00_52.936 log.txt,9,9,736392
79,0,660.0926,0,460,1105,2857,4205,651,-0.5,200,0,0,661.4419,1,2,03-Mar-2016 17:11:53,03_03_2016 level21_continuous_Robin_cooling 17_00_52.936 log.txt,9,9,736392
80,0,665.7943,0,460,1105,2857,4205,701,14.5,200,0,1,667.1997,0,2,03-Mar-2016 17:11:58,03_03_2016 level21_continuous_Robin_cooling 17_00_52.936 log.txt,9,9,736392
81,1,674.3769,1,460,1105,2857,4205,701,14.5,200,0,0,678.7626,1,2,03-Mar-2016 17:12:07,03_03_2016 level21_continuous_Robin_cooling 17_00_52.936 log.txt,9,9,736392
82,0,683.4899,0,730,2058,2857,4205,901,-6.5,200,1,1,685.0691,1,2,03-Mar-2016 17:12:16,03_03_2016 level21_continuous_Robin_cooling 17_00_52.936 log.txt,10,10,736392
83,0,689.7496,1,730,2058,2857,4205,851,-9.5,200,1,1,694.0154,1,2,03-Mar-2016 17:12:22,03_03_2016 level21_continuous_Robin_cooling 17_00_52.936 log.txt,10,10,736392
84,0,699.6139,0,460,1105,2857,4205,551,-6.5,200,0,0,701.5022,1,2,03-Mar-2016 17:12:32,03_03_2016 level21_continuous_Robin_cooling 17_00_52.936 log.txt,10,10,736392
85,0,705.464,0,730,2058,2857,4205,901,14.5,200,1,1,706.8144,1,2,03-Mar-2016 17:12:38,03_03_2016 level21_continuous_Robin_cooling 17_00_52.936 log.txt,10,10,736392
86,0,710.841,0,730,2058,2857,4205,701,-0.5,200,1,1,712.4346,1,2,03-Mar-2016 17:12:43,03_03_2016 level21_continuous_Robin_cooling 17_00_52.936 log.txt,10,10,736392
87,0,719.5606,1,460,1105,2857,4205,851,-9.5,200,0,0,723.1409,1,2,03-Mar-2016 17:12:52,03_03_2016 level21_continuous_Robin_cooling 17_00_52.936 log.txt,10,10,736392
88,0,750.1017,0,730,2058,2857,4205,751,-0.5,200,1,0,751.4924,0,2,03-Mar-2016 17:13:23,03_03_2016 level21_continuous_Robin_cooling 17_00_52.936 log.txt,10,10,736392
89,1,757.9514,0,730,2058,2857,4205,751,-0.5,200,1,0,760.0325,0,2,03-Mar-2016 17:13:30,03_03_2016 level21_continuous_Robin_cooling 17_00_52.936 log.txt,10,10,736392
90,1,767.4844,0,730,2058,2857,4205,751,-0.5,200,1,1,772.096,1,2,03-Mar-2016 17:13:40,03_03_2016 level21_continuous_Robin_cooling 17_00_52.936 log.txt,10,10,736392
91,0,776.758,0,730,2058,2857,4205,651,14.5,200,1,1,778.4818,1,2,03-Mar-2016 17:13:49,03_03_2016 level21_continuous_Robin_cooling 17_00_52.936 log.txt,10,10,736392
92,0,782.9222,0,460,1105,2857,4205,601,-9.5,200,0,0,784.9355,1,2,03-Mar-2016 17:13:55,03_03_2016 level21_continuous_Robin_cooling 17_00_52.936 log.txt,9.02836000003815,9.02836000003815,736392
93,0,789.2724,1,730,2058,2857,4205,951,-6.5,200,1,1,793.9901,1,2,03-Mar-2016 17:14:02,03_03_2016 level21_continuous_Robin_cooling 17_00_52.936 log.txt,9,9,736392
94,0,800.555,0,460,1105,2857,4205,801,14.5,200,0,1,803.0301,0,2,03-Mar-2016 17:14:13,03_03_2016 level21_continuous_Robin_cooling 17_00_52.936 log.txt,9,9,736392
95,1,810.7537,0,460,1105,2857,4205,801,14.5,200,0,0,812.3358,1,2,03-Mar-2016 17:14:23,03_03_2016 level21_continuous_Robin_cooling 17_00_52.936 log.txt,9,9,736392
96,0,817.0676,0,460,1105,2857,4205,1001,-6.5,200,0,0,818.1606,1,2,03-Mar-2016 17:14:30,03_03_2016 level21_continuous_Robin_cooling 17_00_52.936 log.txt,9,9,736392
97,0,822.0896,0,730,2058,2857,4205,651,-9.5,200,1,1,823.8281,1,2,03-Mar-2016 17:14:35,03_03_2016 level21_continuous_Robin_cooling 17_00_52.936 log.txt,9,9,736392
98,0,828.7608,1,460,1105,2857,4205,1001,-0.5,200,0,0,833.0261,1,2,03-Mar-2016 17:14:41,03_03_2016 level21_continuous_Robin_cooling 17_00_52.936 log.txt,9,9,736392
99,0,837.3685,0,730,2058,2857,4205,851,-9.5,200,1,1,839.188,1,2,03-Mar-2016 17:14:50,03_03_2016 level21_continuous_Robin_cooling 17_00_52.936 log.txt,9,9,736392
100,0,844.1527,0,730,2058,2857,4205,901,-0.5,200,1,1,846.1658,1,2,03-Mar-2016 17:14:57,03_03_2016 level21_continuous_Robin_cooling 17_00_52.936 log.txt,9,9,736392
101,0,851.0499,1,730,2058,2857,4205,551,-6.5,200,1,1,855.3764,1,2,03-Mar-2016 17:15:03,03_03_2016 level21_continuous_Robin_cooling 17_00_52.936 log.txt,9,9,736392
102,0,860.6046,0,460,1105,2857,4205,751,-6.5,200,0,0,862.6993,1,2,03-Mar-2016 17:15:13,03_03_2016 level21_continuous_Robin_cooling 17_00_52.936 log.txt,9,9,736392
103,0,868.1421,0,460,1105,2857,4205,701,-9.5,200,0,0,870.144,1,2,03-Mar-2016 17:15:21,03_03_2016 level21_continuous_Robin_cooling 17_00_52.936 log.txt,9,9,736392
104,0,874.3428,0,460,1105,2857,4205,951,-0.5,200,0,0,875.436,1,2,03-Mar-2016 17:15:27,03_03_2016 level21_continuous_Robin_cooling 17_00_52.936 log.txt,9,9,736392
105,0,879.7177,0,460,1105,2857,4205,601,14.5,200,0,0,881.8006,1,2,03-Mar-2016 17:15:32,03_03_2016 level21_continuous_Robin_cooling 17_00_52.936 log.txt,9,9,736392
106,0,885.6234,0,730,2058,2857,4205,501,14.5,200,1,1,887.4739,1,2,03-Mar-2016 17:15:38,03_03_2016 level21_continuous_Robin_cooling 17_00_52.936 log.txt,9,9,736392
107,0,893.0135,0,730,2058,2857,4205,801,-9.5,200,1,0,894.6642,0,2,03-Mar-2016 17:15:45,03_03_2016 level21_continuous_Robin_cooling 17_00_52.936 log.txt,9,9,736392
108,1,901.5244,0,730,2058,2857,4205,801,-9.5,200,1,1,903.2724,1,2,03-Mar-2016 17:15:54,03_03_2016 level21_continuous_Robin_cooling 17_00_52.936 log.txt,9,9,736392
109,0,908.5852,0,730,2058,2857,4205,601,-6.5,200,1,1,910.2575,1,2,03-Mar-2016 17:16:01,03_03_2016 level21_continuous_Robin_cooling 17_00_52.936 log.txt,9,9,736392
110,0,916.6918,0,460,1105,2857,4205,951,-0.5,200,0,0,918.1875,1,2,03-Mar-2016 17:16:09,03_03_2016 level21_continuous_Robin_cooling 17_00_52.936 log.txt,9,9,736392
111,0,922.8028,0,730,2058,2857,4205,751,14.5,200,1,1,924.5495,1,2,03-Mar-2016 17:16:15,03_03_2016 level21_continuous_Robin_cooling 17_00_52.936 log.txt,9,9,736392
112,0,928.7306,0,460,1105,2857,4205,501,-6.5,200,0,0,930.4888,1,2,03-Mar-2016 17:16:21,03_03_2016 level21_continuous_Robin_cooling 17_00_52.936 log.txt,9,9,736392
113,0,936.0839,0,460,1105,2857,4205,851,-9.5,200,0,0,937.4441,1,2,03-Mar-2016 17:16:29,03_03_2016 level21_continuous_Robin_cooling 17_00_52.936 log.txt,9,9,736392
114,0,941.6733,0,730,2058,2857,4205,1001,-0.5,200,1,1,943.1804,1,2,03-Mar-2016 17:16:34,03_03_2016 level21_continuous_Robin_cooling 17_00_52.936 log.txt,9,9,736392
115,0,947.2735,0,460,1105,2857,4205,701,14.5,200,0,1,949.0556,0,2,03-Mar-2016 17:16:40,03_03_2016 level21_continuous_Robin_cooling 17_00_52.936 log.txt,9,9,736392
116,1,954.7426,0,460,1105,2857,4205,701,14.5,200,0,0,955.8757,1,2,03-Mar-2016 17:16:47,03_03_2016 level21_continuous_Robin_cooling 17_00_52.936 log.txt,9,9,736392
117,0,960.1516,0,460,1105,2857,4205,901,-6.5,200,0,0,961.3987,1,2,03-Mar-2016 17:16:53,03_03_2016 level21_continuous_Robin_cooling 17_00_52.936 log.txt,9,9,736392
118,0,965.6728,0,730,2058,2857,4205,651,-0.5,200,1,1,967.2361,1,2,03-Mar-2016 17:16:58,03_03_2016 level21_continuous_Robin_cooling 17_00_52.936 log.txt,9,9,736392
119,0,971.1783,0,460,1105,2857,4205,501,-9.5,200,0,0,973.0504,1,2,03-Mar-2016 17:17:04,03_03_2016 level21_continuous_Robin_cooling 17_00_52.936 log.txt,9,9,736392
120,0,978.9356,0,730,2058,2857,4205,1001,-9.5,200,1,1,980.5359,1,2,03-Mar-2016 17:17:11,03_03_2016 level21_continuous_Robin_cooling 17_00_52.936 log.txt,9,9,736392
121,0,984.9258,1,730,2058,2857,4205,851,14.5,200,1,1,989.8338,1,2,03-Mar-2016 17:17:17,03_03_2016 level21_continuous_Robin_cooling 17_00_52.936 log.txt,9,9,736392
122,0,996.0208,0,730,2058,2857,4205,901,-6.5,200,1,1,997.9544,1,2,03-Mar-2016 17:17:28,03_03_2016 level21_continuous_Robin_cooling 17_00_52.936 log.txt,9,9,736392
123,0,1010.711,0,460,1105,2857,4205,701,-0.5,200,0,0,1012.1522,1,2,03-Mar-2016 17:17:43,03_03_2016 level21_continuous_Robin_cooling 17_00_52.936 log.txt,9,9,736392
124,0,1016.4226,0,460,1105,2857,4205,751,14.5,200,0,1,1017.9627,0,2,03-Mar-2016 17:17:49,03_03_2016 level21_continuous_Robin_cooling 17_00_52.936 log.txt,9,9,736392
125,1,1027.8836,0,460,1105,2857,4205,751,14.5,200,0,0,1028.9736,1,2,03-Mar-2016 17:18:00,03_03_2016 level21_continuous_Robin_cooling 17_00_52.936 log.txt,9,9,736392
126,0,1033.4342,1,460,1105,2857,4205,951,-0.5,200,0,0,1037.2116,1,2,03-Mar-2016 17:18:06,03_03_2016 level21_continuous_Robin_cooling 17_00_52.936 log.txt,9,9,736392
127,0,1040.9564,0,730,2058,2857,4205,551,-6.5,200,1,1,1043.1807,1,2,03-Mar-2016 17:18:13,03_03_2016 level21_continuous_Robin_cooling 17_00_52.936 log.txt,9,9,736392
128,0,1048.6146,0,460,1105,2857,4205,601,14.5,200,0,0,1050.6324,1,2,03-Mar-2016 17:18:21,03_03_2016 level21_continuous_Robin_cooling 17_00_52.936 log.txt,10,10,736392
129,0,1058.3479,0,730,2058,2857,4205,801,-9.5,200,1,0,1059.8561,0,2,03-Mar-2016 17:18:31,03_03_2016 level21_continuous_Robin_cooling 17_00_52.936 log.txt,10,10,736392
130,1,1067.5316,0,730,2058,2857,4205,801,-9.5,200,1,0,1068.7214,0,2,03-Mar-2016 17:18:40,03_03_2016 level21_continuous_Robin_cooling 17_00_52.936 log.txt,10,10,736392
131,1,1089.8527,0,730,2058,2857,4205,801,-9.5,200,1,0,1096.2135,0,2,03-Mar-2016 17:19:02,03_03_2016 level21_continuous_Robin_cooling 17_00_52.936 log.txt,10,10,736392
1,0,342.9083,0,730,2058,2857,4205,751,8.5,200,1,0,345.6614,0,2,03-Dec-2015 08:45:24,03_12_2015 level21_continuous_Robin 08_39_42.046 log.txt,37,37,736301
2,1,352.0479,0,730,2058,2857,4205,751,8.5,200,1,1,359.7786,1,2,03-Dec-2015 08:45:34,03_12_2015 level21_continuous_Robin 08_39_42.046 log.txt,37,37,736301
3,0,364.8728,0,730,2058,2857,4205,601,5.5,200,1,0,366.895,0,2,03-Dec-2015 08:45:46,03_12_2015 level21_continuous_Robin 08_39_42.046 log.txt,37,37,736301
4,1,373.2871,0,730,2058,2857,4205,601,5.5,200,1,1,377.1012,1,2,03-Dec-2015 08:45:55,03_12_2015 level21_continuous_Robin 08_39_42.046 log.txt,37,37,736301
5,0,384.8425,0,460,1105,2857,4205,951,8.5,200,0,0,385.9633,1,2,03-Dec-2015 08:46:06,03_12_2015 level21_continuous_Robin 08_39_42.046 log.txt,37,37,736301
6,0,388.2374,0,730,2058,2857,4205,551,-0.5,200,1,1,389.8877,1,2,03-Dec-2015 08:46:10,03_12_2015 level21_continuous_Robin 08_39_42.046 log.txt,37,37,736301
7,0,397.6147,0,460,1105,2857,4205,501,2.5,200,0,0,399.5297,1,2,03-Dec-2015 08:46:19,03_12_2015 level21_continuous_Robin 08_39_42.046 log.txt,37,37,736301
8,0,403.9998,0,730,2058,2857,4205,801,-3.5,200,1,1,405.7775,1,2,03-Dec-2015 08:46:26,03_12_2015 level21_continuous_Robin 08_39_42.046 log.txt,37,37,736301
9,0,415.1874,0,730,2058,2857,4205,901,11.5,200,1,1,416.8958,1,2,03-Dec-2015 08:46:37,03_12_2015 level21_continuous_Robin 08_39_42.046 log.txt,37,37,736301
10,0,427.5087,1,460,1105,2857,4205,851,-0.5,200,0,0,428.7249,1,2,03-Dec-2015 08:46:49,03_12_2015 level21_continuous_Robin 08_39_42.046 log.txt,37,37,736301
11,0,433.9306,0,460,1105,2857,4205,1001,5.5,200,0,0,435.0521,1,2,03-Dec-2015 08:46:55,03_12_2015 level21_continuous_Robin 08_39_42.046 log.txt,37,37,736301
12,0,443.5075,0,460,1105,2857,4205,651,-3.5,200,0,0,444.3981,1,2,03-Dec-2015 08:47:05,03_12_2015 level21_continuous_Robin 08_39_42.046 log.txt,37,37,736301
13,0,452.6491,0,460,1105,2857,4205,751,14.5,200,0,1,454.3022,0,2,03-Dec-2015 08:47:14,03_12_2015 level21_continuous_Robin 08_39_42.046 log.txt,37,37,736301
14,1,462.3954,0,460,1105,2857,4205,751,14.5,200,0,0,463.8529,1,2,03-Dec-2015 08:47:24,03_12_2015 level21_continuous_Robin 08_39_42.046 log.txt,37,37,736301
15,0,469.6143,0,460,1105,2857,4205,801,11.5,200,0,1,471.2113,0,2,03-Dec-2015 08:47:31,03_12_2015 level21_continuous_Robin 08_39_42.046 log.txt,37,37,736301
16,1,476.5267,0,460,1105,2857,4205,801,11.5,200,0,1,477.4146,0,2,03-Dec-2015 08:47:38,03_12_2015 level21_continuous_Robin 08_39_42.046 log.txt,37,37,736301
17,1,484.8332,0,460,1105,2857,4205,801,11.5,200,0,0,485.8741,1,2,03-Dec-2015 08:47:46,03_12_2015 level21_continuous_Robin 08_39_42.046 log.txt,37,37,736301
18,0,491.6531,0,730,2058,2857,4205,851,14.5,200,1,0,493.0731,0,2,03-Dec-2015 08:47:53,03_12_2015 level21_continuous_Robin 08_39_42.046 log.txt,37,37,736301
19,1,499.2426,0,730,2058,2857,4205,851,14.5,200,1,1,500.9875,1,2,03-Dec-2015 08:48:01,03_12_2015 level21_continuous_Robin 08_39_42.046 log.txt,37,37,736301
20,0,510.7218,1,730,2058,2857,4205,1001,2.5,200,1,0,513.2513,0,2,03-Dec-2015 08:48:12,03_12_2015 level21_continuous_Robin 08_39_42.046 log.txt,37,37,736301
21,1,520.2209,0,730,2058,2857,4205,1001,2.5,200,1,0,521.796,0,2,03-Dec-2015 08:48:22,03_12_2015 level21_continuous_Robin 08_39_42.046 log.txt,37,37,736301
22,1,527.9311,0,730,2058,2857,4205,1001,2.5,200,1,1,529.6486,1,2,03-Dec-2015 08:48:29,03_12_2015 level21_continuous_Robin 08_39_42.046 log.txt,37,37,736301
23,0,545.7825,0,460,1105,2857,4205,951,14.5,200,0,0,547.0863,1,2,03-Dec-2015 08:48:47,03_12_2015 level21_continuous_Robin 08_39_42.046 log.txt,37,37,736301
24,0,552.3097,1,460,1105,2857,4205,901,-3.5,200,0,0,556.8786,1,2,03-Dec-2015 08:48:54,03_12_2015 level21_continuous_Robin 08_39_42.046 log.txt,37,37,736301
25,0,561.8027,1,460,1105,2857,4205,601,8.5,200,0,0,568.0965,1,2,03-Dec-2015 08:49:03,03_12_2015 level21_continuous_Robin 08_39_42.046 log.txt,37,37,736301
26,0,572.833,1,460,1105,2857,4205,701,5.5,200,0,0,579.2654,1,2,03-Dec-2015 08:49:14,03_12_2015 level21_continuous_Robin 08_39_42.046 log.txt,37,37,736301
27,0,584.3558,0,730,2058,2857,4205,651,11.5,200,1,1,587.172,1,2,03-Dec-2015 08:49:26,03_12_2015 level21_continuous_Robin 08_39_42.046 log.txt,37,37,736301
28,0,593.8578,0,730,2058,2857,4205,501,14.5,200,1,1,596.1019,1,2,03-Dec-2015 08:49:35,03_12_2015 level21_continuous_Robin 08_39_42.046 log.txt,37,37,736301
29,0,606.1799,0,730,2058,2857,4205,751,8.5,200,1,1,608.2187,1,2,03-Dec-2015 08:49:48,03_12_2015 level21_continuous_Robin 08_39_42.046 log.txt,37,37,736301
30,0,618.6659,0,730,2058,2857,4205,901,-0.5,200,1,0,620.2978,0,2,03-Dec-2015 08:50:00,03_12_2015 level21_continuous_Robin 08_39_42.046 log.txt,37,37,736301
31,1,627.1332,0,730,2058,2857,4205,901,-0.5,200,1,0,628.7607,0,2,03-Dec-2015 08:50:09,03_12_2015 level21_continuous_Robin 08_39_42.046 log.txt,37,37,736301
32,1,635.7303,1,730,2058,2857,4205,901,-0.5,200,1,0,641.7848,0,2,03-Dec-2015 08:50:17,03_12_2015 level21_continuous_Robin 08_39_42.046 log.txt,37,37,736301
33,1,649.209,0,730,2058,2857,4205,901,-0.5,200,1,0,651.5534,0,2,03-Dec-2015 08:50:31,03_12_2015 level21_continuous_Robin 08_39_42.046 log.txt,37,37,736301
34,1,657.8385,0,730,2058,2857,4205,901,-0.5,200,1,1,660.0961,1,2,03-Dec-2015 08:50:39,03_12_2015 level21_continuous_Robin 08_39_42.046 log.txt,37,37,736301
35,0,668.2138,0,730,2058,2857,4205,701,5.5,200,1,1,670.0172,1,2,03-Dec-2015 08:50:50,03_12_2015 level21_continuous_Robin 08_39_42.046 log.txt,37,37,736301
36,0,680.9875,1,460,1105,2857,4205,601,11.5,200,0,0,686.3849,1,2,03-Dec-2015 08:51:03,03_12_2015 level21_continuous_Robin 08_39_42.046 log.txt,37,37,736301
37,0,690.9247,0,730,2058,2857,4205,551,2.5,200,1,1,693.7674,1,2,03-Dec-2015 08:51:12,03_12_2015 level21_continuous_Robin 08_39_42.046 log.txt,37,37,736301
38,0,703.0224,1,460,1105,2857,4205,851,-0.5,200,0,0,708.3117,1,2,03-Dec-2015 08:51:25,03_12_2015 level21_continuous_Robin 08_39_42.046 log.txt,37,37,736301
39,0,713.1025,0,730,2058,2857,4205,651,-3.5,200,1,0,715.2937,0,2,03-Dec-2015 08:51:35,03_12_2015 level21_continuous_Robin 08_39_42.046 log.txt,37,37,736301
40,1,721.786,0,730,2058,2857,4205,651,-3.5,200,1,0,723.975,0,2,03-Dec-2015 08:51:43,03_12_2015 level21_continuous_Robin 08_39_42.046 log.txt,37,37,736301
41,1,731.5879,0,730,2058,2857,4205,651,-3.5,200,1,1,734.0806,1,2,03-Dec-2015 08:51:53,03_12_2015 level21_continuous_Robin 08_39_42.046 log.txt,37,37,736301
42,0,745.227,0,460,1105,2857,4205,951,2.5,200,0,0,746.3997,1,2,03-Dec-2015 08:52:07,03_12_2015 level21_continuous_Robin 08_39_42.046 log.txt,37,37,736301
43,0,751.5208,0,460,1105,2857,4205,801,-0.5,200,0,0,752.8013,1,2,03-Dec-2015 08:52:13,03_12_2015 level21_continuous_Robin 08_39_42.046 log.txt,37,37,736301
44,0,757.0287,0,730,2058,2857,4205,501,8.5,200,1,1,758.7948,1,2,03-Dec-2015 08:52:19,03_12_2015 level21_continuous_Robin 08_39_42.046 log.txt,37,37,736301
45,0,768.6657,0,730,2058,2857,4205,551,11.5,200,1,1,770.6101,1,2,03-Dec-2015 08:52:30,03_12_2015 level21_continuous_Robin 08_39_42.046 log.txt,37,37,736301
46,0,780.2722,0,460,1105,2857,4205,501,8.5,200,0,0,781.6628,1,2,03-Dec-2015 08:52:42,03_12_2015 level21_continuous_Robin 08_39_42.046 log.txt,37,37,736301
47,0,787.0938,0,730,2058,2857,4205,801,14.5,200,1,1,788.5314,1,2,03-Dec-2015 08:52:49,03_12_2015 level21_continuous_Robin 08_39_42.046 log.txt,37,37,736301
48,0,798.8527,0,730,2058,2857,4205,851,5.5,200,1,0,800.2426,0,2,03-Dec-2015 08:53:00,03_12_2015 level21_continuous_Robin 08_39_42.046 log.txt,37,37,736301
49,1,805.2047,0,730,2058,2857,4205,851,5.5,200,1,1,807.3334,1,2,03-Dec-2015 08:53:07,03_12_2015 level21_continuous_Robin 08_39_42.046 log.txt,37,37,736301
50,0,817.4006,0,460,1105,2857,4205,901,14.5,200,0,1,819.1193,0,2,03-Dec-2015 08:53:19,03_12_2015 level21_continuous_Robin 08_39_42.046 log.txt,37,37,736301
51,1,825.6736,0,460,1105,2857,4205,901,14.5,200,0,0,826.9798,1,2,03-Dec-2015 08:53:27,03_12_2015 level21_continuous_Robin 08_39_42.046 log.txt,37,37,736301
52,0,832.8293,0,730,2058,2857,4205,651,-0.5,200,1,1,834.4768,1,2,03-Dec-2015 08:53:34,03_12_2015 level21_continuous_Robin 08_39_42.046 log.txt,37,37,736301
53,0,846.9493,0,460,1105,2857,4205,601,5.5,200,0,0,848.1425,1,2,03-Dec-2015 08:53:48,03_12_2015 level21_continuous_Robin 08_39_42.046 log.txt,37,37,736301
54,0,852.7519,1,460,1105,2857,4205,701,11.5,200,0,0,856.3763,1,2,03-Dec-2015 08:53:54,03_12_2015 level21_continuous_Robin 08_39_42.046 log.txt,37,37,736301
55,0,861.3874,0,460,1105,2857,4205,951,2.5,200,0,0,862.5335,1,2,03-Dec-2015 08:54:03,03_12_2015 level21_continuous_Robin 08_39_42.046 log.txt,37,37,736301
56,0,869.8298,0,730,2058,2857,4205,751,2.5,200,1,1,871.183,1,2,03-Dec-2015 08:54:11,03_12_2015 level21_continuous_Robin 08_39_42.046 log.txt,37,37,736301
57,0,881.7748,0,460,1105,2857,4205,1001,-3.5,200,0,0,883.4521,1,2,03-Dec-2015 08:54:23,03_12_2015 level21_continuous_Robin 08_39_42.046 log.txt,37,37,736301
58,0,888.4813,0,730,2058,2857,4205,651,-3.5,200,1,1,890.2898,1,2,03-Dec-2015 08:54:30,03_12_2015 level21_continuous_Robin 08_39_42.046 log.txt,37,37,736301
59,0,898.9988,0,460,1105,2857,4205,951,2.5,200,0,0,900.795,1,2,03-Dec-2015 08:54:41,03_12_2015 level21_continuous_Robin 08_39_42.046 log.txt,37,37,736301
60,0,906.7495,0,730,2058,2857,4205,751,2.5,200,1,1,908.3512,1,2,03-Dec-2015 08:54:48,03_12_2015 level21_continuous_Robin 08_39_42.046 log.txt,37,37,736301
61,0,918.0877,0,730,2058,2857,4205,551,11.5,200,1,1,919.9736,1,2,03-Dec-2015 08:55:00,03_12_2015 level21_continuous_Robin 08_39_42.046 log.txt,37,37,736301
62,0,932.339,0,730,2058,2857,4205,701,5.5,200,1,0,933.4948,0,2,03-Dec-2015 08:55:14,03_12_2015 level21_continuous_Robin 08_39_42.046 log.txt,37,37,736301
63,1,940.3106,0,730,2058,2857,4205,701,5.5,200,1,1,941.9534,1,2,03-Dec-2015 08:55:22,03_12_2015 level21_continuous_Robin 08_39_42.046 log.txt,37,37,736301
64,0,951.7538,0,460,1105,2857,4205,601,-0.5,200,0,0,952.979,1,2,03-Dec-2015 08:55:33,03_12_2015 level21_continuous_Robin 08_39_42.046 log.txt,37,37,736301
65,0,958.0214,0,730,2058,2857,4205,901,8.5,200,1,1,960.7798,1,2,03-Dec-2015 08:55:40,03_12_2015 level21_continuous_Robin 08_39_42.046 log.txt,37,37,736301
66,0,970.6862,1,730,2058,2857,4205,801,-0.5,200,1,0,974.813,0,2,03-Dec-2015 08:55:52,03_12_2015 level21_continuous_Robin 08_39_42.046 log.txt,37,37,736301
67,1,984.1416,0,730,2058,2857,4205,801,-0.5,200,1,1,986.689,1,2,03-Dec-2015 08:56:06,03_12_2015 level21_continuous_Robin 08_39_42.046 log.txt,37,37,736301
68,0,995.9378,0,460,1105,2857,4205,851,8.5,200,0,0,997.7047,1,2,03-Dec-2015 08:56:17,03_12_2015 level21_continuous_Robin 08_39_42.046 log.txt,37,37,736301
69,0,1002.5433,0,460,1105,2857,4205,501,11.5,200,0,1,1004.2846,0,2,03-Dec-2015 08:56:24,03_12_2015 level21_continuous_Robin 08_39_42.046 log.txt,37,37,736301
70,1,1008.8517,0,460,1105,2857,4205,501,11.5,200,0,0,1010.3586,1,2,03-Dec-2015 08:56:30,03_12_2015 level21_continuous_Robin 08_39_42.046 log.txt,37,37,736301
71,0,1016.1824,1,460,1105,2857,4205,601,5.5,200,0,0,1020.7869,1,2,03-Dec-2015 08:56:38,03_12_2015 level21_continuous_Robin 08_39_42.046 log.txt,37,37,736301
72,0,1026.0112,0,730,2058,2857,4205,1001,-3.5,200,1,0,1027.7659,0,2,03-Dec-2015 08:56:48,03_12_2015 level21_continuous_Robin 08_39_42.046 log.txt,37,37,736301
73,1,1034.2003,0,730,2058,2857,4205,1001,-3.5,200,1,1,1036.4747,1,2,03-Dec-2015 08:56:56,03_12_2015 level21_continuous_Robin 08_39_42.046 log.txt,37,37,736301
74,0,1046.4156,0,460,1105,2857,4205,901,14.5,200,0,0,1047.9507,1,2,03-Dec-2015 08:57:08,03_12_2015 level21_continuous_Robin 08_39_42.046 log.txt,37,37,736301
75,0,1053.3333,0,730,2058,2857,4205,951,14.5,200,1,1,1054.8194,1,2,03-Dec-2015 08:57:15,03_12_2015 level21_continuous_Robin 08_39_42.046 log.txt,37,37,736301
76,0,1064.6477,0,460,1105,2857,4205,551,-3.5,200,0,0,1065.7876,1,2,03-Dec-2015 08:57:26,03_12_2015 level21_continuous_Robin 08_39_42.046 log.txt,37,37,736301
77,0,1071.517,0,730,2058,2857,4205,801,-3.5,200,1,0,1072.7468,0,2,03-Dec-2015 08:57:33,03_12_2015 level21_continuous_Robin 08_39_42.046 log.txt,37,37,736301
78,1,1078.9734,0,730,2058,2857,4205,801,-3.5,200,1,0,1080.7833,0,2,03-Dec-2015 08:57:41,03_12_2015 level21_continuous_Robin 08_39_42.046 log.txt,37,37,736301
79,1,1086.8866,0,730,2058,2857,4205,801,-3.5,200,1,0,1088.8402,0,2,03-Dec-2015 08:57:48,03_12_2015 level21_continuous_Robin 08_39_42.046 log.txt,37,37,736301
80,1,1094.8701,0,730,2058,2857,4205,801,-3.5,200,1,1,1096.4972,1,2,03-Dec-2015 08:57:56,03_12_2015 level21_continuous_Robin 08_39_42.046 log.txt,37,37,736301
81,0,1105.7902,0,460,1105,2857,4205,851,14.5,200,0,0,1107.0065,1,2,03-Dec-2015 08:58:07,03_12_2015 level21_continuous_Robin 08_39_42.046 log.txt,37,37,736301
82,0,1112.1739,0,730,2058,2857,4205,651,11.5,200,1,1,1113.6731,1,2,03-Dec-2015 08:58:14,03_12_2015 level21_continuous_Robin 08_39_42.046 log.txt,37,37,736301
83,0,1122.9071,0,730,2058,2857,4205,701,-0.5,200,1,1,1124.5305,1,2,03-Dec-2015 08:58:24,03_12_2015 level21_continuous_Robin 08_39_42.046 log.txt,37,37,736301
84,0,1136.8084,0,460,1105,2857,4205,701,-0.5,200,0,0,1137.8916,1,2,03-Dec-2015 08:58:38,03_12_2015 level21_continuous_Robin 08_39_42.046 log.txt,37,37,736301
85,0,1142.7328,0,460,1105,2857,4205,1001,-3.5,200,0,0,1144.0339,1,2,03-Dec-2015 08:58:44,03_12_2015 level21_continuous_Robin 08_39_42.046 log.txt,37,37,736301
86,0,1148.5599,0,730,2058,2857,4205,801,8.5,200,1,1,1150.2368,1,2,03-Dec-2015 08:58:50,03_12_2015 level21_continuous_Robin 08_39_42.046 log.txt,37,37,736301
87,0,1159.4118,0,460,1105,2857,4205,501,2.5,200,0,0,1160.4037,1,2,03-Dec-2015 08:59:01,03_12_2015 level21_continuous_Robin 08_39_42.046 log.txt,37,37,736301
88,0,1165.1855,1,730,2058,2857,4205,601,14.5,200,1,0,1170.2972,0,2,03-Dec-2015 08:59:07,03_12_2015 level21_continuous_Robin 08_39_42.046 log.txt,37,37,736301
89,1,1176.107,0,730,2058,2857,4205,601,14.5,200,1,1,1178.4903,1,2,03-Dec-2015 08:59:18,03_12_2015 level21_continuous_Robin 08_39_42.046 log.txt,37,37,736301
90,0,1188.3967,0,460,1105,2857,4205,751,5.5,200,0,0,1190.1523,1,2,03-Dec-2015 08:59:30,03_12_2015 level21_continuous_Robin 08_39_42.046 log.txt,37,37,736301
91,0,1194.6983,0,460,1105,2857,4205,851,8.5,200,0,1,1196.7407,0,2,03-Dec-2015 08:59:36,03_12_2015 level21_continuous_Robin 08_39_42.046 log.txt,37,37,736301
92,1,1204.0146,0,460,1105,2857,4205,851,8.5,200,0,0,1205.8107,1,2,03-Dec-2015 08:59:46,03_12_2015 level21_continuous_Robin 08_39_42.046 log.txt,37,37,736301
93,0,1211.1708,0,730,2058,2857,4205,901,2.5,200,1,1,1212.5792,1,2,03-Dec-2015 08:59:53,03_12_2015 level21_continuous_Robin 08_39_42.046 log.txt,37,37,736301
94,0,1221.5587,0,460,1105,2857,4205,651,11.5,200,0,1,1223.454,0,2,03-Dec-2015 09:00:03,03_12_2015 level21_continuous_Robin 08_39_42.046 log.txt,37,37,736301
95,1,1230.1851,0,460,1105,2857,4205,651,11.5,200,0,0,1231.7993,1,2,03-Dec-2015 09:00:12,03_12_2015 level21_continuous_Robin 08_39_42.046 log.txt,37,37,736301
96,0,1237.9845,0,730,2058,2857,4205,951,5.5,200,1,0,1239.4506,0,2,03-Dec-2015 09:00:20,03_12_2015 level21_continuous_Robin 08_39_42.046 log.txt,37,37,736301
97,1,1246.1416,0,730,2058,2857,4205,951,5.5,200,1,1,1247.8676,1,2,03-Dec-2015 09:00:28,03_12_2015 level21_continuous_Robin 08_39_42.046 log.txt,37,37,736301
98,0,1257.7907,0,730,2058,2857,4205,751,-0.5,200,1,1,1259.555,1,2,03-Dec-2015 09:00:39,03_12_2015 level21_continuous_Robin 08_39_42.046 log.txt,37,37,736301
99,0,1268.2857,1,730,2058,2857,4205,851,8.5,200,1,1,1271.3763,1,2,03-Dec-2015 09:00:50,03_12_2015 level21_continuous_Robin 08_39_42.046 log.txt,37,37,736301
100,0,1280.2676,0,460,1105,2857,4205,901,2.5,200,0,0,1282.3496,1,2,03-Dec-2015 09:01:02,03_12_2015 level21_continuous_Robin 08_39_42.046 log.txt,37,37,736301
101,0,1287.0683,0,460,1105,2857,4205,601,11.5,200,0,1,1288.7516,0,2,03-Dec-2015 09:01:09,03_12_2015 level21_continuous_Robin 08_39_42.046 log.txt,37,37,736301
102,1,1296.7916,1,460,1105,2857,4205,601,11.5,200,0,0,1301.2142,1,2,03-Dec-2015 09:01:18,03_12_2015 level21_continuous_Robin 08_39_42.046 log.txt,37,37,736301
103,0,1305.7824,0,460,1105,2857,4205,951,5.5,200,0,0,1307.1061,1,2,03-Dec-2015 09:01:27,03_12_2015 level21_continuous_Robin 08_39_42.046 log.txt,37,37,736301
104,0,1311.8888,0,730,2058,2857,4205,801,-3.5,200,1,1,1313.5167,1,2,03-Dec-2015 09:01:33,03_12_2015 level21_continuous_Robin 08_39_42.046 log.txt,37,37,736301
105,0,1322.9868,0,460,1105,2857,4205,551,8.5,200,0,0,1324.7132,1,2,03-Dec-2015 09:01:45,03_12_2015 level21_continuous_Robin 08_39_42.046 log.txt,37,37,736301
106,0,1330.3786,0,730,2058,2857,4205,701,11.5,200,1,1,1332.3663,1,2,03-Dec-2015 09:01:52,03_12_2015 level21_continuous_Robin 08_39_42.046 log.txt,37,37,736301
107,0,1340.6944,0,730,2058,2857,4205,501,14.5,200,1,1,1343.8176,1,2,03-Dec-2015 09:02:02,03_12_2015 level21_continuous_Robin 08_39_42.046 log.txt,37,37,736301
108,0,1352.974,0,460,1105,2857,4205,651,-0.5,200,0,0,1354.2208,1,2,03-Dec-2015 09:02:15,03_12_2015 level21_continuous_Robin 08_39_42.046 log.txt,37,37,736301
109,0,1359.2998,0,730,2058,2857,4205,801,2.5,200,1,1,1360.7861,1,2,03-Dec-2015 09:02:21,03_12_2015 level21_continuous_Robin 08_39_42.046 log.txt,37,37,736301
