Trial,CorrectionTrial,StartTime,CenterReward,F1,F2,F3,F4,HoldTime,Atten,Pitch,Side,Response,RespTime,Correct,noiseAtten,opto,laserOnset,laserOffset,Mask,sessionDate
1,0,5.61,0,730,2058,2857,4205,901,-3.3,200,1,8,6.681,0,10,0,-150,100,1,2021-03-10 17:56:00
2,1,10.62,0,730,2058,2857,4205,901,-3.3,200,1,8,11.436,0,10,0,-150,100,1,2021-03-10 17:56:00
3,1,19.148,0,730,2058,2857,4205,901,-3.3,200,1,8,20.196,0,10,0,-150,100,1,2021-03-10 17:56:00
4,1,27.387,0,730,2058,2857,4205,901,-3.3,200,1,2,29.0,1,10,0,-150,100,1,2021-03-10 17:56:00
5,0,46.258,0,460,1105,2857,4205,1001,0.0,200,0,8,47.009,1,10,1,-150,100,1,2021-03-10 17:56:00
6,0,57.193,0,730,2058,2857,4205,801,-10.0,200,1,2,57.891,1,10,1,-150,100,1,2021-03-10 17:56:00
7,0,65.574,0,460,1105,2857,4205,701,10.0,200,0,8,66.189,1,10,0,-150,100,1,2021-03-10 17:56:00
8,0,78.578,0,730,2058,2857,4205,601,6.7,200,1,2,79.569,1,10,0,-150,100,1,2021-03-10 17:56:00
9,0,88.594,0,460,1105,2857,4205,601,3.3,200,0,8,89.143,1,10,0,-150,100,1,2021-03-10 17:56:00
10,0,98.896,0,730,2058,2857,4205,501,10.0,200,1,2,99.586,1,10,1,-150,100,1,2021-03-10 17:56:00
11,0,110.658,0,460,1105,2857,4205,1001,0.0,200,0,8,111.486,1,10,1,-150,100,1,2021-03-10 17:56:00
12,0,122.265,0,730,2058,2857,4205,701,3.3,200,1,8,122.878,0,10,0,-150,100,1,2021-03-10 17:56:00
13,1,129.316,0,730,2058,2857,4205,701,3.3,200,1,8,130.186,0,10,0,-150,100,1,2021-03-10 17:56:00
14,1,133.914,0,730,2058,2857,4205,701,3.3,200,1,8,134.714,0,10,0,-150,100,1,2021-03-10 17:56:00
15,1,138.511,0,730,2058,2857,4205,701,3.3,200,1,8,139.168,0,10,0,-150,100,1,2021-03-10 17:56:00
16,1,142.95,0,730,2058,2857,4205,701,3.3,200,1,2,143.88,1,10,0,-150,100,1,2021-03-10 17:56:00
17,0,158.315,0,460,1105,2857,4205,801,-6.7,200,0,8,158.975,1,10,0,-150,100,1,2021-03-10 17:56:00
18,0,170.837,0,730,2058,2857,4205,501,6.7,200,1,2,171.573,1,10,0,-150,100,1,2021-03-10 17:56:00
19,0,192.663,0,460,1105,2857,4205,801,-10.0,200,0,2,193.183,0,10,0,-150,100,1,2021-03-10 17:56:00
20,1,197.012,0,460,1105,2857,4205,801,-10.0,200,0,8,197.58,1,10,0,-150,100,1,2021-03-10 17:56:00
21,0,210.094,0,460,1105,2857,4205,601,-6.7,200,0,8,210.855,1,10,1,-150,100,1,2021-03-10 17:56:00
22,0,223.478,0,460,1105,2857,4205,901,10.0,200,0,2,224.24,0,10,1,-150,100,1,2021-03-10 17:56:00
23,1,230.997,0,460,1105,2857,4205,901,10.0,200,0,8,231.913,1,10,0,-150,100,1,2021-03-10 17:56:00
24,0,243.43,0,730,2058,2857,4205,701,-3.3,200,1,8,244.402,0,10,1,-150,100,1,2021-03-10 17:56:00
25,1,248.117,0,730,2058,2857,4205,701,-3.3,200,1,2,248.667,1,10,0,-150,100,1,2021-03-10 17:56:00
26,0,257.817,0,730,2058,2857,4205,501,-10.0,200,1,2,258.552,1,10,1,-150,100,1,2021-03-10 17:56:00
27,0,270.85,0,730,2058,2857,4205,701,6.7,200,1,2,271.911,1,10,0,-150,100,1,2021-03-10 17:56:00
28,0,280.959,0,460,1105,2857,4205,901,3.3,200,0,2,281.613,0,10,1,-150,100,1,2021-03-10 17:56:00
29,1,288.781,0,460,1105,2857,4205,901,3.3,200,0,8,289.373,1,10,0,-150,100,1,2021-03-10 17:56:00
30,0,307.295,0,730,2058,2857,4205,1001,-6.7,200,1,2,308.107,1,10,0,-150,100,1,2021-03-10 17:56:00
31,0,318.196,0,460,1105,2857,4205,601,-10.0,200,0,8,318.763,1,10,1,-150,100,1,2021-03-10 17:56:00
32,0,328.059,0,730,2058,2857,4205,601,3.3,200,1,2,328.912,1,10,1,-150,100,1,2021-03-10 17:56:00
33,0,346.857,0,460,1105,2857,4205,801,6.7,200,0,8,347.769,1,10,0,-150,100,1,2021-03-10 17:56:00
34,0,360.621,0,730,2058,2857,4205,501,-3.3,200,1,8,361.67,0,10,1,-150,100,1,2021-03-10 17:56:00
35,1,365.222,0,730,2058,2857,4205,501,-3.3,200,1,8,366.247,0,10,0,-150,100,1,2021-03-10 17:56:00
36,1,374.222,0,730,2058,2857,4205,501,-3.3,200,1,2,375.512,1,10,0,-150,100,1,2021-03-10 17:56:00
37,0,392.403,0,460,1105,2857,4205,1001,10.0,200,0,2,393.009,0,10,0,-150,100,1,2021-03-10 17:56:00
38,1,400.581,0,460,1105,2857,4205,1001,10.0,200,0,8,401.519,1,10,0,-150,100,1,2021-03-10 17:56:00
39,0,412.398,0,730,2058,2857,4205,901,0.0,200,1,2,413.087,1,10,1,-150,100,1,2021-03-10 17:56:00
40,0,427.766,0,460,1105,2857,4205,501,-6.7,200,0,8,428.481,1,10,0,-150,100,1,2021-03-10 17:56:00
41,0,438.487,0,460,1105,2857,4205,701,-10.0,200,0,2,439.259,0,10,1,-150,100,1,2021-03-10 17:56:00
42,1,446.445,0,460,1105,2857,4205,701,-10.0,200,0,8,447.187,1,10,0,-150,100,1,2021-03-10 17:56:00
43,0,456.993,0,460,1105,2857,4205,801,-3.3,200,0,8,457.716,1,10,0,-150,100,1,2021-03-10 17:56:00
44,0,473.329,0,730,2058,2857,4205,601,3.3,200,1,2,474.201,1,10,0,-150,100,1,2021-03-10 17:56:00
45,0,485.741,0,730,2058,2857,4205,901,10.0,200,1,8,486.523,0,10,1,-150,100,1,2021-03-10 17:56:00
46,1,496.07,0,730,2058,2857,4205,901,10.0,200,1,2,497.051,1,10,0,-150,100,1,2021-03-10 17:56:00
47,0,507.414,0,730,2058,2857,4205,601,-3.3,200,1,2,508.089,1,10,0,-150,100,1,2021-03-10 17:56:00
48,0,521.169,0,460,1105,2857,4205,901,10.0,200,0,8,521.899,1,10,1,-150,100,1,2021-03-10 17:56:00
49,0,530.425,0,730,2058,2857,4205,801,0.0,200,1,2,531.222,1,10,0,-150,100,1,2021-03-10 17:56:00
50,0,540.774,0,460,1105,2857,4205,501,-6.7,200,0,8,541.36,1,10,1,-150,100,1,2021-03-10 17:56:00
51,0,552.228,0,460,1105,2857,4205,701,-10.0,200,0,8,552.838,1,10,0,-150,100,1,2021-03-10 17:56:00
52,0,566.903,0,460,1105,2857,4205,701,6.7,200,0,8,567.754,1,10,1,-150,100,1,2021-03-10 17:56:00
53,0,576.589,0,460,1105,2857,4205,901,-6.7,200,0,8,577.147,1,10,0,-150,100,1,2021-03-10 17:56:00
54,0,587.913,0,730,2058,2857,4205,1001,-10.0,200,1,2,588.481,1,10,1,-150,100,1,2021-03-10 17:56:00
55,0,599.841,0,730,2058,2857,4205,501,-3.3,200,1,2,601.017,1,10,0,-150,100,1,2021-03-10 17:56:00
56,0,613.004,0,730,2058,2857,4205,801,10.0,200,1,2,613.68,1,10,1,-150,100,1,2021-03-10 17:56:00
57,0,624.902,0,460,1105,2857,4205,701,3.3,200,0,8,625.539,1,10,0,-150,100,1,2021-03-10 17:56:00
58,0,633.654,0,460,1105,2857,4205,601,6.7,200,0,8,634.291,1,10,1,-150,100,1,2021-03-10 17:56:00
59,0,644.452,0,730,2058,2857,4205,801,-3.3,200,1,8,645.116,0,10,1,-150,100,1,2021-03-10 17:56:00
60,1,649.997,0,730,2058,2857,4205,801,-3.3,200,1,2,650.663,1,10,0,-150,100,1,2021-03-10 17:56:00
61,0,660.536,0,730,2058,2857,4205,501,-10.0,200,1,8,661.099,0,10,0,-150,100,1,2021-03-10 17:56:00
62,1,664.628,0,730,2058,2857,4205,501,-10.0,200,1,8,665.288,0,10,0,-150,100,1,2021-03-10 17:56:00
63,1,668.87,0,730,2058,2857,4205,501,-10.0,200,1,8,669.911,0,10,0,-150,100,1,2021-03-10 17:56:00
64,1,674.255,0,730,2058,2857,4205,501,-10.0,200,1,2,675.195,1,10,0,-150,100,1,2021-03-10 17:56:00
65,0,695.462,0,730,2058,2857,4205,901,6.7,200,1,8,696.899,0,10,1,-150,100,1,2021-03-10 17:56:00
66,1,704.245,0,730,2058,2857,4205,901,6.7,200,1,8,705.141,0,10,0,-150,100,1,2021-03-10 17:56:00
67,1,719.34,0,730,2058,2857,4205,901,6.7,200,1,2,720.033,1,10,0,-150,100,1,2021-03-10 17:56:00
68,0,752.14,0,460,1105,2857,4205,701,-6.7,200,0,2,752.864,0,10,1,-150,100,1,2021-03-10 17:56:00
69,1,772.741,0,460,1105,2857,4205,701,-6.7,200,0,8,774.044,1,10,0,-150,100,1,2021-03-10 17:56:00
70,0,801.283,0,730,2058,2857,4205,901,3.3,200,1,2,801.955,1,10,0,-150,100,1,2021-03-10 17:56:00
71,0,816.126,0,460,1105,2857,4205,1001,0.0,200,0,8,816.917,1,10,0,-150,100,1,2021-03-10 17:56:00
72,0,827.13,0,730,2058,2857,4205,501,-10.0,200,1,2,827.938,1,10,1,-150,100,1,2021-03-10 17:56:00
73,0,837.1,0,730,2058,2857,4205,601,-6.7,200,1,2,837.766,1,10,0,-150,100,1,2021-03-10 17:56:00
74,0,851.063,0,460,1105,2857,4205,801,10.0,200,0,8,851.733,1,10,1,-150,100,1,2021-03-10 17:56:00
75,0,867.679,0,460,1105,2857,4205,601,6.7,200,0,8,868.743,1,10,0,-150,100,1,2021-03-10 17:56:00
76,0,877.723,0,730,2058,2857,4205,501,-3.3,200,1,2,878.472,1,10,0,-150,100,1,2021-03-10 17:56:00
77,0,891.082,0,460,1105,2857,4205,1001,0.0,200,0,8,891.648,1,10,1,-150,100,1,2021-03-10 17:56:00
78,0,902.848,0,730,2058,2857,4205,701,0.0,200,1,8,903.657,0,10,1,-150,100,1,2021-03-10 17:56:00
79,1,907.44,0,730,2058,2857,4205,701,0.0,200,1,2,908.139,1,10,0,-150,100,1,2021-03-10 17:56:00
80,0,921.068,0,460,1105,2857,4205,701,-6.7,200,0,8,921.772,1,10,0,-150,100,1,2021-03-10 17:56:00
81,0,938.464,0,730,2058,2857,4205,1001,10.0,200,1,2,939.156,1,10,1,-150,100,1,2021-03-10 17:56:00
82,0,958.934,0,730,2058,2857,4205,901,3.3,200,1,2,959.589,1,10,1,-150,100,1,2021-03-10 17:56:00
83,0,969.27,0,730,2058,2857,4205,801,-3.3,200,1,2,969.809,1,10,0,-150,100,1,2021-03-10 17:56:00
84,0,982.184,0,460,1105,2857,4205,501,-10.0,200,0,8,982.843,1,10,1,-150,100,1,2021-03-10 17:56:00
85,0,1001.567,0,460,1105,2857,4205,801,-3.3,200,0,8,1002.404,1,10,0,-150,100,1,2021-03-10 17:56:00
86,0,1012.129,0,460,1105,2857,4205,701,10.0,200,0,8,1013.036,1,10,1,-150,100,1,2021-03-10 17:56:00
87,0,1023.692,0,460,1105,2857,4205,901,-6.7,200,0,8,1024.479,1,10,0,-150,100,1,2021-03-10 17:56:00
88,0,1046.742,0,730,2058,2857,4205,1001,0.0,200,1,2,1047.493,1,10,0,-150,100,1,2021-03-10 17:56:00
89,0,1057.839,0,730,2058,2857,4205,501,3.3,200,1,2,1058.685,1,10,0,-150,100,1,2021-03-10 17:56:00
90,0,1075.548,0,460,1105,2857,4205,801,-10.0,200,0,2,1076.779,0,10,1,-150,100,1,2021-03-10 17:56:00
91,1,1086.423,0,460,1105,2857,4205,801,-10.0,200,0,8,1087.242,1,10,0,-150,100,1,2021-03-10 17:56:00
92,0,1096.897,0,730,2058,2857,4205,701,-10.0,200,1,2,1097.514,1,10,0,-150,100,1,2021-03-10 17:56:00
93,0,1105.242,0,460,1105,2857,4205,601,10.0,200,0,2,1105.922,0,10,0,-150,100,1,2021-03-10 17:56:00
94,1,1109.714,0,460,1105,2857,4205,601,10.0,200,0,2,1111.332,0,10,0,-150,100,1,2021-03-10 17:56:00
95,1,1123.93,0,460,1105,2857,4205,601,10.0,200,0,2,1124.773,0,10,0,-150,100,1,2021-03-10 17:56:00
96,1,1132.352,0,460,1105,2857,4205,601,10.0,200,0,2,1133.196,0,10,0,-150,100,1,2021-03-10 17:56:00
97,1,1140.267,0,460,1105,2857,4205,601,10.0,200,0,8,1140.976,1,10,0,-150,100,1,2021-03-10 17:56:00
98,0,1161.879,0,730,2058,2857,4205,1001,0.0,200,1,2,1162.835,1,10,1,-150,100,1,2021-03-10 17:56:00
99,0,1171.121,0,460,1105,2857,4205,501,-6.7,200,0,8,1171.843,1,10,1,-150,100,1,2021-03-10 17:56:00
100,0,1199.474,0,730,2058,2857,4205,901,-3.3,200,1,2,1200.17,1,10,1,-150,100,1,2021-03-10 17:56:00
101,0,1211.673,0,460,1105,2857,4205,601,3.3,200,0,8,1212.333,1,10,0,-150,100,1,2021-03-10 17:56:00
102,0,1236.162,0,730,2058,2857,4205,1001,3.3,200,1,8,1237.276,0,10,1,-150,100,1,2021-03-10 17:56:00
1,0,38.886,0,460,1105,2857,4205,801,3.3,200,0,8,40.525,1,10,1,-150,100,1,2021-03-11 17:40:00
2,0,66.346,0,460,1105,2857,4205,601,-10.0,200,0,8,67.508,1,10,0,-150,100,1,2021-03-11 17:40:00
3,0,96.117,0,460,1105,2857,4205,901,-6.7,200,0,8,97.143,1,10,1,-150,100,1,2021-03-11 17:40:00
4,0,114.885,0,730,2058,2857,4205,501,10.0,200,1,2,116.371,1,10,1,-150,100,1,2021-03-11 17:40:00
5,0,127.327,0,730,2058,2857,4205,701,0.0,200,1,2,128.297,1,10,0,-150,100,1,2021-03-11 17:40:00
6,0,140.118,0,730,2058,2857,4205,601,-3.3,200,1,2,141.085,1,10,0,-150,100,1,2021-03-11 17:40:00
7,0,153.413,0,730,2058,2857,4205,701,-3.3,200,1,8,154.308,0,10,1,-150,100,1,2021-03-11 17:40:00
8,1,175.747,0,730,2058,2857,4205,701,-3.3,200,1,2,176.532,1,10,0,-150,100,1,2021-03-11 17:40:00
9,0,204.352,0,460,1105,2857,4205,1001,0.0,200,0,8,205.106,1,10,0,-150,100,1,2021-03-11 17:40:00
10,0,217.223,0,460,1105,2857,4205,901,-10.0,200,0,8,218.446,1,10,0,-150,100,1,2021-03-11 17:40:00
11,0,228.344,0,730,2058,2857,4205,501,-6.7,200,1,2,229.535,1,10,0,-150,100,1,2021-03-11 17:40:00
12,0,242.257,0,460,1105,2857,4205,1001,10.0,200,0,2,243.122,0,10,1,-150,100,1,2021-03-11 17:40:00
13,1,247.219,0,460,1105,2857,4205,1001,10.0,200,0,2,248.203,0,10,0,-150,100,1,2021-03-11 17:40:00
14,1,252.218,0,460,1105,2857,4205,1001,10.0,200,0,8,253.003,1,10,0,-150,100,1,2021-03-11 17:40:00
15,0,267.262,0,460,1105,2857,4205,801,3.3,200,0,2,268.075,0,10,0,-150,100,1,2021-03-11 17:40:00
16,1,271.919,0,460,1105,2857,4205,801,3.3,200,0,2,272.77,0,10,0,-150,100,1,2021-03-11 17:40:00
17,1,277.464,0,460,1105,2857,4205,801,3.3,200,0,8,278.674,1,10,0,-150,100,1,2021-03-11 17:40:00
18,0,295.667,0,730,2058,2857,4205,601,3.3,200,1,2,297.853,1,10,0,-150,100,1,2021-03-11 17:40:00
19,0,310.683,0,730,2058,2857,4205,701,-10.0,200,1,8,311.825,0,10,1,-150,100,1,2021-03-11 17:40:00
20,1,332.521,0,730,2058,2857,4205,701,-10.0,200,1,2,333.359,1,10,0,-150,100,1,2021-03-11 17:40:00
21,0,346.591,0,730,2058,2857,4205,501,-3.3,200,1,2,347.38,1,10,1,-150,100,1,2021-03-11 17:40:00
22,0,359.756,0,460,1105,2857,4205,1001,-6.7,200,0,8,360.702,1,10,1,-150,100,1,2021-03-11 17:40:00
23,0,374.876,0,730,2058,2857,4205,901,0.0,200,1,2,375.685,1,10,0,-150,100,1,2021-03-11 17:40:00
24,0,388.444,0,730,2058,2857,4205,801,6.7,200,1,2,389.426,1,10,1,-150,100,1,2021-03-11 17:40:00
25,0,401.973,0,460,1105,2857,4205,701,6.7,200,0,2,402.886,0,10,1,-150,100,1,2021-03-11 17:40:00
26,1,408.652,0,460,1105,2857,4205,701,6.7,200,0,8,409.524,1,10,0,-150,100,1,2021-03-11 17:40:00
27,0,431.771,0,460,1105,2857,4205,501,-3.3,200,0,8,433.14,1,10,0,-150,100,1,2021-03-11 17:40:00
28,0,454.311,0,460,1105,2857,4205,1001,-10.0,200,0,8,455.086,1,10,0,-150,100,1,2021-03-11 17:40:00
29,0,470.242,0,730,2058,2857,4205,601,10.0,200,1,2,471.392,1,10,0,-150,100,1,2021-03-11 17:40:00
30,0,509.067,0,460,1105,2857,4205,901,0.0,200,0,2,509.9,0,10,1,-150,100,1,2021-03-11 17:40:00
31,1,519.805,0,460,1105,2857,4205,901,0.0,200,0,8,520.8,1,10,0,-150,100,1,2021-03-11 17:40:00
32,0,531.205,0,730,2058,2857,4205,701,3.3,200,1,8,532.049,0,10,1,-150,100,1,2021-03-11 17:40:00
33,1,590.006,0,730,2058,2857,4205,701,3.3,200,1,2,591.168,1,10,0,-150,100,1,2021-03-11 17:40:00
34,0,599.145,0,730,2058,2857,4205,801,6.7,200,1,8,599.862,0,10,1,-150,100,1,2021-03-11 17:40:00
35,1,607.214,0,730,2058,2857,4205,801,6.7,200,1,8,608.22,0,10,0,-150,100,1,2021-03-11 17:40:00
36,1,615.996,0,730,2058,2857,4205,801,6.7,200,1,8,616.653,0,10,0,-150,100,1,2021-03-11 17:40:00
37,1,621.297,0,730,2058,2857,4205,801,6.7,200,1,2,622.309,1,10,0,-150,100,1,2021-03-11 17:40:00
38,0,642.904,0,730,2058,2857,4205,901,10.0,200,1,2,643.626,1,10,0,-150,100,1,2021-03-11 17:40:00
39,0,654.264,0,460,1105,2857,4205,601,3.3,200,0,2,655.007,0,10,0,-150,100,1,2021-03-11 17:40:00
40,1,662.165,0,460,1105,2857,4205,601,3.3,200,0,8,662.93,1,10,0,-150,100,1,2021-03-11 17:40:00
41,0,702.35,0,730,2058,2857,4205,801,-10.0,200,1,2,703.142,1,10,0,-150,100,1,2021-03-11 17:40:00
42,0,717.179,0,460,1105,2857,4205,1001,-3.3,200,0,8,717.959,1,10,1,-150,100,1,2021-03-11 17:40:00
43,0,727.537,0,460,1105,2857,4205,701,-6.7,200,0,8,728.292,1,10,0,-150,100,1,2021-03-11 17:40:00
44,0,798.601,0,730,2058,2857,4205,1001,-3.3,200,1,2,799.316,1,10,1,-150,100,1,2021-03-11 17:40:00
45,0,809.002,0,460,1105,2857,4205,501,3.3,200,0,2,809.807,0,10,1,-150,100,1,2021-03-11 17:40:00
1,0,29.04,0,460,1105,2857,4205,801,-3.3,200,0,8,29.926,1,10,1,-150,100,1,2021-03-11 12:35:00
2,0,47.226,0,730,2058,2857,4205,1001,0.0,200,1,8,48.089,0,10,1,-150,100,1,2021-03-11 12:35:00
3,1,53.22,0,730,2058,2857,4205,1001,0.0,200,1,8,54.362,0,10,0,-150,100,1,2021-03-11 12:35:00
4,1,58.855,0,730,2058,2857,4205,1001,0.0,200,1,2,60.04,1,10,0,-150,100,1,2021-03-11 12:35:00
5,0,71.489,0,730,2058,2857,4205,701,6.7,200,1,8,73.347,0,10,1,-150,100,1,2021-03-11 12:35:00
6,1,81.489,0,730,2058,2857,4205,701,6.7,200,1,8,83.169,0,10,0,-150,100,1,2021-03-11 12:35:00
7,1,86.9,0,730,2058,2857,4205,701,6.7,200,1,2,88.579,1,10,0,-150,100,1,2021-03-11 12:35:00
8,0,101.192,0,730,2058,2857,4205,501,3.3,200,1,2,102.311,1,10,0,-150,100,1,2021-03-11 12:35:00
9,0,112.894,0,460,1105,2857,4205,901,-6.7,200,0,8,113.973,1,10,0,-150,100,1,2021-03-11 12:35:00
10,0,124.786,0,730,2058,2857,4205,901,10.0,200,1,2,125.677,1,10,0,-150,100,1,2021-03-11 12:35:00
11,0,140.791,0,460,1105,2857,4205,701,10.0,200,0,2,141.915,0,10,1,-150,100,1,2021-03-11 12:35:00
12,1,155.84,0,460,1105,2857,4205,701,10.0,200,0,2,163.22,0,10,0,-150,100,1,2021-03-11 12:35:00
13,1,167.007,0,460,1105,2857,4205,701,10.0,200,0,2,168.517,0,10,0,-150,100,1,2021-03-11 12:35:00
14,1,173.071,0,460,1105,2857,4205,701,10.0,200,0,8,174.453,1,10,0,-150,100,1,2021-03-11 12:35:00
15,0,193.981,0,460,1105,2857,4205,801,-10.0,200,0,2,195.982,0,10,0,-150,100,1,2021-03-11 12:35:00
16,1,203.334,0,460,1105,2857,4205,801,-10.0,200,0,8,204.241,1,10,0,-150,100,1,2021-03-11 12:35:00
17,0,220.002,0,730,2058,2857,4205,601,-3.3,200,1,2,220.884,1,10,0,-150,100,1,2021-03-11 12:35:00
18,0,234.992,0,730,2058,2857,4205,1001,3.3,200,1,2,235.671,1,10,1,-150,100,1,2021-03-11 12:35:00
19,0,248.126,0,460,1105,2857,4205,801,-6.7,200,0,8,248.857,1,10,1,-150,100,1,2021-03-11 12:35:00
20,0,266.99,0,460,1105,2857,4205,1001,6.7,200,0,8,268.256,1,10,1,-150,100,1,2021-03-11 12:35:00
21,0,282.17,0,730,2058,2857,4205,601,-3.3,200,1,2,283.244,1,10,0,-150,100,1,2021-03-11 12:35:00
22,0,300.551,0,460,1105,2857,4205,901,0.0,200,0,8,301.715,1,10,0,-150,100,1,2021-03-11 12:35:00
23,0,333.984,0,460,1105,2857,4205,701,3.3,200,0,8,334.844,1,10,0,-150,100,1,2021-03-11 12:35:00
24,0,344.774,0,730,2058,2857,4205,1001,-10.0,200,1,2,346.355,1,10,1,-150,100,1,2021-03-11 12:35:00
25,0,354.758,0,460,1105,2857,4205,501,-6.7,200,0,8,355.787,1,10,1,-150,100,1,2021-03-11 12:35:00
26,0,371.382,0,460,1105,2857,4205,901,10.0,200,0,2,372.316,0,10,0,-150,100,1,2021-03-11 12:35:00
27,1,379.083,0,460,1105,2857,4205,901,10.0,200,0,8,380.263,1,10,0,-150,100,1,2021-03-11 12:35:00
28,0,393.287,0,730,2058,2857,4205,701,3.3,200,1,2,394.2,1,10,1,-150,100,1,2021-03-11 12:35:00
29,0,404.709,0,730,2058,2857,4205,801,0.0,200,1,2,405.489,1,10,0,-150,100,1,2021-03-11 12:35:00
30,0,415.727,0,730,2058,2857,4205,1001,10.0,200,1,2,416.387,1,10,0,-150,100,1,2021-03-11 12:35:00
31,0,426.899,0,460,1105,2857,4205,501,-10.0,200,0,8,427.697,1,10,0,-150,100,1,2021-03-11 12:35:00
32,0,443.644,0,460,1105,2857,4205,701,-6.7,200,0,8,444.525,1,10,1,-150,100,1,2021-03-11 12:35:00
33,0,456.395,0,730,2058,2857,4205,901,6.7,200,1,2,457.283,1,10,1,-150,100,1,2021-03-11 12:35:00
34,0,467.166,0,460,1105,2857,4205,601,-10.0,200,0,2,468.019,0,10,1,-150,100,1,2021-03-11 12:35:00
35,1,474.323,0,460,1105,2857,4205,601,-10.0,200,0,8,475.638,1,10,0,-150,100,1,2021-03-11 12:35:00
36,0,491.412,0,460,1105,2857,4205,901,6.7,200,0,8,492.722,1,10,0,-150,100,1,2021-03-11 12:35:00
37,0,506.636,0,730,2058,2857,4205,801,-6.7,200,1,2,507.497,1,10,1,-150,100,1,2021-03-11 12:35:00
38,0,518.297,0,730,2058,2857,4205,1001,10.0,200,1,2,519.117,1,10,0,-150,100,1,2021-03-11 12:35:00
39,0,527.841,0,730,2058,2857,4205,601,0.0,200,1,2,528.795,1,10,1,-150,100,1,2021-03-11 12:35:00
40,0,538.69,0,460,1105,2857,4205,501,3.3,200,0,2,539.789,0,10,1,-150,100,1,2021-03-11 12:35:00
41,1,547.07,0,460,1105,2857,4205,501,3.3,200,0,2,549.587,0,10,0,-150,100,1,2021-03-11 12:35:00
42,1,555.804,0,460,1105,2857,4205,501,3.3,200,0,8,556.906,1,10,0,-150,100,1,2021-03-11 12:35:00
43,0,573.563,0,730,2058,2857,4205,1001,-6.7,200,1,2,574.337,1,10,0,-150,100,1,2021-03-11 12:35:00
44,0,586.006,0,460,1105,2857,4205,701,10.0,200,0,2,586.743,0,10,0,-150,100,1,2021-03-11 12:35:00
45,1,593.192,0,460,1105,2857,4205,701,10.0,200,0,8,594.171,1,10,0,-150,100,1,2021-03-11 12:35:00
46,0,606.147,0,730,2058,2857,4205,501,-10.0,200,1,8,606.941,0,10,1,-150,100,1,2021-03-11 12:35:00
47,1,613.658,0,730,2058,2857,4205,501,-10.0,200,1,2,614.66,1,10,0,-150,100,1,2021-03-11 12:35:00
48,0,624.859,0,460,1105,2857,4205,601,0.0,200,0,2,625.744,0,10,0,-150,100,1,2021-03-11 12:35:00
49,1,629.925,0,460,1105,2857,4205,601,0.0,200,0,8,632.513,1,10,0,-150,100,1,2021-03-11 12:35:00
50,0,647.9,0,730,2058,2857,4205,801,-3.3,200,1,2,648.59,1,10,0,-150,100,1,2021-03-11 12:35:00
51,0,658.898,0,460,1105,2857,4205,601,6.7,200,0,2,659.735,0,10,0,-150,100,1,2021-03-11 12:35:00
52,1,672.503,0,460,1105,2857,4205,601,6.7,200,0,8,673.323,1,10,0,-150,100,1,2021-03-11 12:35:00
53,0,692.52,0,460,1105,2857,4205,1001,0.0,200,0,2,693.232,0,10,1,-150,100,1,2021-03-11 12:35:00
54,1,700.579,0,460,1105,2857,4205,1001,0.0,200,0,8,701.579,1,10,0,-150,100,1,2021-03-11 12:35:00
55,0,712.323,0,730,2058,2857,4205,701,3.3,200,1,2,713.465,1,10,1,-150,100,1,2021-03-11 12:35:00
56,0,723.577,0,460,1105,2857,4205,801,10.0,200,0,2,724.379,0,10,1,-150,100,1,2021-03-11 12:35:00
57,1,732.238,0,460,1105,2857,4205,801,10.0,200,0,8,732.914,1,10,0,-150,100,1,2021-03-11 12:35:00
58,0,745.861,0,730,2058,2857,4205,901,6.7,200,1,2,746.474,1,10,0,-150,100,1,2021-03-11 12:35:00
59,0,761.217,0,730,2058,2857,4205,801,-6.7,200,1,8,762.044,0,10,1,-150,100,1,2021-03-11 12:35:00
60,1,766.377,0,730,2058,2857,4205,801,-6.7,200,1,8,767.072,0,10,0,-150,100,1,2021-03-11 12:35:00
61,1,770.92,0,730,2058,2857,4205,801,-6.7,200,1,2,771.633,1,10,0,-150,100,1,2021-03-11 12:35:00
62,0,780.865,0,460,1105,2857,4205,601,-10.0,200,0,8,781.591,1,10,1,-150,100,1,2021-03-11 12:35:00
63,0,795.179,0,460,1105,2857,4205,701,3.3,200,0,8,796.085,1,10,0,-150,100,1,2021-03-11 12:35:00
64,0,807.805,0,460,1105,2857,4205,901,-10.0,200,0,8,808.349,1,10,1,-150,100,1,2021-03-11 12:35:00
65,0,822.904,0,460,1105,2857,4205,1001,-3.3,200,0,8,823.587,1,10,0,-150,100,1,2021-03-11 12:35:00
66,0,833.336,0,730,2058,2857,4205,501,6.7,200,1,2,834.41,1,10,0,-150,100,1,2021-03-11 12:35:00
67,0,845.303,0,730,2058,2857,4205,601,0.0,200,1,2,846.105,1,10,1,-150,100,1,2021-03-11 12:35:00
68,0,859.548,0,730,2058,2857,4205,801,-6.7,200,1,2,860.24,1,10,0,-150,100,1,2021-03-11 12:35:00
69,0,869.618,0,730,2058,2857,4205,1001,0.0,200,1,2,870.302,1,10,1,-150,100,1,2021-03-11 12:35:00
70,0,879.563,0,460,1105,2857,4205,701,3.3,200,0,2,880.39,0,10,1,-150,100,1,2021-03-11 12:35:00
71,1,884.114,0,460,1105,2857,4205,701,3.3,200,0,2,885.023,0,10,0,-150,100,1,2021-03-11 12:35:00
72,1,894.603,0,460,1105,2857,4205,701,3.3,200,0,8,895.443,1,10,0,-150,100,1,2021-03-11 12:35:00
73,0,908.586,0,730,2058,2857,4205,801,-6.7,200,1,2,909.456,1,10,0,-150,100,1,2021-03-11 12:35:00
74,0,923.289,0,730,2058,2857,4205,1001,-10.0,200,1,2,924.117,1,10,0,-150,100,1,2021-03-11 12:35:00
75,0,932.548,0,460,1105,2857,4205,701,6.7,200,0,8,933.177,1,10,0,-150,100,1,2021-03-11 12:35:00
76,0,942.925,0,460,1105,2857,4205,501,10.0,200,0,8,943.91,1,10,1,-150,100,1,2021-03-11 12:35:00
77,0,952.111,0,460,1105,2857,4205,601,6.7,200,0,8,952.903,1,10,0,-150,100,1,2021-03-11 12:35:00
78,0,973.166,0,730,2058,2857,4205,701,-10.0,200,1,2,973.861,1,10,1,-150,100,1,2021-03-11 12:35:00
79,0,981.431,0,460,1105,2857,4205,501,-6.7,200,0,8,982.307,1,10,0,-150,100,1,2021-03-11 12:35:00
80,0,990.464,0,730,2058,2857,4205,601,0.0,200,1,8,991.3,0,10,1,-150,100,1,2021-03-11 12:35:00
81,1,998.053,0,730,2058,2857,4205,601,0.0,200,1,2,999.015,1,10,0,-150,100,1,2021-03-11 12:35:00
82,0,1007.836,0,460,1105,2857,4205,1001,10.0,200,0,2,1008.788,0,10,0,-150,100,1,2021-03-11 12:35:00
83,1,1017.64,0,460,1105,2857,4205,1001,10.0,200,0,2,1018.345,0,10,0,-150,100,1,2021-03-11 12:35:00
84,1,1025.319,0,460,1105,2857,4205,1001,10.0,200,0,8,1026.162,1,10,0,-150,100,1,2021-03-11 12:35:00
85,0,1035.851,0,460,1105,2857,4205,801,3.3,200,0,8,1036.635,1,10,1,-150,100,1,2021-03-11 12:35:00
86,0,1044.457,0,730,2058,2857,4205,601,10.0,200,1,2,1045.523,1,10,1,-150,100,1,2021-03-11 12:35:00
87,0,1057.379,0,730,2058,2857,4205,701,-6.7,200,1,8,1058.197,0,10,0,-150,100,1,2021-03-11 12:35:00
88,1,1065.299,0,730,2058,2857,4205,701,-6.7,200,1,2,1066.19,1,10,0,-150,100,1,2021-03-11 12:35:00
89,0,1078.743,0,730,2058,2857,4205,801,3.3,200,1,8,1079.544,0,10,0,-150,100,1,2021-03-11 12:35:00
90,1,1084.931,0,730,2058,2857,4205,801,3.3,200,1,2,1086.034,1,10,0,-150,100,1,2021-03-11 12:35:00
91,0,1094.436,0,460,1105,2857,4205,901,-10.0,200,0,8,1095.045,1,10,1,-150,100,1,2021-03-11 12:35:00
92,0,1103.493,0,460,1105,2857,4205,501,6.7,200,0,8,1104.475,1,10,1,-150,100,1,2021-03-11 12:35:00
93,0,1122.554,0,730,2058,2857,4205,1001,0.0,200,1,2,1123.42,1,10,0,-150,100,1,2021-03-11 12:35:00
94,0,1131.756,0,730,2058,2857,4205,801,-10.0,200,1,2,1132.469,1,10,0,-150,100,1,2021-03-11 12:35:00
95,0,1143.859,0,730,2058,2857,4205,601,10.0,200,1,2,1144.83,1,10,1,-150,100,1,2021-03-11 12:35:00
96,0,1154.333,0,460,1105,2857,4205,501,6.7,200,0,8,1155.127,1,10,1,-150,100,1,2021-03-11 12:35:00
97,0,1170.408,0,460,1105,2857,4205,701,-6.7,200,0,8,1171.436,1,10,0,-150,100,1,2021-03-11 12:35:00
98,0,1181.128,0,460,1105,2857,4205,501,-3.3,200,0,8,1181.83,1,10,0,-150,100,1,2021-03-11 12:35:00
99,0,1191.219,0,730,2058,2857,4205,601,3.3,200,1,2,1192.189,1,10,1,-150,100,1,2021-03-11 12:35:00
100,0,1208.417,0,730,2058,2857,4205,901,-10.0,200,1,2,1209.239,1,10,1,-150,100,1,2021-03-11 12:35:00
101,0,1219.589,0,460,1105,2857,4205,801,0.0,200,0,8,1220.284,1,10,1,-150,100,1,2021-03-11 12:35:00
102,0,1231.997,0,730,2058,2857,4205,1001,10.0,200,1,2,1233.044,1,10,0,-150,100,1,2021-03-11 12:35:00
103,0,1246.811,0,460,1105,2857,4205,901,6.7,200,0,2,1247.627,0,10,0,-150,100,1,2021-03-11 12:35:00
104,1,1256.249,0,460,1105,2857,4205,901,6.7,200,0,2,1257.033,0,10,0,-150,100,1,2021-03-11 12:35:00
105,1,1261.019,0,460,1105,2857,4205,901,6.7,200,0,2,1261.787,0,10,0,-150,100,1,2021-03-11 12:35:00
106,1,1265.72,0,460,1105,2857,4205,901,6.7,200,0,2,1267.169,0,10,0,-150,100,1,2021-03-11 12:35:00
107,1,1271.149,0,460,1105,2857,4205,901,6.7,200,0,8,1271.851,1,10,0,-150,100,1,2021-03-11 12:35:00
108,0,1282.498,0,460,1105,2857,4205,701,3.3,200,0,8,1283.594,1,10,0,-150,100,1,2021-03-11 12:35:00
109,0,1298.469,0,730,2058,2857,4205,501,-6.7,200,1,8,1299.628,0,10,1,-150,100,1,2021-03-11 12:35:00
110,1,1303.58,0,730,2058,2857,4205,501,-6.7,200,1,8,1304.667,0,10,0,-150,100,1,2021-03-11 12:35:00
111,1,1308.261,0,730,2058,2857,4205,501,-6.7,200,1,2,1309.333,1,10,0,-150,100,1,2021-03-11 12:35:00
112,0,1316.487,0,460,1105,2857,4205,601,3.3,200,0,2,1317.512,0,10,1,-150,100,1,2021-03-11 12:35:00
113,1,1326.519,0,460,1105,2857,4205,601,3.3,200,0,8,1327.496,1,10,0,-150,100,1,2021-03-11 12:35:00
114,0,1334.775,0,730,2058,2857,4205,801,6.7,200,1,2,1335.708,1,10,0,-150,100,1,2021-03-11 12:35:00
115,0,1343.084,0,460,1105,2857,4205,701,-10.0,200,0,8,1343.882,1,10,0,-150,100,1,2021-03-11 12:35:00
116,0,1359.63,0,730,2058,2857,4205,801,-6.7,200,1,2,1360.382,1,10,0,-150,100,1,2021-03-11 12:35:00
117,0,1370.674,0,460,1105,2857,4205,501,-3.3,200,0,2,1371.738,0,10,1,-150,100,1,2021-03-11 12:35:00
118,1,1380.187,0,460,1105,2857,4205,501,-3.3,200,0,8,1381.121,1,10,0,-150,100,1,2021-03-11 12:35:00
119,0,1394.614,0,460,1105,2857,4205,901,0.0,200,0,8,1395.46,1,10,0,-150,100,1,2021-03-11 12:35:00
120,0,1403.392,0,460,1105,2857,4205,601,-3.3,200,0,8,1404.126,1,10,1,-150,100,1,2021-03-11 12:35:00
121,0,1413.574,0,730,2058,2857,4205,601,3.3,200,1,8,1414.666,0,10,1,-150,100,1,2021-03-11 12:35:00
122,1,1418.82,0,730,2058,2857,4205,601,3.3,200,1,2,1419.922,1,10,0,-150,100,1,2021-03-11 12:35:00
123,0,1441.581,0,730,2058,2857,4205,1001,-10.0,200,1,2,1442.41,1,10,0,-150,100,1,2021-03-11 12:35:00
124,0,1455.874,0,730,2058,2857,4205,701,0.0,200,1,2,1456.698,1,10,1,-150,100,1,2021-03-11 12:35:00
125,0,1466.604,0,460,1105,2857,4205,501,10.0,200,0,8,1467.518,1,10,0,-150,100,1,2021-03-11 12:35:00
126,0,1483.877,0,460,1105,2857,4205,901,6.7,200,0,2,1484.771,0,10,1,-150,100,1,2021-03-11 12:35:00
127,1,1519.037,0,460,1105,2857,4205,901,6.7,200,0,-1,-1.0,0,10,0,-150,100,1,2021-03-11 12:35:00
128,0,1542.688,0,730,2058,2857,4205,901,-10.0,200,1,8,1543.569,0,10,1,-150,100,1,2021-03-11 12:35:00
129,1,1559.045,0,730,2058,2857,4205,901,-10.0,200,1,2,1559.83,1,10,0,-150,100,1,2021-03-11 12:35:00
130,0,1568.624,0,460,1105,2857,4205,801,0.0,200,0,2,1569.406,0,10,0,-150,100,1,2021-03-11 12:35:00
131,1,1576.68,0,460,1105,2857,4205,801,0.0,200,0,8,1577.589,1,10,0,-150,100,1,2021-03-11 12:35:00
132,0,1590.501,0,730,2058,2857,4205,601,6.7,200,1,2,1591.412,1,10,1,-150,100,1,2021-03-11 12:35:00
133,0,1599.423,0,460,1105,2857,4205,501,3.3,200,0,8,1600.568,1,10,1,-150,100,1,2021-03-11 12:35:00
134,0,1610.842,0,730,2058,2857,4205,701,10.0,200,1,2,1611.659,1,10,0,-150,100,1,2021-03-11 12:35:00
135,0,1622.426,0,730,2058,2857,4205,1001,-3.3,200,1,2,1623.067,1,10,0,-150,100,1,2021-03-11 12:35:00
136,0,1634.814,0,730,2058,2857,4205,701,-6.7,200,1,2,1635.44,1,10,0,-150,100,1,2021-03-11 12:35:00
137,0,1647.285,0,730,2058,2857,4205,601,6.7,200,1,8,1648.165,0,10,1,-150,100,1,2021-03-11 12:35:00
138,1,1652.316,0,730,2058,2857,4205,601,6.7,200,1,2,1653.106,1,10,0,-150,100,1,2021-03-11 12:35:00
139,0,1663.491,0,460,1105,2857,4205,901,10.0,200,0,2,1664.165,0,10,0,-150,100,1,2021-03-11 12:35:00
140,1,1668.655,0,460,1105,2857,4205,901,10.0,200,0,2,1670.722,0,10,0,-150,100,1,2021-03-11 12:35:00
141,1,1674.635,0,460,1105,2857,4205,901,10.0,200,0,2,1675.398,0,10,0,-150,100,1,2021-03-11 12:35:00
142,1,1684.678,0,460,1105,2857,4205,901,10.0,200,0,8,1685.528,1,10,0,-150,100,1,2021-03-11 12:35:00
143,0,1698.886,0,460,1105,2857,4205,501,-3.3,200,0,8,1699.67,1,10,1,-150,100,1,2021-03-11 12:35:00
144,0,1708.142,0,460,1105,2857,4205,601,3.3,200,0,8,1709.169,1,10,0,-150,100,1,2021-03-11 12:35:00
145,0,1729.239,0,730,2058,2857,4205,1001,-10.0,200,1,2,1729.91,1,10,1,-150,100,1,2021-03-11 12:35:00
146,0,1743.109,0,730,2058,2857,4205,801,0.0,200,1,2,1743.942,1,10,0,-150,100,1,2021-03-11 12:35:00
147,0,1751.764,0,460,1105,2857,4205,701,-6.7,200,0,8,1752.353,1,10,1,-150,100,1,2021-03-11 12:35:00
148,0,1767.211,0,730,2058,2857,4205,901,3.3,200,1,2,1767.868,1,10,0,-150,100,1,2021-03-11 12:35:00
149,0,1802.105,0,460,1105,2857,4205,1001,-10.0,200,0,2,1802.865,0,10,1,-150,100,1,2021-03-11 12:35:00
150,1,1806.927,0,460,1105,2857,4205,1001,-10.0,200,0,2,1808.361,0,10,0,-150,100,1,2021-03-11 12:35:00
151,1,1821.334,0,460,1105,2857,4205,1001,-10.0,200,0,2,1822.351,0,10,0,-150,100,1,2021-03-11 12:35:00
152,1,1832.593,0,460,1105,2857,4205,1001,-10.0,200,0,8,1833.692,1,10,0,-150,100,1,2021-03-11 12:35:00
153,0,1844.3,0,460,1105,2857,4205,501,6.7,200,0,2,1845.241,0,10,1,-150,100,1,2021-03-11 12:35:00
154,1,1850.024,0,460,1105,2857,4205,501,6.7,200,0,2,1850.872,0,10,0,-150,100,1,2021-03-11 12:35:00
155,1,1860.486,0,460,1105,2857,4205,501,6.7,200,0,2,1861.282,0,10,0,-150,100,1,2021-03-11 12:35:00
156,1,1864.827,0,460,1105,2857,4205,501,6.7,200,0,2,1865.404,0,10,0,-150,100,1,2021-03-11 12:35:00
157,1,1868.932,0,460,1105,2857,4205,501,6.7,200,0,2,1869.601,0,10,0,-150,100,1,2021-03-11 12:35:00
158,1,1873.128,0,460,1105,2857,4205,501,6.7,200,0,2,1874.029,0,10,0,-150,100,1,2021-03-11 12:35:00
159,1,1877.627,0,460,1105,2857,4205,501,6.7,200,0,8,1878.472,1,10,0,-150,100,1,2021-03-11 12:35:00
160,0,1894.917,0,730,2058,2857,4205,901,-3.3,200,1,2,1895.612,1,10,1,-150,100,1,2021-03-11 12:35:00
161,0,1905.214,0,730,2058,2857,4205,701,-10.0,200,1,2,1906.016,1,10,1,-150,100,1,2021-03-11 12:35:00
162,0,1916.155,0,460,1105,2857,4205,801,-6.7,200,0,8,1916.879,1,10,0,-150,100,1,2021-03-11 12:35:00
163,0,1926.956,0,730,2058,2857,4205,601,0.0,200,1,2,1927.595,1,10,0,-150,100,1,2021-03-11 12:35:00
164,0,1942.12,0,460,1105,2857,4205,901,6.7,200,0,8,1943.126,1,10,0,-150,100,1,2021-03-11 12:35:00
165,0,1954.793,0,460,1105,2857,4205,501,3.3,200,0,2,1955.636,0,10,1,-150,100,1,2021-03-11 12:35:00
166,1,1962.688,0,460,1105,2857,4205,501,3.3,200,0,8,1963.607,1,10,0,-150,100,1,2021-03-11 12:35:00
167,0,1974.529,0,730,2058,2857,4205,701,10.0,200,1,2,1975.167,1,10,0,-150,100,1,2021-03-11 12:35:00
168,0,1984.078,0,730,2058,2857,4205,801,-3.3,200,1,2,1984.891,1,10,1,-150,100,1,2021-03-11 12:35:00
169,0,2005.427,0,460,1105,2857,4205,901,-6.7,200,0,2,2006.217,0,10,0,-150,100,1,2021-03-11 12:35:00
170,1,2023.78,0,460,1105,2857,4205,901,-6.7,200,0,8,2024.476,1,10,0,-150,100,1,2021-03-11 12:35:00
171,0,2036.746,0,730,2058,2857,4205,701,0.0,200,1,2,2037.509,1,10,0,-150,100,1,2021-03-11 12:35:00
172,0,2052.087,0,460,1105,2857,4205,801,3.3,200,0,8,2052.9,1,10,0,-150,100,1,2021-03-11 12:35:00
173,0,2063.147,0,460,1105,2857,4205,501,10.0,200,0,8,2064.069,1,10,1,-150,100,1,2021-03-11 12:35:00
174,0,2075.977,0,730,2058,2857,4205,601,6.7,200,1,2,2076.668,1,10,1,-150,100,1,2021-03-11 12:35:00
175,0,2088.793,0,460,1105,2857,4205,901,0.0,200,0,2,2090.527,0,10,0,-150,100,1,2021-03-11 12:35:00
176,1,2107.965,0,460,1105,2857,4205,901,0.0,200,0,2,2108.634,0,10,0,-150,100,1,2021-03-11 12:35:00
177,1,2115.72,0,460,1105,2857,4205,901,0.0,200,0,8,2116.694,1,10,0,-150,100,1,2021-03-11 12:35:00
178,0,2127.422,0,460,1105,2857,4205,601,6.7,200,0,8,2128.264,1,10,0,-150,100,1,2021-03-11 12:35:00
179,0,2135.255,0,730,2058,2857,4205,801,3.3,200,1,8,2136.32,0,10,0,-150,100,1,2021-03-11 12:35:00
180,1,2144.002,0,730,2058,2857,4205,801,3.3,200,1,2,2144.761,1,10,0,-150,100,1,2021-03-11 12:35:00
181,0,2155.77,0,730,2058,2857,4205,701,-3.3,200,1,2,2156.844,1,10,1,-150,100,1,2021-03-11 12:35:00
182,0,2173.726,0,730,2058,2857,4205,1001,-6.7,200,1,2,2174.62,1,10,0,-150,100,1,2021-03-11 12:35:00
183,0,2185.41,0,730,2058,2857,4205,901,10.0,200,1,2,2186.191,1,10,1,-150,100,1,2021-03-11 12:35:00
184,0,2206.759,0,460,1105,2857,4205,1001,10.0,200,0,2,2207.483,0,10,1,-150,100,1,2021-03-11 12:35:00
185,1,2213.112,0,460,1105,2857,4205,1001,10.0,200,0,8,2214.06,1,10,0,-150,100,1,2021-03-11 12:35:00
186,0,2223.129,0,460,1105,2857,4205,701,-10.0,200,0,8,2223.928,1,10,1,-150,100,1,2021-03-11 12:35:00
187,0,2234.928,0,730,2058,2857,4205,601,0.0,200,1,2,2235.525,1,10,0,-150,100,1,2021-03-11 12:35:00
188,0,2248.016,0,730,2058,2857,4205,801,3.3,200,1,2,2248.933,1,10,1,-150,100,1,2021-03-11 12:35:00
189,0,2264.343,0,460,1105,2857,4205,601,-3.3,200,0,8,2265.144,1,10,1,-150,100,1,2021-03-11 12:35:00
190,0,2279.82,0,460,1105,2857,4205,901,6.7,200,0,8,2280.711,1,10,0,-150,100,1,2021-03-11 12:35:00
191,0,2290.424,0,460,1105,2857,4205,701,-6.7,200,0,8,2291.127,1,10,1,-150,100,1,2021-03-11 12:35:00
192,0,2312.841,0,460,1105,2857,4205,1001,3.3,200,0,8,2313.864,1,10,0,-150,100,1,2021-03-11 12:35:00
193,0,2322.819,0,730,2058,2857,4205,801,6.7,200,1,2,2323.574,1,10,0,-150,100,1,2021-03-11 12:35:00
194,0,2331.504,0,730,2058,2857,4205,601,-3.3,200,1,2,2332.535,1,10,1,-150,100,1,2021-03-11 12:35:00
195,0,2352.083,0,460,1105,2857,4205,501,-10.0,200,0,8,2353.106,1,10,1,-150,100,1,2021-03-11 12:35:00
196,0,2368.37,0,460,1105,2857,4205,701,0.0,200,0,2,2369.368,0,10,1,-150,100,1,2021-03-11 12:35:00
197,1,2376.746,0,460,1105,2857,4205,701,0.0,200,0,8,2377.677,1,10,0,-150,100,1,2021-03-11 12:35:00
198,0,2391.23,0,730,2058,2857,4205,1001,-6.7,200,1,2,2391.852,1,10,1,-150,100,1,2021-03-11 12:35:00
199,0,2404.438,0,730,2058,2857,4205,901,-3.3,200,1,2,2405.12,1,10,1,-150,100,1,2021-03-11 12:35:00
200,0,2414.691,0,460,1105,2857,4205,501,3.3,200,0,8,2415.415,1,10,0,-150,100,1,2021-03-11 12:35:00
201,0,2425.587,0,730,2058,2857,4205,601,0.0,200,1,2,2426.54,1,10,0,-150,100,1,2021-03-11 12:35:00
202,0,2449.149,0,460,1105,2857,4205,901,6.7,200,0,8,2449.963,1,10,0,-150,100,1,2021-03-11 12:35:00
203,0,2459.856,0,730,2058,2857,4205,801,10.0,200,1,8,2460.929,0,10,0,-150,100,1,2021-03-11 12:35:00
204,1,2467.83,0,730,2058,2857,4205,801,10.0,200,1,2,2468.661,1,10,0,-150,100,1,2021-03-11 12:35:00
205,0,2476.249,0,460,1105,2857,4205,701,0.0,200,0,8,2477.009,1,10,1,-150,100,1,2021-03-11 12:35:00
206,0,2492.862,0,730,2058,2857,4205,801,-3.3,200,1,2,2493.563,1,10,0,-150,100,1,2021-03-11 12:35:00
207,0,2508.421,0,730,2058,2857,4205,701,-10.0,200,1,2,2509.05,1,10,1,-150,100,1,2021-03-11 12:35:00
208,0,2516.855,0,730,2058,2857,4205,501,3.3,200,1,2,2517.552,1,10,1,-150,100,1,2021-03-11 12:35:00
209,0,2525.726,0,730,2058,2857,4205,901,-6.7,200,1,8,2526.41,0,10,0,-150,100,1,2021-03-11 12:35:00
210,1,2533.401,0,730,2058,2857,4205,901,-6.7,200,1,2,2534.862,1,10,0,-150,100,1,2021-03-11 12:35:00
211,0,2543.179,0,460,1105,2857,4205,601,10.0,200,0,2,2544.05,0,10,1,-150,100,1,2021-03-11 12:35:00
212,1,2552.405,0,460,1105,2857,4205,601,10.0,200,0,8,2553.298,1,10,0,-150,100,1,2021-03-11 12:35:00
213,0,2573.59,0,460,1105,2857,4205,701,-6.7,200,0,2,2574.429,0,10,0,-150,100,1,2021-03-11 12:35:00
214,1,2618.576,0,460,1105,2857,4205,701,-6.7,200,0,8,2619.566,1,10,0,-150,100,1,2021-03-11 12:35:00
215,0,2641.512,0,460,1105,2857,4205,801,10.0,200,0,2,2643.452,0,10,0,-150,100,1,2021-03-11 12:35:00
216,1,2658.945,0,460,1105,2857,4205,801,10.0,200,0,2,2659.492,0,10,0,-150,100,1,2021-03-11 12:35:00
217,1,2668.106,0,460,1105,2857,4205,801,10.0,200,0,2,2668.997,0,10,0,-150,100,1,2021-03-11 12:35:00
218,1,2684.638,0,460,1105,2857,4205,801,10.0,200,0,2,2685.534,0,10,0,-150,100,1,2021-03-11 12:35:00
219,1,2700.607,0,460,1105,2857,4205,801,10.0,200,0,2,2701.383,0,10,0,-150,100,1,2021-03-11 12:35:00
220,1,2705.717,0,460,1105,2857,4205,801,10.0,200,0,8,2707.092,1,10,0,-150,100,1,2021-03-11 12:35:00
221,0,2726.865,0,730,2058,2857,4205,901,3.3,200,1,2,2727.672,1,10,0,-150,100,1,2021-03-11 12:35:00
222,0,2738.978,0,460,1105,2857,4205,1001,6.7,200,0,2,2740.539,0,10,0,-150,100,1,2021-03-11 12:35:00
1,0,18.445,0,730,2058,2857,4205,501,6.7,200,1,8,19.218,0,10,1,-150,100,1,2021-03-12 13:15:00
2,1,22.792,0,730,2058,2857,4205,501,6.7,200,1,2,23.324,1,10,0,-150,100,1,2021-03-12 13:15:00
3,0,33.535,0,730,2058,2857,4205,601,3.3,200,1,2,34.25,1,10,0,-150,100,1,2021-03-12 13:15:00
4,0,84.972,0,460,1105,2857,4205,801,10.0,200,0,2,85.664,0,10,1,-150,100,1,2021-03-12 13:15:00
5,1,92.587,0,460,1105,2857,4205,801,10.0,200,0,8,93.253,1,10,0,-150,100,1,2021-03-12 13:15:00
6,0,118.694,0,460,1105,2857,4205,901,0.0,200,0,8,119.326,1,10,0,-150,100,1,2021-03-12 13:15:00
7,0,132.296,0,460,1105,2857,4205,1001,-10.0,200,0,2,132.822,0,10,0,-150,100,1,2021-03-12 13:15:00
8,1,159.373,0,460,1105,2857,4205,1001,-10.0,200,0,2,159.949,0,10,0,-150,100,1,2021-03-12 13:15:00
9,1,167.003,0,460,1105,2857,4205,1001,-10.0,200,0,8,167.79,1,10,0,-150,100,1,2021-03-12 13:15:00
10,0,178.742,0,460,1105,2857,4205,701,-3.3,200,0,2,179.358,0,10,1,-150,100,1,2021-03-12 13:15:00
11,1,185.363,0,460,1105,2857,4205,701,-3.3,200,0,8,186.057,1,10,0,-150,100,1,2021-03-12 13:15:00
12,0,207.06,0,730,2058,2857,4205,801,-6.7,200,1,8,207.827,0,10,0,-150,100,1,2021-03-12 13:15:00
13,1,212.685,0,730,2058,2857,4205,801,-6.7,200,1,2,213.196,1,10,0,-150,100,1,2021-03-12 13:15:00
14,0,233.133,0,730,2058,2857,4205,1001,10.0,200,1,8,233.972,0,10,1,-150,100,1,2021-03-12 13:15:00
15,1,256.371,0,730,2058,2857,4205,1001,10.0,200,1,2,256.916,1,10,0,-150,100,1,2021-03-12 13:15:00
16,0,274.027,0,460,1105,2857,4205,601,-3.3,200,0,2,275.428,0,10,0,-150,100,1,2021-03-12 13:15:00
17,1,288.808,0,460,1105,2857,4205,601,-3.3,200,0,8,289.403,1,10,0,-150,100,1,2021-03-12 13:15:00
18,0,301.747,0,730,2058,2857,4205,501,3.3,200,1,2,302.514,1,10,0,-150,100,1,2021-03-12 13:15:00
19,0,321.803,0,730,2058,2857,4205,801,0.0,200,1,2,322.629,1,10,1,-150,100,1,2021-03-12 13:15:00
20,0,340.332,0,730,2058,2857,4205,701,6.7,200,1,2,340.95,1,10,1,-150,100,1,2021-03-12 13:15:00
21,0,356.927,0,460,1105,2857,4205,601,-6.7,200,0,8,357.564,1,10,0,-150,100,1,2021-03-12 13:15:00
22,0,370.471,0,460,1105,2857,4205,901,6.7,200,0,2,371.039,0,10,1,-150,100,1,2021-03-12 13:15:00
23,1,376.834,0,460,1105,2857,4205,901,6.7,200,0,8,377.685,1,10,0,-150,100,1,2021-03-12 13:15:00
24,0,409.702,0,460,1105,2857,4205,1001,3.3,200,0,2,410.623,0,10,1,-150,100,1,2021-03-12 13:15:00
25,1,428.836,0,460,1105,2857,4205,1001,3.3,200,0,8,429.575,1,10,0,-150,100,1,2021-03-12 13:15:00
26,0,440.466,0,730,2058,2857,4205,501,10.0,200,1,2,441.42,1,10,0,-150,100,1,2021-03-12 13:15:00
27,0,462.454,0,730,2058,2857,4205,1001,-3.3,200,1,2,462.977,1,10,1,-150,100,1,2021-03-12 13:15:00
28,0,477.364,0,460,1105,2857,4205,701,0.0,200,0,8,478.186,1,10,1,-150,100,1,2021-03-12 13:15:00
29,0,486.846,0,730,2058,2857,4205,601,10.0,200,1,2,487.371,1,10,0,-150,100,1,2021-03-12 13:15:00
30,0,499.946,0,460,1105,2857,4205,901,0.0,200,0,8,500.695,1,10,1,-150,100,1,2021-03-12 13:15:00
31,0,509.448,0,730,2058,2857,4205,501,-10.0,200,1,2,509.994,1,10,1,-150,100,1,2021-03-12 13:15:00
32,0,528.045,0,460,1105,2857,4205,1001,-6.7,200,0,8,528.638,1,10,0,-150,100,1,2021-03-12 13:15:00
33,0,538.692,0,460,1105,2857,4205,601,6.7,200,0,8,539.484,1,10,0,-150,100,1,2021-03-12 13:15:00
34,0,553.4,0,730,2058,2857,4205,901,3.3,200,1,2,553.88,1,10,0,-150,100,1,2021-03-12 13:15:00
35,0,564.894,0,730,2058,2857,4205,701,0.0,200,1,2,565.432,1,10,0,-150,100,1,2021-03-12 13:15:00
36,0,579.437,0,730,2058,2857,4205,701,-6.7,200,1,2,580.0,1,10,0,-150,100,1,2021-03-12 13:15:00
37,0,605.653,0,460,1105,2857,4205,801,3.3,200,0,8,606.404,1,10,0,-150,100,1,2021-03-12 13:15:00
38,0,632.898,0,730,2058,2857,4205,1001,10.0,200,1,8,633.516,0,10,1,-150,100,1,2021-03-12 13:15:00
39,1,641.341,0,730,2058,2857,4205,1001,10.0,200,1,2,642.429,1,10,0,-150,100,1,2021-03-12 13:15:00
40,0,662.304,0,460,1105,2857,4205,901,-3.3,200,0,8,662.945,1,10,1,-150,100,1,2021-03-12 13:15:00
41,0,673.85,0,730,2058,2857,4205,501,6.7,200,1,2,674.4,1,10,1,-150,100,1,2021-03-12 13:15:00
42,0,686.239,0,460,1105,2857,4205,501,0.0,200,0,8,686.973,1,10,1,-150,100,1,2021-03-12 13:15:00
43,0,708.102,0,460,1105,2857,4205,801,-6.7,200,0,8,708.672,1,10,0,-150,100,1,2021-03-12 13:15:00
44,0,729.674,0,730,2058,2857,4205,601,-10.0,200,1,2,730.192,1,10,1,-150,100,1,2021-03-12 13:15:00
45,0,761.911,0,460,1105,2857,4205,901,6.7,200,0,8,762.459,1,10,1,-150,100,1,2021-03-12 13:15:00
46,0,787.784,0,460,1105,2857,4205,1001,3.3,200,0,8,788.533,1,10,0,-150,100,1,2021-03-12 13:15:00
47,0,809.293,0,460,1105,2857,4205,701,10.0,200,0,2,809.946,0,10,0,-150,100,1,2021-03-12 13:15:00
48,1,819.802,0,460,1105,2857,4205,701,10.0,200,0,8,820.633,1,10,0,-150,100,1,2021-03-12 13:15:00
49,0,843.502,0,460,1105,2857,4205,801,-6.7,200,0,8,844.113,1,10,1,-150,100,1,2021-03-12 13:15:00
50,0,874.791,0,730,2058,2857,4205,1001,-10.0,200,1,2,875.339,1,10,0,-150,100,1,2021-03-12 13:15:00
51,0,894.683,0,730,2058,2857,4205,901,6.7,200,1,2,896.547,1,10,1,-150,100,1,2021-03-12 13:15:00
52,0,909.007,0,730,2058,2857,4205,601,0.0,200,1,2,909.777,1,10,0,-150,100,1,2021-03-12 13:15:00
53,0,923.038,0,730,2058,2857,4205,701,3.3,200,1,8,923.678,0,10,0,-150,100,1,2021-03-12 13:15:00
54,1,930.167,0,730,2058,2857,4205,701,3.3,200,1,2,931.015,1,10,0,-150,100,1,2021-03-12 13:15:00
55,0,971.189,0,460,1105,2857,4205,1001,-3.3,200,0,8,972.103,1,10,1,-150,100,1,2021-03-12 13:15:00
56,0,982.086,0,730,2058,2857,4205,901,6.7,200,1,2,982.685,1,10,1,-150,100,1,2021-03-12 13:15:00
57,0,1004.578,0,730,2058,2857,4205,801,-3.3,200,1,2,1005.244,1,10,1,-150,100,1,2021-03-12 13:15:00
58,0,1014.246,0,460,1105,2857,4205,501,10.0,200,0,2,1014.935,0,10,0,-150,100,1,2021-03-12 13:15:00
59,1,1018.496,0,460,1105,2857,4205,501,10.0,200,0,8,1019.345,1,10,0,-150,100,1,2021-03-12 13:15:00
60,0,1037.023,0,730,2058,2857,4205,801,-6.7,200,1,2,1039.283,1,10,0,-150,100,1,2021-03-12 13:15:00
61,0,1071.307,0,460,1105,2857,4205,701,-10.0,200,0,2,1071.773,0,10,0,-150,100,1,2021-03-12 13:15:00
62,1,1078.403,0,460,1105,2857,4205,701,-10.0,200,0,8,1079.045,1,10,0,-150,100,1,2021-03-12 13:15:00
63,0,1095.876,0,460,1105,2857,4205,501,3.3,200,0,2,1096.84,0,10,1,-150,100,1,2021-03-12 13:15:00
64,1,1103.45,0,460,1105,2857,4205,501,3.3,200,0,2,1104.111,0,10,0,-150,100,1,2021-03-12 13:15:00
65,1,1110.225,0,460,1105,2857,4205,501,3.3,200,0,8,1111.021,1,10,0,-150,100,1,2021-03-12 13:15:00
66,0,1120.346,0,460,1105,2857,4205,601,10.0,200,0,2,1121.016,0,10,0,-150,100,1,2021-03-12 13:15:00
67,1,1129.474,0,460,1105,2857,4205,601,10.0,200,0,8,1130.531,1,10,0,-150,100,1,2021-03-12 13:15:00
68,0,1148.035,0,730,2058,2857,4205,1001,6.7,200,1,2,1148.551,1,10,0,-150,100,1,2021-03-12 13:15:00
69,0,1173.648,0,730,2058,2857,4205,901,-3.3,200,1,2,1174.21,1,10,1,-150,100,1,2021-03-12 13:15:00
70,0,1187.058,0,460,1105,2857,4205,601,-10.0,200,0,8,1187.599,1,10,1,-150,100,1,2021-03-12 13:15:00
71,0,1200.241,0,460,1105,2857,4205,701,-6.7,200,0,2,1201.044,0,10,1,-150,100,1,2021-03-12 13:15:00
72,1,1206.946,0,460,1105,2857,4205,701,-6.7,200,0,8,1207.584,1,10,0,-150,100,1,2021-03-12 13:15:00
73,0,1232.729,0,730,2058,2857,4205,1001,3.3,200,1,2,1233.541,1,10,1,-150,100,1,2021-03-12 13:15:00
74,0,1242.291,0,730,2058,2857,4205,501,-10.0,200,1,2,1243.039,1,10,0,-150,100,1,2021-03-12 13:15:00
75,0,1252.07,0,460,1105,2857,4205,501,10.0,200,0,8,1252.933,1,10,0,-150,100,1,2021-03-12 13:15:00
76,0,1274.294,0,460,1105,2857,4205,1001,-6.7,200,0,8,1274.841,1,10,1,-150,100,1,2021-03-12 13:15:00
77,0,1300.378,0,730,2058,2857,4205,901,0.0,200,1,2,1300.946,1,10,0,-150,100,1,2021-03-12 13:15:00
78,0,1322.834,0,730,2058,2857,4205,601,-3.3,200,1,2,1323.411,1,10,0,-150,100,1,2021-03-12 13:15:00
79,0,1337.902,0,460,1105,2857,4205,801,3.3,200,0,2,1339.621,0,10,0,-150,100,1,2021-03-12 13:15:00
80,1,1372.924,0,460,1105,2857,4205,801,3.3,200,0,2,1373.674,0,10,0,-150,100,1,2021-03-12 13:15:00
81,1,1381.089,0,460,1105,2857,4205,801,3.3,200,0,2,1381.713,0,10,0,-150,100,1,2021-03-12 13:15:00
82,1,1387.601,0,460,1105,2857,4205,801,3.3,200,0,2,1388.287,0,10,0,-150,100,1,2021-03-12 13:15:00
83,1,1395.731,0,460,1105,2857,4205,801,3.3,200,0,8,1396.469,1,10,0,-150,100,1,2021-03-12 13:15:00
84,0,1409.888,0,460,1105,2857,4205,901,10.0,200,0,2,1410.581,0,10,0,-150,100,1,2021-03-12 13:15:00
85,1,1417.646,0,460,1105,2857,4205,901,10.0,200,0,2,1419.72,0,10,0,-150,100,1,2021-03-12 13:15:00
86,1,1427.409,0,460,1105,2857,4205,901,10.0,200,0,8,1428.116,1,10,0,-150,100,1,2021-03-12 13:15:00
87,0,1440.781,0,730,2058,2857,4205,601,-10.0,200,1,2,1441.368,1,10,1,-150,100,1,2021-03-12 13:15:00
88,0,1448.707,0,460,1105,2857,4205,701,-6.7,200,0,2,1449.252,0,10,1,-150,100,1,2021-03-12 13:15:00
89,1,1455.678,0,460,1105,2857,4205,701,-6.7,200,0,8,1456.541,1,10,0,-150,100,1,2021-03-12 13:15:00
90,0,1471.879,0,730,2058,2857,4205,1001,3.3,200,1,2,1473.654,1,10,1,-150,100,1,2021-03-12 13:15:00
91,0,1484.838,0,730,2058,2857,4205,801,6.7,200,1,2,1485.435,1,10,0,-150,100,1,2021-03-12 13:15:00
92,0,1499.667,0,730,2058,2857,4205,701,-3.3,200,1,8,1500.387,0,10,1,-150,100,1,2021-03-12 13:15:00
93,1,1504.784,0,730,2058,2857,4205,701,-3.3,200,1,2,1505.542,1,10,0,-150,100,1,2021-03-12 13:15:00
94,0,1532.112,0,730,2058,2857,4205,901,6.7,200,1,8,1532.867,0,10,1,-150,100,1,2021-03-12 13:15:00
95,1,1541.093,0,730,2058,2857,4205,901,6.7,200,1,2,1541.703,1,10,0,-150,100,1,2021-03-12 13:15:00
96,0,1552.275,0,460,1105,2857,4205,501,3.3,200,0,8,1553.001,1,10,0,-150,100,1,2021-03-12 13:15:00
97,0,1621.703,0,460,1105,2857,4205,1001,-3.3,200,0,8,1622.479,1,10,0,-150,100,1,2021-03-12 13:15:00
98,0,1634.663,0,460,1105,2857,4205,601,-6.7,200,0,2,1635.365,0,10,1,-150,100,1,2021-03-12 13:15:00
99,1,1646.055,0,460,1105,2857,4205,601,-6.7,200,0,8,1646.705,1,10,0,-150,100,1,2021-03-12 13:15:00
100,0,1689.094,0,730,2058,2857,4205,1001,10.0,200,1,8,1689.877,0,10,0,-150,100,1,2021-03-12 13:15:00
101,1,1696.706,0,730,2058,2857,4205,1001,10.0,200,1,2,1697.251,1,10,0,-150,100,1,2021-03-12 13:15:00
102,0,1715.022,0,460,1105,2857,4205,501,0.0,200,0,8,1715.674,1,10,1,-150,100,1,2021-03-12 13:15:00
103,0,1730.655,0,730,2058,2857,4205,901,6.7,200,1,2,1731.289,1,10,1,-150,100,1,2021-03-12 13:15:00
104,0,1740.193,0,730,2058,2857,4205,601,3.3,200,1,2,1740.895,1,10,1,-150,100,1,2021-03-12 13:15:00
105,0,1776.507,0,460,1105,2857,4205,801,0.0,200,0,8,1777.166,1,10,0,-150,100,1,2021-03-12 13:15:00
106,0,1789.402,0,460,1105,2857,4205,701,-10.0,200,0,8,1790.198,1,10,1,-150,100,1,2021-03-12 13:15:00
107,0,1814.66,0,460,1105,2857,4205,901,-6.7,200,0,8,1815.391,1,10,0,-150,100,1,2021-03-12 13:15:00
108,0,1835.555,0,460,1105,2857,4205,1001,10.0,200,0,2,1836.715,0,10,1,-150,100,1,2021-03-12 13:15:00
109,1,1851.449,0,460,1105,2857,4205,1001,10.0,200,0,2,1852.197,0,10,0,-150,100,1,2021-03-12 13:15:00
110,1,1857.142,0,460,1105,2857,4205,1001,10.0,200,0,8,1857.893,1,10,0,-150,100,1,2021-03-12 13:15:00
111,0,1867.079,0,730,2058,2857,4205,601,0.0,200,1,8,1867.893,0,10,0,-150,100,1,2021-03-12 13:15:00
112,1,1871.674,0,730,2058,2857,4205,601,0.0,200,1,8,1872.609,0,10,0,-150,100,1,2021-03-12 13:15:00
113,1,1876.435,0,730,2058,2857,4205,601,0.0,200,1,8,1877.49,0,10,0,-150,100,1,2021-03-12 13:15:00
114,1,1881.113,0,730,2058,2857,4205,601,0.0,200,1,2,1881.728,1,10,0,-150,100,1,2021-03-12 13:15:00
115,0,1889.758,0,730,2058,2857,4205,801,6.7,200,1,2,1890.34,1,10,0,-150,100,1,2021-03-12 13:15:00
116,0,1906.473,0,460,1105,2857,4205,701,-10.0,200,0,8,1907.287,1,10,0,-150,100,1,2021-03-12 13:15:00
117,0,1915.224,0,730,2058,2857,4205,901,3.3,200,1,2,1915.784,1,10,1,-150,100,1,2021-03-12 13:15:00
118,0,1944.991,0,730,2058,2857,4205,1001,10.0,200,1,8,1945.738,0,10,0,-150,100,1,2021-03-12 13:15:00
119,1,1975.982,0,730,2058,2857,4205,1001,10.0,200,1,2,1976.948,1,10,0,-150,100,1,2021-03-12 13:15:00
120,0,1992.86,0,730,2058,2857,4205,801,-6.7,200,1,2,1993.451,1,10,0,-150,100,1,2021-03-12 13:15:00
121,0,2004.253,0,460,1105,2857,4205,601,0.0,200,0,2,2005.007,0,10,1,-150,100,1,2021-03-12 13:15:00
122,1,2011.32,0,460,1105,2857,4205,601,0.0,200,0,8,2012.331,1,10,0,-150,100,1,2021-03-12 13:15:00
123,0,2026.384,0,460,1105,2857,4205,801,-6.7,200,0,8,2026.943,1,10,1,-150,100,1,2021-03-12 13:15:00
124,0,2039.286,0,460,1105,2857,4205,701,-10.0,200,0,8,2039.908,1,10,0,-150,100,1,2021-03-12 13:15:00
125,0,2048.81,0,730,2058,2857,4205,601,6.7,200,1,2,2049.417,1,10,1,-150,100,1,2021-03-12 13:15:00
126,0,2064.86,0,730,2058,2857,4205,1001,-3.3,200,1,2,2066.599,1,10,0,-150,100,1,2021-03-12 13:15:00
127,0,2082.277,0,460,1105,2857,4205,501,3.3,200,0,8,2083.124,1,10,1,-150,100,1,2021-03-12 13:15:00
128,0,2098.387,0,730,2058,2857,4205,701,6.7,200,1,2,2099.081,1,10,0,-150,100,1,2021-03-12 13:15:00
129,0,2107.984,0,730,2058,2857,4205,601,-3.3,200,1,2,2108.677,1,10,1,-150,100,1,2021-03-12 13:15:00
130,0,2119.032,0,460,1105,2857,4205,501,0.0,200,0,8,2119.675,1,10,0,-150,100,1,2021-03-12 13:15:00
131,0,2134.368,0,460,1105,2857,4205,801,-6.7,200,0,8,2134.986,1,10,0,-150,100,1,2021-03-12 13:15:00
132,0,2150.634,0,730,2058,2857,4205,901,-10.0,200,1,2,2152.468,1,10,1,-150,100,1,2021-03-12 13:15:00
133,0,2175.704,0,460,1105,2857,4205,801,3.3,200,0,2,2176.318,0,10,1,-150,100,1,2021-03-12 13:15:00
134,1,2200.012,0,460,1105,2857,4205,801,3.3,200,0,2,2200.759,0,10,0,-150,100,1,2021-03-12 13:15:00
1,0,7.552,0,730,2058,2857,4205,601,-13.0,200,1,8,8.694,0,10,1,-150,100,1,2021-03-10 12:17:00
2,1,12.302,0,730,2058,2857,4205,601,-13.0,200,1,8,13.091,0,10,1,-150,100,1,2021-03-10 12:17:00
3,1,18.921,0,730,2058,2857,4205,601,-13.0,200,1,8,19.556,0,10,1,-150,100,1,2021-03-10 12:17:00
4,1,23.202,0,730,2058,2857,4205,601,-13.0,200,1,2,23.739,1,10,1,-150,100,1,2021-03-10 12:17:00
5,0,37.42,0,460,1105,2857,4205,1001,-6.4,200,0,8,38.492,1,10,1,-150,100,1,2021-03-10 12:17:00
6,0,48.244,0,730,2058,2857,4205,901,-9.7,200,1,8,48.905,0,10,1,-150,100,1,2021-03-10 12:17:00
7,1,52.902,0,730,2058,2857,4205,901,-9.7,200,1,2,53.525,1,10,1,-150,100,1,2021-03-10 12:17:00
8,0,62.56,0,460,1105,2857,4205,501,0.1,200,0,2,63.297,0,10,1,-150,100,1,2021-03-10 12:17:00
9,1,69.222,0,460,1105,2857,4205,501,0.1,200,0,8,70.469,1,10,1,-150,100,1,2021-03-10 12:17:00
10,0,81.074,0,460,1105,2857,4205,701,10.0,200,0,2,81.799,0,10,1,-150,100,1,2021-03-10 12:17:00
11,1,87.568,0,460,1105,2857,4205,701,10.0,200,0,8,88.322,1,10,1,-150,100,1,2021-03-10 12:17:00
12,0,99.215,0,460,1105,2857,4205,701,-3.1,200,0,8,100.283,1,10,1,-150,100,1,2021-03-10 12:17:00
13,0,114.516,0,730,2058,2857,4205,901,3.4,200,1,2,115.087,1,10,1,-150,100,1,2021-03-10 12:17:00
14,0,124.406,0,730,2058,2857,4205,601,-9.7,200,1,2,125.451,1,10,1,-150,100,1,2021-03-10 12:17:00
15,0,132.46,0,730,2058,2857,4205,501,-3.1,200,1,8,133.677,0,10,1,-150,100,1,2021-03-10 12:17:00
16,1,140.504,0,730,2058,2857,4205,501,-3.1,200,1,8,141.659,0,10,1,-150,100,1,2021-03-10 12:17:00
17,1,147.9,0,730,2058,2857,4205,501,-3.1,200,1,8,149.289,0,10,1,-150,100,1,2021-03-10 12:17:00
18,1,152.81,0,730,2058,2857,4205,501,-3.1,200,1,2,153.403,1,10,1,-150,100,1,2021-03-10 12:17:00
19,0,166.736,0,460,1105,2857,4205,1001,-6.4,200,0,8,167.499,1,10,1,-150,100,1,2021-03-10 12:17:00
20,0,181.975,0,730,2058,2857,4205,1001,-13.0,200,1,8,182.758,0,10,1,-150,100,1,2021-03-10 12:17:00
21,1,189.501,0,730,2058,2857,4205,1001,-13.0,200,1,2,190.407,1,10,1,-150,100,1,2021-03-10 12:17:00
22,0,197.324,0,460,1105,2857,4205,801,6.7,200,0,8,198.036,1,10,1,-150,100,1,2021-03-10 12:17:00
23,0,207.825,0,460,1105,2857,4205,701,0.1,200,0,2,208.416,0,10,1,-150,100,1,2021-03-10 12:17:00
24,1,214.187,0,460,1105,2857,4205,701,0.1,200,0,8,214.883,1,10,1,-150,100,1,2021-03-10 12:17:00
25,0,229.006,0,730,2058,2857,4205,601,3.4,200,1,8,230.124,0,10,1,-150,100,1,2021-03-10 12:17:00
26,1,236.184,0,730,2058,2857,4205,601,3.4,200,1,8,236.922,0,10,1,-150,100,1,2021-03-10 12:17:00
27,1,243.967,0,730,2058,2857,4205,601,3.4,200,1,8,244.775,0,10,1,-150,100,1,2021-03-10 12:17:00
28,1,250.813,0,730,2058,2857,4205,601,3.4,200,1,2,251.939,1,10,1,-150,100,1,2021-03-10 12:17:00
29,0,271.611,0,730,2058,2857,4205,901,6.7,200,1,2,272.2,1,10,1,-150,100,1,2021-03-10 12:17:00
30,0,285.701,0,460,1105,2857,4205,901,3.4,200,0,8,286.365,1,10,1,-150,100,1,2021-03-10 12:17:00
31,0,310.661,0,730,2058,2857,4205,1001,-13.0,200,1,2,311.388,1,10,1,-150,100,1,2021-03-10 12:17:00
32,0,320.305,0,730,2058,2857,4205,701,-3.1,200,1,2,321.49,1,10,1,-150,100,1,2021-03-10 12:17:00
33,0,335.425,0,730,2058,2857,4205,501,0.1,200,1,2,336.355,1,10,1,-150,100,1,2021-03-10 12:17:00
34,0,354.882,0,730,2058,2857,4205,801,-9.7,200,1,8,355.737,0,10,1,-150,100,1,2021-03-10 12:17:00
35,1,362.817,0,730,2058,2857,4205,801,-9.7,200,1,8,363.874,0,10,1,-150,100,1,2021-03-10 12:17:00
36,1,367.715,0,730,2058,2857,4205,801,-9.7,200,1,2,368.4,1,10,1,-150,100,1,2021-03-10 12:17:00
37,0,380.031,0,460,1105,2857,4205,501,10.0,200,0,8,380.804,1,10,1,-150,100,1,2021-03-10 12:17:00
38,0,393.275,0,460,1105,2857,4205,901,10.0,200,0,8,394.18,1,10,1,-150,100,1,2021-03-10 12:17:00
39,0,406.137,0,460,1105,2857,4205,1001,-3.1,200,0,8,406.798,1,10,1,-150,100,1,2021-03-10 12:17:00
40,0,419.548,0,460,1105,2857,4205,601,0.1,200,0,8,420.42,1,10,1,-150,100,1,2021-03-10 12:17:00
41,0,431.224,0,460,1105,2857,4205,701,-13.0,200,0,8,431.986,1,10,1,-150,100,1,2021-03-10 12:17:00
42,0,443.336,0,460,1105,2857,4205,1001,-6.4,200,0,8,444.282,1,10,1,-150,100,1,2021-03-10 12:17:00
43,0,453.837,0,460,1105,2857,4205,601,-9.7,200,0,8,454.838,1,10,1,-150,100,1,2021-03-10 12:17:00
44,0,465.516,0,730,2058,2857,4205,901,3.4,200,1,2,466.486,1,10,1,-150,100,1,2021-03-10 12:17:00
45,0,475.068,0,460,1105,2857,4205,801,6.7,200,0,2,475.728,0,10,1,-150,100,1,2021-03-10 12:17:00
46,1,482.183,0,460,1105,2857,4205,801,6.7,200,0,8,483.013,1,10,1,-150,100,1,2021-03-10 12:17:00
47,0,493.322,0,730,2058,2857,4205,701,10.0,200,1,8,494.166,0,10,1,-150,100,1,2021-03-10 12:17:00
