Trial	CorrectionTrial?	StartTime	CenterReward?	SpkrIdx	SpkrPos	duration	HoldTime	Atten	Response	RespTime	Correct	ComputerTime	SoundOrLED	
7	0	1064.455	0	3	-60	700	1021	9.0	2	1072.850	0	736626.677392	0	
8	1	1111.653	0	3	-60	700	1021	9.0	6	1114.196	0	736626.677871	0	
9	0	1119.049	0	3	-60	700	1201	4.5	2	1125.304	0	736626.677999	0	
10	1	1152.354	1	3	-60	700	1201	4.5	4	1156.060	0	736626.678356	0	
11	1	1169.635	0	3	-60	700	1201	4.5	8	1171.623	0	736626.678535	0	
12	0	1176.847	0	4	-30	700	1141	9.0	4	1178.244	1	736626.678613	0	
13	0	1191.439	0	8	90	700	1181	0.0	8	1192.674	1	736626.678780	0	
14	0	1202.678	0	7	60	700	1081	4.5	4	1204.322	0	736626.678915	0	
15	1	1221.376	0	7	60	700	1081	4.5	8	1223.677	0	736626.679138	0	
16	1	1275.659	1	7	60	700	1081	4.5	8	1287.929	0	736626.679881	0	
17	1	1303.393	0	7	60	700	1081	4.5	6	1305.046	0	736626.680080	0	
18	1	1310.481	0	7	60	700	1081	4.5	6	1312.302	0	736626.680164	0	
19	1	1334.784	0	7	60	700	1081	4.5	8	1341.905	0	736626.680506	0	
20	1	1351.297	0	7	60	700	1081	4.5	6	1352.905	0	736626.680634	0	
21	1	1365.556	0	7	60	700	1081	4.5	7	1366.761	1	736626.680794	0	
22	0	1385.881	0	8	90	700	1041	0.0	7	1387.469	0	736626.681034	0	
23	1	1401.554	0	8	90	700	1041	0.0	8	1402.881	1	736626.681212	0	
24	0	1414.393	0	6	30	700	1061	9.0	7	1416.051	0	736626.681365	0	
25	1	1423.827	0	6	30	700	1061	9.0	8	1431.653	0	736626.681545	0	
26	1	1440.749	0	6	30	700	1061	9.0	8	1443.024	0	736626.681677	0	
27	1	1448.203	0	6	30	700	1061	9.0	7	1449.730	0	736626.681754	0	
28	0	1473.269	1	6	30	700	1161	9.0	3	1480.516	0	736626.682111	0	
29	1	1486.057	0	6	30	700	1161	9.0	4	1489.676	0	736626.682217	0	
30	1	1496.408	0	6	30	700	1161	9.0	8	1498.352	0	736626.682317	0	
31	1	1505.212	0	6	30	700	1161	9.0	8	1506.384	0	736626.682410	0	
32	0	1515.360	1	2	-90	700	1101	4.5	2	1520.162	1	736626.682570	0	
33	0	1531.995	0	2	-90	700	1081	4.5	4	1533.315	0	736626.682722	0	
34	1	1541.171	0	2	-90	700	1081	4.5	3	1542.910	0	736626.682833	0	
35	1	1548.134	0	2	-90	700	1081	4.5	2	1550.651	1	736626.682922	0	
36	0	1562.616	0	7	60	700	1201	0.0	8	1564.689	0	736626.683085	0	
37	1	1570.054	0	7	60	700	1201	0.0	8	1572.175	0	736626.683171	0	
38	1	1581.551	0	7	60	700	1201	0.0	8	1584.143	0	736626.683310	0	
39	1	1589.552	0	7	60	700	1201	0.0	7	1590.882	1	736626.683389	0	
40	0	1597.515	0	3	-60	700	1041	0.0	4	1598.827	0	736626.683480	0	
41	1	1603.984	1	3	-60	700	1041	0.0	2	1609.000	0	736626.683598	0	
42	1	1614.184	0	3	-60	700	1041	0.0	4	1615.623	0	736626.683674	0	
43	1	1620.784	0	3	-60	700	1041	0.0	4	1624.440	0	736626.683777	0	
44	1	1640.027	0	3	-60	700	1041	0.0	2	1641.636	0	736626.683975	0	
45	1	1646.785	0	3	-60	700	1041	0.0	4	1648.350	0	736626.684053	0	
46	0	1654.149	0	8	90	700	1161	9.0	8	1655.625	1	736626.684137	0	
47	0	1666.296	0	7	60	700	1001	0.0	7	1667.808	1	736626.684278	0	
48	0	1678.286	0	7	60	700	1121	9.0	4	1681.845	0	736626.684440	0	
49	1	1692.298	0	7	60	700	1121	9.0	8	1693.505	0	736626.684576	0	
50	1	1702.750	0	7	60	700	1121	9.0	6	1704.353	0	736626.684701	0	
51	1	1713.603	0	7	60	700	1121	9.0	8	1714.794	0	736626.684822	0	
52	1	1722.567	0	7	60	700	1121	9.0	2	1727.445	0	736626.684968	0	
53	1	1732.680	0	7	60	700	1121	9.0	6	1734.515	0	736626.685051	0	
54	1	1742.807	0	7	60	700	1121	9.0	4	1746.672	0	736626.685191	0	
55	1	1751.968	0	7	60	700	1121	9.0	8	1753.333	0	736626.685268	0	
56	1	1759.897	0	7	60	700	1121	9.0	8	1761.709	0	736626.685365	0	
57	0	1766.953	0	4	-30	700	1141	9.0	3	1768.200	0	736626.685441	0	
58	1	1773.500	0	4	-30	700	1141	9.0	2	1775.592	0	736626.685526	0	
59	1	1780.886	0	4	-30	700	1141	9.0	4	1782.376	1	736626.685604	0	
60	0	1793.600	0	6	30	700	1021	0.0	7	1795.203	0	736626.685752	0	
61	1	1801.525	0	6	30	700	1021	0.0	8	1804.768	0	736626.685864	0	
62	1	1814.782	0	6	30	700	1021	0.0	3	1816.313	0	736626.685997	0	
63	1	1821.488	0	6	30	700	1021	0.0	8	1823.424	0	736626.686080	0	
64	1	1864.011	0	6	30	700	1021	0.0	2	1872.002	0	736626.686642	0	
65	1	1913.726	0	6	30	700	1021	0.0	2	1917.427	0	736626.687168	0	
66	1	1925.034	0	6	30	700	1021	0.0	8	1927.944	0	736626.687289	0	
67	1	1933.090	0	6	30	700	1021	0.0	8	1934.434	0	736626.687364	0	
68	0	1945.299	0	6	30	700	1101	0.0	7	1947.135	0	736626.687511	0	
69	1	1966.680	0	6	30	700	1101	0.0	6	1968.143	1	736626.687754	0	
70	0	1990.183	0	2	-90	700	1181	9.0	3	1991.592	0	736626.688026	0	
71	1	1996.929	1	2	-90	700	1181	9.0	2	2000.393	1	736626.688128	0	
72	0	2010.385	0	8	90	700	1041	0.0	8	2012.137	1	736626.688263	0	
73	0	2024.773	0	2	-90	700	1141	9.0	4	2026.191	0	736626.688427	0	
74	1	2033.531	0	2	-90	700	1141	9.0	4	2035.009	0	736626.688528	0	
75	1	2040.297	0	2	-90	700	1141	9.0	4	2042.741	0	736626.688618	0	
76	1	2058.530	0	2	-90	700	1141	9.0	2	2062.867	1	736626.688851	0	
77	0	2078.699	0	3	-60	700	1001	4.5	6	2080.241	0	736626.689052	0	
78	1	2086.807	0	3	-60	700	1001	4.5	4	2088.580	0	736626.689149	0	
79	1	2093.756	0	3	-60	700	1001	4.5	4	2095.093	0	736626.689224	0	
80	1	2105.720	0	3	-60	700	1001	4.5	8	2109.146	0	736626.689386	0	
81	1	2124.593	0	3	-60	700	1001	4.5	3	2128.650	1	736626.689612	0	
82	0	2137.146	0	4	-30	700	1201	0.0	4	2138.365	1	736626.689725	0	
83	0	2148.959	0	7	60	700	1021	4.5	8	2150.032	0	736626.689859	0	
84	1	2161.642	0	7	60	700	1021	4.5	3	2165.390	0	736626.690037	0	
85	1	2170.572	0	7	60	700	1021	4.5	8	2171.887	0	736626.690113	0	
86	1	2177.500	0	7	60	700	1021	4.5	7	2181.714	1	736626.690227	0	
87	0	2199.012	1	4	-30	700	1061	0.0	6	2202.972	0	736626.690473	0	
88	1	2216.606	0	4	-30	700	1061	0.0	4	2220.024	1	736626.690670	0	
89	0	2227.932	0	3	-60	700	1101	4.5	3	2229.220	1	736626.690776	0	
90	0	2238.277	0	3	-60	700	1081	0.0	2	2240.205	0	736626.690903	0	
91	1	2245.433	0	3	-60	700	1081	0.0	4	2246.705	0	736626.690979	0	
92	1	2253.535	0	3	-60	700	1081	0.0	8	2255.125	0	736626.691076	0	
93	1	2260.521	0	3	-60	700	1081	0.0	3	2261.997	1	736626.691156	0	
94	0	2290.828	0	2	-90	700	1161	4.5	3	2292.787	0	736626.691512	0	
95	1	2310.382	0	2	-90	700	1161	4.5	8	2314.271	0	736626.691761	0	
96	1	2325.931	0	2	-90	700	1161	4.5	3	2327.183	0	736626.691910	0	
97	1	2376.329	0	2	-90	700	1161	4.5	-1	-1.000	0	736626.692652	0	
98	0	2396.605	0	8	90	700	1181	0.0	8	2401.500	1	736626.692771	0	
