Trial	CorrectionTrial?	StartTime	CenterReward?	F1	F2	F3	F4	HoldTime	Atten	Pitch	Side	Response	RespTime	Correct	Mask	
1	0	19.6424	0	936	1551	2975	4263	701	-7.5	200	0	1	23.7991		1	
2	1	33.3735	0	936	1551	2975	4263	701	-7.5	200	0	0	35.2390	1	1	
3	0	40.1612	0	936	1551	2975	4263	626	-7.5	200	0	0	41.7304	1	0	
4	0	46.8027	0	437	2761	2975	4263	651	-7.5	200	1	1	47.2883	1	0	
5	0	50.5359	0	936	1551	2975	4263	601	-7.5	200	0	0	51.9062	1	1	
6	0	56.7650	1	936	1551	2975	4263	751	-7.5	200	0	1	57.0891		1	
7	1	61.1859	0	936	1551	2975	4263	751	-7.5	200	0	1	62.1360		1	
8	1	68.3951	0	936	1551	2975	4263	751	-7.5	200	0	1	69.0585		1	
9	1	73.5840	0	936	1551	2975	4263	751	-7.5	200	0	0	75.0551	1	1	
10	0	80.1376	1	437	2761	2975	4263	526	-7.5	200	1	0	82.5652		1	
11	1	87.9157	1	437	2761	2975	4263	526	-7.5	200	1	1	89.8899	1	1	
12	0	93.4730	1	437	2761	2975	4263	576	-7.5	200	1	1	93.8578	1	0	
13	0	97.5592	0	437	2761	2975	4263	726	-7.5	200	1	1	99.7062	1	0	
14	0	105.8201	0	437	2761	2975	4263	551	-7.5	200	1	0	107.3913		1	
15	1	112.1192	1	437	2761	2975	4263	551	-7.5	200	1	1	112.6367	1	1	
16	0	116.0721	0	437	2761	2975	4263	501	-7.5	200	1	1	117.5173	1	1	
17	0	121.3371	1	936	1551	2975	4263	701	-7.5	200	0	0	122.1290	1	0	
18	0	127.0997	0	936	1551	2975	4263	576	-7.5	200	0	0	129.6220	1	0	
19	0	135.4307	0	437	2761	2975	4263	501	-7.5	200	1	1	136.4203	1	0	
20	0	140.1830	1	936	1551	2975	4263	626	-7.5	200	0	0	141.0182	1	0	
21	0	146.8907	0	936	1551	2975	4263	726	-7.5	200	0	1	148.4944		1	
22	1	155.6450	1	936	1551	2975	4263	726	-7.5	200	0	1	157.2825		1	
23	1	162.7109	0	936	1551	2975	4263	726	-7.5	200	0	0	164.6327	1	1	
24	0	170.6644	0	437	2761	2975	4263	751	-7.5	200	1	1	171.4139	1	1	
25	0	179.2518	0	936	1551	2975	4263	676	-7.5	200	0	0	180.9001	1	0	
26	0	186.7462	1	437	2761	2975	4263	651	-7.5	200	1	1	188.4193	1	0	
27	0	191.8186	0	437	2761	2975	4263	551	-7.5	200	1	0	192.8982		1	
28	1	198.3491	0	437	2761	2975	4263	551	-7.5	200	1	1	199.1030	1	1	
29	0	205.6443	0	437	2761	2975	4263	601	-7.5	200	1	1	206.6762	1	0	
30	0	210.5398	0	936	1551	2975	4263	751	-7.5	200	0	0	211.5865	1	1	
31	0	217.0900	0	936	1551	2975	4263	701	-7.5	200	0	0	218.0579	1	1	
32	0	223.9301	1	437	2761	2975	4263	726	-7.5	200	1	1	224.5044	1	1	
33	0	228.2952	0	936	1551	2975	4263	601	-7.5	200	0	1	229.5721		0	
34	1	233.5399	0	936	1551	2975	4263	601	-7.5	200	0	0	234.8390	1	0	
35	0	241.6111	0	936	1551	2975	4263	551	-7.5	200	0	1	242.4458		1	
36	1	246.5899	1	936	1551	2975	4263	551	-7.5	200	0	0	249.2892	1	1	
37	0	254.1712	0	437	2761	2975	4263	501	-7.5	200	1	1	255.1550	1	1	
38	0	258.8155	0	936	1551	2975	4263	576	-7.5	200	0	0	259.8011	1	1	
39	0	266.2645	0	437	2761	2975	4263	626	-7.5	200	1	1	266.8371	1	1	
40	0	270.4671	1	936	1551	2975	4263	676	-7.5	200	0	0	271.9097	1	0	
41	0	278.5609	0	437	2761	2975	4263	651	-7.5	200	1	1	280.1608	1	1	
42	0	284.1896	0	936	1551	2975	4263	676	-7.5	200	0	0	285.1478	1	0	
43	0	290.2346	0	936	1551	2975	4263	601	-7.5	200	0	0	291.4392	1	0	
44	0	298.3384	0	936	1551	2975	4263	576	-7.5	200	0	0	299.3822	1	1	
45	0	304.7911	1	437	2761	2975	4263	551	-7.5	200	1	1	306.5135	1	0	
46	0	310.5794	0	437	2761	2975	4263	701	-7.5	200	1	0	311.9411		0	
47	1	315.8362	0	437	2761	2975	4263	701	-7.5	200	1	1	316.5326	1	0	
48	0	320.4329	0	437	2761	2975	4263	726	-7.5	200	1	1	321.0049	1	0	
49	0	324.5321	1	936	1551	2975	4263	651	-7.5	200	0	0	325.4261	1	1	
50	0	330.5581	1	437	2761	2975	4263	526	-7.5	200	1	1	334.1780	1	0	
51	0	337.9703	0	437	2761	2975	4263	626	-7.5	200	1	0	338.9039		1	
52	1	343.5140	0	437	2761	2975	4263	626	-7.5	200	1	1	344.1103	1	1	
53	0	350.3041	0	936	1551	2975	4263	751	-7.5	200	0	0	351.6681	1	1	
54	0	356.3924	0	437	2761	2975	4263	651	-7.5	200	1	1	357.1255	1	0	
55	0	360.5269	0	437	2761	2975	4263	501	-7.5	200	1	1	361.4810	1	1	
56	0	367.3626	0	437	2761	2975	4263	626	-7.5	200	1	0	368.5894		0	
57	1	373.8863	0	437	2761	2975	4263	626	-7.5	200	1	1	374.3224	1	0	
58	0	380.9956	0	936	1551	2975	4263	601	-7.5	200	0	0	382.1880	1	0	
59	0	387.5717	0	437	2761	2975	4263	526	-7.5	200	1	1	388.3142	1	1	
60	0	392.1030	0	936	1551	2975	4263	551	-7.5	200	0	0	393.1160	1	0	
61	0	398.0779	0	936	1551	2975	4263	701	-7.5	200	0	0	398.7830	1	0	
62	0	404.2149	0	936	1551	2975	4263	751	-7.5	200	0	0	405.2400	1	1	
63	0	411.3557	0	936	1551	2975	4263	676	-7.5	200	0	1	412.0746		0	
64	1	416.0940	0	936	1551	2975	4263	676	-7.5	200	0	0	417.0366	1	0	
65	0	422.3174	0	936	1551	2975	4263	576	-7.5	200	0	1	422.9634		0	
66	1	427.7063	0	936	1551	2975	4263	576	-7.5	200	0	0	429.0424	1	0	
67	0	433.7842	0	437	2761	2975	4263	576	-7.5	200	1	0	434.8284		1	
68	1	439.2022	0	437	2761	2975	4263	576	-7.5	200	1	1	440.0718	1	1	
69	0	446.4972	0	437	2761	2975	4263	726	-7.5	200	1	1	447.3034	1	1	
70	0	450.9370	0	936	1551	2975	4263	526	-7.5	200	0	0	452.2947	1	1	
71	0	458.0967	0	936	1551	2975	4263	551	-7.5	200	0	0	459.1599	1	1	
72	0	464.6484	0	936	1551	2975	4263	751	-7.5	200	0	1	465.1756		1	
73	1	469.1180	0	936	1551	2975	4263	751	-7.5	200	0	0	470.1185	1	1	
74	0	475.7648	1	936	1551	2975	4263	651	-7.5	200	0	0	477.2066	1	0	
75	0	483.0027	0	437	2761	2975	4263	601	-7.5	200	1	1	484.8506	1	1	
76	0	488.3858	0	437	2761	2975	4263	626	-7.5	200	1	1	488.9641	1	0	
77	0	492.9903	0	437	2761	2975	4263	676	-7.5	200	1	0	493.8684		0	
78	1	500.5410	0	437	2761	2975	4263	676	-7.5	200	1	1	501.3270	1	0	
79	0	504.9459	1	437	2761	2975	4263	501	-7.5	200	1	1	505.6195	1	0	
80	0	509.1996	0	437	2761	2975	4263	501	-7.5	200	1	0	511.2567		1	
81	1	517.4310	0	437	2761	2975	4263	501	-7.5	200	1	0	518.8271		1	
82	1	524.2389	0	437	2761	2975	4263	501	-7.5	200	1	1	525.0154	1	1	
83	0	529.0208	1	936	1551	2975	4263	526	-7.5	200	0	0	529.9882	1	0	
84	0	535.5141	0	437	2761	2975	4263	601	-7.5	200	1	0	537.5131		0	
85	1	541.9105	0	437	2761	2975	4263	601	-7.5	200	1	1	542.5339	1	0	
86	0	550.6971	0	437	2761	2975	4263	676	-7.5	200	1	0	551.8293		0	
87	1	557.0787	0	437	2761	2975	4263	676	-7.5	200	1	1	557.5426	1	0	
88	0	561.5100	0	936	1551	2975	4263	626	-7.5	200	0	0	562.5650	1	0	
89	0	568.2754	0	437	2761	2975	4263	551	-7.5	200	1	1	568.8627	1	1	
90	0	572.5320	1	936	1551	2975	4263	576	-7.5	200	0	0	575.1107	1	1	
91	0	580.9993	1	936	1551	2975	4263	701	-7.5	200	0	0	583.4727	1	1	
92	0	589.8716	1	936	1551	2975	4263	726	-7.5	200	0	0	593.0648	1	1	
93	0	598.8928	0	437	2761	2975	4263	751	-7.5	200	1	1	599.8619	1	1	
94	0	603.9221	0	936	1551	2975	4263	551	-7.5	200	0	0	604.7400	1	0	
95	0	612.5482	0	437	2761	2975	4263	701	-7.5	200	1	1	613.2563	1	0	
96	0	617.2793	0	936	1551	2975	4263	676	-7.5	200	0	0	618.0413	1	1	
97	0	624.7193	0	936	1551	2975	4263	601	-7.5	200	0	1	625.3547		0	
98	1	632.6830	1	936	1551	2975	4263	601	-7.5	200	0	0	635.6205	1	0	
99	0	640.9512	0	437	2761	2975	4263	576	-7.5	200	1	1	641.8031	1	0	
100	0	648.9321	0	437	2761	2975	4263	726	-7.5	200	1	1	649.5750	1	1	
101	0	653.7787	1	936	1551	2975	4263	626	-7.5	200	0	0	654.7050	1	1	
102	0	659.6338	1	936	1551	2975	4263	501	-7.5	200	0	0	664.1026	1	0	
103	0	670.4620	0	437	2761	2975	4263	651	-7.5	200	1	0	671.7142		0	
104	1	676.4804	0	437	2761	2975	4263	651	-7.5	200	1	1	677.1462	1	0	
105	0	680.6089	0	437	2761	2975	4263	526	-7.5	200	1	0	681.7846		0	
106	1	686.2907	1	437	2761	2975	4263	526	-7.5	200	1	1	688.1036	1	0	
107	0	692.3722	0	936	1551	2975	4263	726	-7.5	200	0	0	693.4394	1	0	
108	0	699.3500	0	437	2761	2975	4263	751	-7.5	200	1	0	700.5617		1	
109	1	705.1005	1	437	2761	2975	4263	751	-7.5	200	1	1	705.6042	1	1	
110	0	709.5980	1	437	2761	2975	4263	501	-7.5	200	1	1	712.4078	1	1	
111	0	716.5628	0	936	1551	2975	4263	601	-7.5	200	0	0	718.5623	1	1	
112	0	724.6006	0	936	1551	2975	4263	626	-7.5	200	0	0	725.7550	1	0	
113	0	732.6355	0	936	1551	2975	4263	551	-7.5	200	0	0	733.9124	1	0	
114	0	739.3332	0	936	1551	2975	4263	651	-7.5	200	0	1	739.7390		0	
115	1	743.9111	0	936	1551	2975	4263	651	-7.5	200	0	0	745.1206	1	0	
116	0	750.1906	0	936	1551	2975	4263	676	-7.5	200	0	0	751.1585	1	1	
117	0	756.6612	0	936	1551	2975	4263	701	-7.5	200	0	0	757.5957	1	1	
118	0	763.4564	0	437	2761	2975	4263	576	-7.5	200	1	1	764.2692	1	1	
119	0	767.9497	0	437	2761	2975	4263	526	-7.5	200	1	1	768.7110	1	0	
120	0	772.4623	0	437	2761	2975	4263	576	-7.5	200	1	0	773.2620		0	
121	1	779.5318	0	437	2761	2975	4263	576	-7.5	200	1	1	780.5046	1	0	
122	0	784.5351	1	437	2761	2975	4263	651	-7.5	200	1	0	787.3762		1	
123	1	800.0482	0	437	2761	2975	4263	651	-7.5	200	1	1	801.0879	1	1	
124	0	805.0269	1	437	2761	2975	4263	601	-7.5	200	1	1	805.6771	1	0	
125	0	810.9094	0	936	1551	2975	4263	751	-7.5	200	0	1	812.7191		1	
126	1	817.1763	1	936	1551	2975	4263	751	-7.5	200	0	0	819.5994	1	1	
127	0	823.8136	0	437	2761	2975	4263	676	-7.5	200	1	1	824.8572	1	1	
128	0	832.3027	0	437	2761	2975	4263	551	-7.5	200	1	1	833.4284	1	1	
129	0	837.9979	0	936	1551	2975	4263	726	-7.5	200	0	0	839.1586	1	0	
130	0	845.0297	1	936	1551	2975	4263	701	-7.5	200	0	1	847.1532		1	
