Trial	CorrectionTrial?	StartTime	CenterReward?	F1	F2	F3	F4	HoldTime	Atten	Pitch	Side	Response	RespTime	Correct	
1	0	5.6567	0	936	1551	2975	4263	751	-6.5	200	0	1	8.0668		
2	1	12.3696	0	936	1551	2975	4263	751	-6.5	200	0	0	13.6218	1	
3	0	18.3221	0	936	1551	2975	4263	501	-6.5	200	0	1	19.4060		
4	1	24.9422	0	936	1551	2975	4263	501	-6.5	200	0	0	27.1702	1	
5	0	32.5110	0	936	1551	2975	4263	601	-6.5	200	0	0	33.7686	1	
6	0	39.8302	1	437	2761	2975	4263	626	-6.5	200	1	0	42.1176		
7	1	46.7920	0	437	2761	2975	4263	626	-6.5	200	1	0	48.0130		
8	1	55.4642	1	437	2761	2975	4263	626	-6.5	200	1	1	57.4351	1	
9	0	61.2718	1	437	2761	2975	4263	526	-6.5	200	1	1	63.3277	1	
10	0	67.0972	0	437	2761	2975	4263	726	-6.5	200	1	0	68.5606		
11	1	75.1642	0	437	2761	2975	4263	726	-6.5	200	1	1	75.6166	1	
12	0	82.5885	0	936	1551	2975	4263	701	-6.5	200	0	0	83.2975	1	
13	0	88.5629	1	936	1551	2975	4263	551	-6.5	200	0	0	89.4603	1	
14	0	95.6733	0	437	2761	2975	4263	576	-6.5	200	1	0	97.7208		
15	1	103.2790	0	437	2761	2975	4263	576	-6.5	200	1	1	103.7913	1	
16	0	112.3641	0	437	2761	2975	4263	676	-6.5	200	1	0	113.3451		
17	1	117.7492	0	437	2761	2975	4263	676	-6.5	200	1	1	118.3551	1	
18	0	122.1720	1	437	2761	2975	4263	651	-6.5	200	1	0	123.6721		
19	1	133.3824	0	437	2761	2975	4263	651	-6.5	200	1	1	134.1757	1	
20	0	137.7105	0	936	1551	2975	4263	676	-6.5	200	0	0	138.7118	1	
21	0	143.2872	0	936	1551	2975	4263	551	-6.5	200	0	0	144.5568	1	
22	0	150.2440	0	437	2761	2975	4263	601	-6.5	200	1	0	151.2752		
23	1	155.4781	1	437	2761	2975	4263	601	-6.5	200	1	1	155.8983	1	
24	0	159.5679	1	936	1551	2975	4263	626	-6.5	200	0	1	162.3182		
25	1	167.1888	0	936	1551	2975	4263	626	-6.5	200	0	1	168.1768		
26	1	172.7944	0	936	1551	2975	4263	626	-6.5	200	0	0	173.9682	1	
27	0	180.1545	0	437	2761	2975	4263	701	-6.5	200	1	1	180.7887	1	
28	0	184.8025	0	936	1551	2975	4263	726	-6.5	200	0	0	185.6089	1	
29	0	191.5544	0	437	2761	2975	4263	526	-6.5	200	1	1	192.3903	1	
30	0	196.0658	0	437	2761	2975	4263	501	-6.5	200	1	0	196.9192		
31	1	203.3792	0	437	2761	2975	4263	501	-6.5	200	1	1	204.1105	1	
32	0	211.3129	0	936	1551	2975	4263	751	-6.5	200	0	0	212.3987	1	
33	0	217.0900	1	437	2761	2975	4263	601	-6.5	200	1	1	218.9920	1	
34	0	222.6369	0	437	2761	2975	4263	576	-6.5	200	1	1	223.4901	1	
35	0	227.1629	1	936	1551	2975	4263	651	-6.5	200	0	0	228.0508	1	
36	0	233.3696	0	936	1551	2975	4263	676	-6.5	200	0	0	235.1483	1	
37	0	241.8828	0	936	1551	2975	4263	526	-6.5	200	0	1	242.9519		
38	1	246.6177	0	936	1551	2975	4263	526	-6.5	200	0	0	247.8644	1	
39	0	254.2561	0	437	2761	2975	4263	626	-6.5	200	1	1	255.1251	1	
40	0	259.0166	1	936	1551	2975	4263	501	-6.5	200	0	0	259.8829	1	
41	0	265.6750	0	437	2761	2975	4263	751	-6.5	200	1	1	267.0036	1	
42	0	270.7706	1	437	2761	2975	4263	726	-6.5	200	1	1	272.8081	1	
43	0	276.7105	0	936	1551	2975	4263	551	-6.5	200	0	0	278.3091	1	
44	0	284.8873	0	936	1551	2975	4263	576	-6.5	200	0	1	286.1598		
45	1	290.6585	1	936	1551	2975	4263	576	-6.5	200	0	0	293.2326	1	
46	0	299.7962	0	437	2761	2975	4263	526	-6.5	200	1	1	300.8686	1	
47	0	304.7783	0	437	2761	2975	4263	551	-6.5	200	1	0	306.1171		
48	1	311.2965	0	437	2761	2975	4263	551	-6.5	200	1	1	312.1653	1	
49	0	315.9892	1	936	1551	2975	4263	651	-6.5	200	0	0	316.9299	1	
50	0	324.1574	0	437	2761	2975	4263	601	-6.5	200	1	1	325.8301	1	
51	0	329.6241	0	936	1551	2975	4263	701	-6.5	200	0	0	330.5926	1	
52	0	336.7543	0	936	1551	2975	4263	626	-6.5	200	0	0	337.8444	1	
53	0	343.7076	0	936	1551	2975	4263	501	-6.5	200	0	0	345.5420	1	
54	0	352.7533	0	936	1551	2975	4263	726	-6.5	200	0	0	353.6869	1	
55	0	360.4838	0	437	2761	2975	4263	751	-6.5	200	1	1	361.1391	1	
56	0	365.0751	0	437	2761	2975	4263	626	-6.5	200	1	1	365.5300	1	
57	0	369.3696	0	437	2761	2975	4263	651	-6.5	200	1	0	370.6356		
58	1	376.9813	0	437	2761	2975	4263	651	-6.5	200	1	1	377.6400	1	
59	0	381.3641	0	437	2761	2975	4263	701	-6.5	200	1	1	381.9328	1	
60	0	385.4386	0	437	2761	2975	4263	551	-6.5	200	1	0	386.3166		
61	1	391.5252	0	437	2761	2975	4263	551	-6.5	200	1	1	392.1920	1	
62	0	395.6579	0	936	1551	2975	4263	526	-6.5	200	0	0	396.6451	1	
63	0	401.8441	0	936	1551	2975	4263	601	-6.5	200	0	0	402.9423	1	
64	0	407.8801	0	936	1551	2975	4263	576	-6.5	200	0	0	408.9174	1	
65	0	414.5413	0	437	2761	2975	4263	501	-6.5	200	1	1	415.4707	1	
66	0	419.1003	1	936	1551	2975	4263	676	-6.5	200	0	0	420.2942	1	
67	0	425.7928	0	437	2761	2975	4263	726	-6.5	200	1	1	426.9778	1	
68	0	430.5981	1	437	2761	2975	4263	676	-6.5	200	1	1	431.0639	1	
69	0	434.8225	0	936	1551	2975	4263	551	-6.5	200	0	1	436.6913		
70	1	442.6596	1	936	1551	2975	4263	551	-6.5	200	0	0	446.0692	1	
71	0	451.8269	0	437	2761	2975	4263	576	-6.5	200	1	1	452.9761	1	
72	0	456.5269	0	936	1551	2975	4263	626	-6.5	200	0	0	458.1960	1	
73	0	463.1335	0	936	1551	2975	4263	651	-6.5	200	0	0	464.2301	1	
74	0	470.7243	0	936	1551	2975	4263	701	-6.5	200	0	1	471.4257		
75	1	477.0123	0	936	1551	2975	4263	701	-6.5	200	0	1	477.6537		
76	1	482.2360	0	936	1551	2975	4263	701	-6.5	200	0	0	483.3228	1	
77	0	487.8645	0	936	1551	2975	4263	526	-6.5	200	0	0	489.6698	1	
78	0	495.1002	0	437	2761	2975	4263	601	-6.5	200	1	1	496.1324	1	
79	0	499.9941	0	437	2761	2975	4263	501	-6.5	200	1	1	500.5585	1	
80	0	516.0826	1	437	2761	2975	4263	751	-6.5	200	1	1	516.5789	1	
81	0	520.2691	0	936	1551	2975	4263	726	-6.5	200	0	0	521.9010	1	
82	0	525.8592	0	437	2761	2975	4263	651	-6.5	200	1	1	526.8810	1	
83	0	533.8678	1	437	2761	2975	4263	751	-6.5	200	1	1	536.0394	1	
84	0	540.7971	0	437	2761	2975	4263	526	-6.5	200	1	1	541.4014	1	
85	0	545.1584	1	936	1551	2975	4263	701	-6.5	200	0	1	547.4968		
86	1	569.3968	1	936	1551	2975	4263	701	-6.5	200	0	1	571.2660		
87	1	576.7594	0	936	1551	2975	4263	701	-6.5	200	0	1	577.9544		
88	1	601.7662	0	936	1551	2975	4263	701	-6.5	200	0	0	603.1195	1	
89	0	608.5482	1	936	1551	2975	4263	676	-6.5	200	0	0	610.6717	1	
90	0	614.9623	0	936	1551	2975	4263	626	-6.5	200	0	1	616.8292		
