Trial	CorrectionTrial?	StartTime	CenterReward?	F1	F2	F3	F4	HoldTime	Atten	Pitch	Side	Response	RespTime	Correct	Mask	
1	0	8.1058	0	936	1551	2975	4263	676	-12.5	200	0	1	14.5155		1	
2	1	21.2940	0	936	1551	2975	4263	676	-12.5	200	0	1	22.3926		1	
3	1	33.9465	1	936	1551	2975	4263	676	-12.5	200	0	0	36.6257	1	1	
4	0	44.5309	0	936	1551	2975	4263	701	-12.5	200	0	0	45.8164	1	0	
5	0	52.3120	0	936	1551	2975	4263	551	-12.5	200	0	1	53.6126		1	
6	1	58.8741	0	936	1551	2975	4263	551	-12.5	200	0	0	59.7488	1	1	
7	0	65.1245	0	437	2761	2975	4263	501	-12.5	200	1	1	66.0692	1	1	
8	0	67.4498	0	437	2761	2975	4263	526	-12.5	200	1	0	68.5964		0	
9	1	73.6989	0	437	2761	2975	4263	526	-12.5	200	1	0	74.7143		0	
10	1	80.3277	0	437	2761	2975	4263	526	-12.5	200	1	1	81.1299	1	0	
11	0	82.5542	0	936	1551	2975	4263	601	-12.5	200	0	0	83.3174	1	0	
12	0	89.2889	0	437	2761	2975	4263	626	-12.5	200	1	0	90.0972		1	
13	1	94.6843	0	437	2761	2975	4263	626	-12.5	200	1	0	95.7226		1	
14	1	101.7317	1	437	2761	2975	4263	626	-12.5	200	1	0	103.8845		1	
15	1	108.2003	0	437	2761	2975	4263	626	-12.5	200	1	1	109.1002	1	1	
16	0	112.3460	0	437	2761	2975	4263	751	-12.5	200	1	0	112.9676		1	
17	1	117.7479	1	437	2761	2975	4263	751	-12.5	200	1	0	120.5121		1	
18	1	124.8785	1	437	2761	2975	4263	751	-12.5	200	1	1	127.5966	1	1	
19	0	130.6245	0	936	1551	2975	4263	651	-12.5	200	0	0	131.5777	1	1	
20	0	137.1728	0	437	2761	2975	4263	726	-12.5	200	1	0	138.8902		0	
21	1	143.7707	0	437	2761	2975	4263	726	-12.5	200	1	0	144.7759		0	
22	1	149.9488	0	437	2761	2975	4263	726	-12.5	200	1	1	150.3956	1	0	
23	0	154.1164	1	437	2761	2975	4263	526	-12.5	200	1	1	154.6562	1	0	
24	0	158.9878	1	936	1551	2975	4263	726	-12.5	200	0	0	162.3946	1	0	
25	0	168.5169	0	936	1551	2975	4263	651	-12.5	200	0	0	169.6229	1	1	
26	0	175.7667	1	437	2761	2975	4263	551	-12.5	200	1	1	177.8173	1	1	
27	0	181.6512	0	936	1551	2975	4263	576	-12.5	200	0	0	182.4869	1	0	
28	0	189.2107	0	437	2761	2975	4263	626	-12.5	200	1	1	190.0779	1	1	
29	0	194.6429	1	936	1551	2975	4263	751	-12.5	200	0	0	195.0541	1	1	
30	0	200.5399	0	936	1551	2975	4263	501	-12.5	200	0	1	202.7558		1	
31	1	206.4079	0	936	1551	2975	4263	501	-12.5	200	0	0	207.5246	1	1	
32	0	213.9871	1	437	2761	2975	4263	701	-12.5	200	1	1	215.7919	1	0	
33	0	219.3068	1	437	2761	2975	4263	676	-12.5	200	1	1	221.1925	1	0	
34	0	224.3616	0	437	2761	2975	4263	501	-12.5	200	1	0	225.4180		1	
35	1	230.2780	0	437	2761	2975	4263	501	-12.5	200	1	1	231.1665	1	1	
36	0	234.6886	0	437	2761	2975	4263	626	-12.5	200	1	1	235.2417	1	0	
37	0	241.7056	0	936	1551	2975	4263	726	-12.5	200	0	0	242.6153	1	0	
38	0	248.8895	0	936	1551	2975	4263	676	-12.5	200	0	0	249.7186	1	0	
39	0	255.1092	0	936	1551	2975	4263	576	-12.5	200	0	0	256.6921	1	0	
40	0	262.3763	1	437	2761	2975	4263	701	-12.5	200	1	1	264.8464	1	1	
41	0	268.8132	1	936	1551	2975	4263	551	-12.5	200	0	0	271.2124	1	0	
42	0	276.9930	1	437	2761	2975	4263	751	-12.5	200	1	1	277.5964	1	1	
43	0	280.8799	1	936	1551	2975	4263	526	-12.5	200	0	1	284.4872		1	
44	1	288.2038	0	936	1551	2975	4263	526	-12.5	200	0	0	289.2815	1	1	
45	0	296.9748	1	437	2761	2975	4263	601	-12.5	200	1	1	299.4193	1	0	
46	0	303.2100	1	936	1551	2975	4263	501	-12.5	200	0	0	305.9200	1	0	
47	0	312.0677	1	437	2761	2975	4263	651	-12.5	200	1	1	315.1331	1	0	
48	0	318.8036	1	437	2761	2975	4263	751	-12.5	200	1	1	319.3597	1	0	
49	0	323.7029	1	936	1551	2975	4263	601	-12.5	200	0	0	326.8945	1	1	
50	0	335.5566	0	437	2761	2975	4263	626	-12.5	200	1	1	336.5409	1	1	
51	0	340.0013	1	936	1551	2975	4263	676	-12.5	200	0	0	342.2108	1	1	
52	0	347.2011	0	437	2761	2975	4263	526	-12.5	200	1	1	348.3623	1	0	
53	0	351.8084	0	437	2761	2975	4263	576	-12.5	200	1	0	352.9372		1	
54	1	358.6851	0	437	2761	2975	4263	576	-12.5	200	1	1	359.6805	1	1	
55	0	364.2191	0	936	1551	2975	4263	726	-12.5	200	0	0	364.7888	1	0	
56	0	370.2188	1	936	1551	2975	4263	551	-12.5	200	0	0	371.1606	1	0	
57	0	376.0627	1	936	1551	2975	4263	501	-12.5	200	0	1	378.7131		1	
58	1	385.5981	1	936	1551	2975	4263	501	-12.5	200	0	0	388.5880	1	1	
59	0	393.7932	0	936	1551	2975	4263	551	-12.5	200	0	0	394.9225	1	0	
60	0	401.8420	0	437	2761	2975	4263	751	-12.5	200	1	1	402.5514	1	0	
61	0	408.5111	0	437	2761	2975	4263	726	-12.5	200	1	1	409.4609	1	0	
62	0	413.1552	1	437	2761	2975	4263	576	-12.5	200	1	1	413.8640	1	1	
63	0	418.3643	0	936	1551	2975	4263	651	-12.5	200	0	0	419.7158	1	1	
64	0	425.9183	0	936	1551	2975	4263	701	-12.5	200	0	0	426.8011	1	1	
65	0	432.9997	1	437	2761	2975	4263	676	-12.5	200	1	1	435.8108	1	1	
66	0	439.8812	1	936	1551	2975	4263	526	-12.5	200	0	0	442.4443	1	1	
67	0	449.2055	0	936	1551	2975	4263	601	-12.5	200	0	0	450.2229	1	0	
68	0	455.6472	0	437	2761	2975	4263	676	-12.5	200	1	1	456.4147	1	1	
69	0	460.0458	0	437	2761	2975	4263	726	-12.5	200	1	1	460.8966	1	1	
70	0	464.7764	0	936	1551	2975	4263	626	-12.5	200	0	0	465.5534	1	0	
71	0	470.6292	0	437	2761	2975	4263	651	-12.5	200	1	1	471.7432	1	1	
72	0	475.1460	0	437	2761	2975	4263	501	-12.5	200	1	1	476.0616	1	0	
73	0	482.3961	1	936	1551	2975	4263	751	-12.5	200	0	0	482.9494	1	0	
74	0	487.9606	1	437	2761	2975	4263	551	-12.5	200	1	1	491.0417	1	0	
75	0	500.7900	0	936	1551	2975	4263	701	-12.5	200	0	0	501.7750	1	1	
76	0	507.4916	0	936	1551	2975	4263	576	-12.5	200	0	0	508.4639	1	1	
77	0	512.9309	0	437	2761	2975	4263	526	-12.5	200	1	1	513.8973	1	0	
78	0	517.5100	0	437	2761	2975	4263	601	-12.5	200	1	1	518.0818	1	0	
79	0	521.9398	1	936	1551	2975	4263	526	-12.5	200	0	0	524.3664	1	0	
80	0	528.5827	0	437	2761	2975	4263	676	-12.5	200	1	0	529.6867		1	
81	1	535.2105	0	437	2761	2975	4263	676	-12.5	200	1	1	535.9378	1	1	
82	0	540.5116	0	936	1551	2975	4263	551	-12.5	200	0	0	541.4469	1	0	
83	0	547.3941	1	437	2761	2975	4263	576	-12.5	200	1	1	549.2138	1	1	
84	0	552.5652	0	437	2761	2975	4263	626	-12.5	200	1	0	554.1600		1	
85	1	558.3582	0	437	2761	2975	4263	626	-12.5	200	1	1	559.2248	1	1	
86	0	565.8629	0	936	1551	2975	4263	701	-12.5	200	0	0	566.6657	1	0	
87	0	572.4202	1	437	2761	2975	4263	751	-12.5	200	1	1	573.0295	1	0	
88	0	577.7152	0	936	1551	2975	4263	501	-12.5	200	0	1	579.8520		1	
89	1	584.5531	0	936	1551	2975	4263	501	-12.5	200	0	0	585.5760	1	1	
90	0	590.6035	0	437	2761	2975	4263	651	-12.5	200	1	1	591.6143	1	0	
91	0	598.5184	0	936	1551	2975	4263	526	-12.5	200	0	0	599.6394	1	1	
92	0	607.9410	0	936	1551	2975	4263	751	-12.5	200	0	0	609.4414	1	1	
93	0	616.2505	0	437	2761	2975	4263	551	-12.5	200	1	1	617.1545	1	0	
94	0	620.6955	0	936	1551	2975	4263	576	-12.5	200	0	0	621.5089	1	0	
95	0	627.2734	0	936	1551	2975	4263	601	-12.5	200	0	0	628.5490	1	0	
96	0	636.1353	0	437	2761	2975	4263	651	-12.5	200	1	1	636.9396	1	0	
97	0	641.3266	1	936	1551	2975	4263	726	-12.5	200	0	0	642.1948	1	0	
98	0	647.7672	0	437	2761	2975	4263	626	-12.5	200	1	1	650.2022	1	1	
99	0	654.3212	0	936	1551	2975	4263	701	-12.5	200	0	0	654.9865	1	1	
100	0	661.6652	0	437	2761	2975	4263	676	-12.5	200	1	1	662.5799	1	1	
101	0	666.2971	0	936	1551	2975	4263	551	-12.5	200	0	0	667.6074	1	1	
102	0	673.5051	0	936	1551	2975	4263	701	-12.5	200	0	0	674.5983	1	1	
103	0	681.4034	0	437	2761	2975	4263	501	-12.5	200	1	1	682.3843	1	0	
104	0	688.6963	0	437	2761	2975	4263	576	-12.5	200	1	1	689.6779	1	1	
105	0	693.7561	0	936	1551	2975	4263	526	-12.5	200	0	0	694.8671	1	1	
106	0	700.3349	1	437	2761	2975	4263	751	-12.5	200	1	1	702.3368	1	0	
107	0	706.4981	0	936	1551	2975	4263	676	-12.5	200	0	0	707.7242	1	1	
108	0	713.8479	1	936	1551	2975	4263	651	-12.5	200	0	1	716.8487		0	
109	1	720.5736	0	936	1551	2975	4263	651	-12.5	200	0	0	721.7180	1	0	
110	0	728.1922	0	437	2761	2975	4263	726	-12.5	200	1	1	729.2015	1	0	
111	0	732.6725	0	936	1551	2975	4263	601	-12.5	200	0	0	733.5385	1	0	
112	0	739.0019	1	437	2761	2975	4263	726	-12.5	200	1	1	741.0648	1	1	
113	0	744.5424	0	437	2761	2975	4263	551	-12.5	200	1	1	745.5104	1	1	
114	0	750.1906	1	437	2761	2975	4263	501	-12.5	200	1	1	751.2653	1	0	
115	0	755.1143	0	936	1551	2975	4263	651	-12.5	200	0	0	757.1071	1	1	
116	0	763.4298	0	936	1551	2975	4263	626	-12.5	200	0	0	764.4188	1	0	
117	0	770.2216	0	437	2761	2975	4263	526	-12.5	200	1	1	771.4085	1	1	
118	0	775.6315	0	936	1551	2975	4263	576	-12.5	200	0	0	776.6569	1	0	
119	0	781.8478	1	936	1551	2975	4263	601	-12.5	200	0	1	784.3136		1	
120	1	788.1819	0	936	1551	2975	4263	601	-12.5	200	0	0	789.2986	1	1	
121	0	794.3623	0	437	2761	2975	4263	701	-12.5	200	1	1	795.3617	1	1	
122	0	798.7928	0	936	1551	2975	4263	676	-12.5	200	0	0	800.3592	1	1	
123	0	805.8823	1	437	2761	2975	4263	726	-12.5	200	1	1	807.9213	1	1	
124	0	811.7187	0	437	2761	2975	4263	651	-12.5	200	1	1	812.6923	1	0	
125	0	816.0803	1	936	1551	2975	4263	626	-12.5	200	0	0	817.0969	1	0	
126	0	822.5359	0	437	2761	2975	4263	751	-12.5	200	1	1	824.5535	1	1	
127	0	828.4384	0	936	1551	2975	4263	601	-12.5	200	0	0	829.7889	1	1	
128	0	834.8695	0	437	2761	2975	4263	551	-12.5	200	1	0	836.1746		0	
129	1	840.6662	0	437	2761	2975	4263	551	-12.5	200	1	1	841.7045	1	0	
130	0	850.5794	1	437	2761	2975	4263	701	-12.5	200	1	0	863.8942		0	
131	1	870.7027	0	437	2761	2975	4263	701	-12.5	200	1	1	871.5271	1	0	
132	0	875.3866	0	936	1551	2975	4263	576	-12.5	200	0	0	876.5478	1	0	
133	0	881.7539	1	936	1551	2975	4263	526	-12.5	200	0	0	883.0811	1	1	
134	0	889.2062	1	437	2761	2975	4263	501	-12.5	200	1	1	891.4052	1	0	
135	0	909.4911	0	437	2761	2975	4263	676	-12.5	200	1	1	910.7118	1	1	
136	0	914.2425	0	936	1551	2975	4263	601	-12.5	200	0	0	915.0442	1	1	
137	0	920.3945	0	437	2761	2975	4263	751	-12.5	200	1	0	921.3363		0	
138	1	932.8849	1	437	2761	2975	4263	751	-12.5	200	1	0	933.5655		0	
