Trial	CorrectionTrial?	StartTime	CenterReward?	F1	F2	F3	F4	HoldTime	Atten	Pitch	Side	Response	RespTime	Correct	
1	0	13.7626	0	437	2761	2975	4263	751	10.0	200	1	0	14.6147		
2	1	19.0175	0	437	2761	2975	4263	751	10.0	200	1	0	19.7517		
3	1	31.5802	0	437	2761	2975	4263	751	10.0	200	1	0	32.4038		
4	1	37.7333	0	437	2761	2975	4263	751	10.0	200	1	1	38.9315	1	
5	0	45.3221	0	936	1551	2975	4263	601	10.0	200	0	1	46.3653		
6	1	50.4055	0	936	1551	2975	4263	601	10.0	200	0	0	51.4186	1	
7	0	56.9669	1	936	1551	2975	4263	651	10.0	200	0	1	59.1226		
8	1	63.9470	0	936	1551	2975	4263	651	10.0	200	0	0	64.8725	1	
9	0	70.2757	1	437	2761	2975	4263	676	10.0	200	1	0	72.7884		
10	1	79.9002	1	437	2761	2975	4263	676	10.0	200	1	1	80.6221	1	
11	0	84.1185	1	437	2761	2975	4263	526	10.0	200	1	0	87.5724		
12	1	91.7130	1	437	2761	2975	4263	526	10.0	200	1	0	94.4316		
13	1	99.8199	1	437	2761	2975	4263	526	10.0	200	1	0	100.5353		
14	1	107.7906	1	437	2761	2975	4263	526	10.0	200	1	1	108.3236	1	
15	0	112.2794	0	936	1551	2975	4263	551	10.0	200	0	1	113.7709		
16	1	117.4520	0	936	1551	2975	4263	551	10.0	200	0	0	118.3547	1	
17	0	124.3029	1	437	2761	2975	4263	726	10.0	200	1	0	126.6671		
18	1	130.9934	0	437	2761	2975	4263	726	10.0	200	1	1	131.4518	1	
19	0	135.1730	1	437	2761	2975	4263	501	10.0	200	1	1	135.9504	1	
20	0	139.7770	0	437	2761	2975	4263	576	10.0	200	1	1	142.0398	1	
21	0	146.0442	0	936	1551	2975	4263	626	10.0	200	0	0	146.8452	1	
22	0	153.2244	0	936	1551	2975	4263	651	10.0	200	0	1	154.0096		
23	1	157.9010	0	936	1551	2975	4263	651	10.0	200	0	0	158.7073	1	
24	0	164.1425	0	936	1551	2975	4263	601	10.0	200	0	0	165.1745	1	
25	0	170.1661	0	437	2761	2975	4263	701	10.0	200	1	0	171.1463		
26	1	181.0302	0	437	2761	2975	4263	701	10.0	200	1	1	181.7036	1	
27	0	190.8182	0	936	1551	2975	4263	726	10.0	200	0	0	191.8589	1	
28	0	196.8759	0	437	2761	2975	4263	626	10.0	200	1	1	197.6516	1	
29	0	206.0952	1	936	1551	2975	4263	751	10.0	200	0	1	207.8598		
30	1	211.8969	0	936	1551	2975	4263	751	10.0	200	0	1	212.6071		
31	1	216.6414	0	936	1551	2975	4263	751	10.0	200	0	0	217.7803	1	
32	0	222.6506	0	437	2761	2975	4263	576	10.0	200	1	0	223.9566		
33	1	228.3690	0	437	2761	2975	4263	576	10.0	200	1	1	228.6519	1	
34	0	234.9496	0	936	1551	2975	4263	551	10.0	200	0	0	236.0549	1	
35	0	241.2776	1	437	2761	2975	4263	501	10.0	200	1	0	244.0210		
36	1	248.4584	0	437	2761	2975	4263	501	10.0	200	1	1	249.1566	1	
37	0	253.2290	0	936	1551	2975	4263	526	10.0	200	0	1	253.9591		
38	1	258.6595	0	936	1551	2975	4263	526	10.0	200	0	0	259.6603	1	
39	0	264.8721	0	437	2761	2975	4263	501	10.0	200	1	1	265.9627	1	
40	0	269.5640	1	437	2761	2975	4263	626	10.0	200	1	1	270.0973	1	
41	0	274.3041	1	936	1551	2975	4263	701	10.0	200	0	1	277.1078		
42	1	283.2365	0	936	1551	2975	4263	701	10.0	200	0	0	284.6590	1	
43	0	290.0476	0	936	1551	2975	4263	651	10.0	200	0	0	291.1460	1	
44	0	297.3490	1	936	1551	2975	4263	726	10.0	200	0	1	299.1308		
45	1	303.3288	0	936	1551	2975	4263	726	10.0	200	0	1	304.5403		
46	1	309.4515	0	936	1551	2975	4263	726	10.0	200	0	0	310.9025	1	
47	0	316.4744	0	437	2761	2975	4263	576	10.0	200	1	0	317.5008		
48	1	322.1430	0	437	2761	2975	4263	576	10.0	200	1	1	323.0415	1	
49	0	332.3453	0	936	1551	2975	4263	676	10.0	200	0	0	333.3390	1	
50	0	338.7307	0	437	2761	2975	4263	526	10.0	200	1	0	339.8915		
51	1	346.5453	0	437	2761	2975	4263	526	10.0	200	1	0	347.9254		
52	1	352.7468	0	437	2761	2975	4263	526	10.0	200	1	1	353.6891	1	
53	0	359.8739	0	437	2761	2975	4263	751	10.0	200	1	1	360.3220	1	
54	0	364.3193	1	936	1551	2975	4263	551	10.0	200	0	1	365.0315		
55	1	371.8085	0	936	1551	2975	4263	551	10.0	200	0	0	373.0480	1	
56	0	378.7040	1	936	1551	2975	4263	751	10.0	200	0	1	380.9892		
57	1	386.3202	0	936	1551	2975	4263	751	10.0	200	0	0	387.0389	1	
58	0	393.3902	0	936	1551	2975	4263	701	10.0	200	0	0	394.3170	1	
59	0	399.8573	0	437	2761	2975	4263	576	10.0	200	1	0	401.0354		
60	1	413.2671	0	437	2761	2975	4263	576	10.0	200	1	1	414.1874	1	
61	0	424.0707	0	936	1551	2975	4263	651	10.0	200	0	0	425.1013	1	
62	0	430.6042	0	437	2761	2975	4263	626	10.0	200	1	1	431.5118	1	
63	0	435.4684	0	437	2761	2975	4263	676	10.0	200	1	1	436.0653	1	
64	0	442.1985	1	936	1551	2975	4263	501	10.0	200	0	0	444.7259	1	
65	0	451.0629	1	936	1551	2975	4263	526	10.0	200	0	0	454.1284	1	
66	0	461.3959	0	936	1551	2975	4263	726	10.0	200	0	1	462.4259		
67	1	468.4714	0	936	1551	2975	4263	726	10.0	200	0	0	470.0430	1	
68	0	476.0585	0	437	2761	2975	4263	551	10.0	200	1	1	477.0847	1	
69	0	480.9743	1	437	2761	2975	4263	626	10.0	200	1	1	481.8234	1	
70	0	485.9915	0	437	2761	2975	4263	501	10.0	200	1	0	487.9733		
71	1	503.1063	0	437	2761	2975	4263	501	10.0	200	1	1	504.5695	1	
72	0	510.8827	1	437	2761	2975	4263	676	10.0	200	1	0	513.0496		
73	1	544.5091	0	437	2761	2975	4263	676	10.0	200	1	1	545.7105	1	
74	0	566.2072	1	936	1551	2975	4263	701	10.0	200	0	1	567.0196		
75	1	641.7801	1	936	1551	2975	4263	701	10.0	200	0	1	644.6819		
76	1	850.9871	0	936	1551	2975	4263	701	10.0	200	0	0	882.4670	1	
77	0	886.8419	0	936	1551	2975	4263	526	10.0	200	0	1	887.6066		
78	1	897.4021	0	936	1551	2975	4263	526	10.0	200	0	1	898.1819		
79	1	902.9351	0	936	1551	2975	4263	526	10.0	200	0	0	904.2724	1	
80	0	962.8538	0	936	1551	2975	4263	751	10.0	200	0	1	964.2199		
