Trial	CorrectionTrial?	StartTime	CenterReward?	F1	F2	F3	F4	HoldTime	Atten	Pitch	Side	Response	RespTime	Correct	Mask	
1	0	10.8984	1	437	2761	2975	4263	751	3.5	200	1	1	12.7687	1	0	
2	0	16.6963	0	437	2761	2975	4263	551	3.5	200	1	1	17.5397	1	0	
3	0	21.6996	1	936	1551	2975	4263	626	3.5	200	0	0	23.8168	1	0	
4	0	29.1474	0	936	1551	2975	4263	501	3.5	200	0	1	29.8872		1	
5	1	33.9295	1	936	1551	2975	4263	501	3.5	200	0	1	35.7665		1	
6	1	41.7050	0	936	1551	2975	4263	501	3.5	200	0	0	43.9643	1	1	
7	0	49.8564	1	437	2761	2975	4263	701	3.5	200	1	1	51.5221	1	1	
8	0	55.1532	0	437	2761	2975	4263	576	3.5	200	1	1	56.2837	1	1	
9	0	62.0038	0	437	2761	2975	4263	601	3.5	200	1	0	62.9875		1	
10	1	68.1176	1	437	2761	2975	4263	601	3.5	200	1	1	70.2108	1	1	
11	0	74.1823	0	936	1551	2975	4263	726	3.5	200	0	0	75.2111	1	1	
12	0	80.7147	0	936	1551	2975	4263	676	3.5	200	0	0	82.3464	1	0	
13	0	87.7765	0	437	2761	2975	4263	651	3.5	200	1	1	88.4495	1	0	
14	0	94.7214	0	936	1551	2975	4263	501	3.5	200	0	0	96.0881	1	0	
15	0	101.2953	0	936	1551	2975	4263	576	3.5	200	0	1	102.0447		1	
16	1	106.6936	0	936	1551	2975	4263	576	3.5	200	0	0	107.7500	1	1	
17	0	113.3823	0	437	2761	2975	4263	726	3.5	200	1	1	114.1899	1	1	
18	0	117.6557	0	437	2761	2975	4263	751	3.5	200	1	1	118.1192	1	0	
19	0	121.9126	1	437	2761	2975	4263	626	3.5	200	1	1	122.4915	1	1	
20	0	126.2813	1	936	1551	2975	4263	526	3.5	200	0	1	129.2115		1	
21	1	132.9700	0	936	1551	2975	4263	526	3.5	200	0	1	133.6044		1	
22	1	140.3140	0	936	1551	2975	4263	526	3.5	200	0	1	141.4416		1	
23	1	147.3767	1	936	1551	2975	4263	526	3.5	200	0	1	149.5589		1	
24	1	153.1373	0	936	1551	2975	4263	526	3.5	200	0	0	154.4390	1	1	
25	0	159.4673	0	936	1551	2975	4263	701	3.5	200	0	0	160.4412	1	0	
26	0	166.3226	0	936	1551	2975	4263	651	3.5	200	0	0	167.4555	1	1	
27	0	173.0396	0	437	2761	2975	4263	601	3.5	200	1	1	173.7770	1	0	
28	0	184.9308	0	936	1551	2975	4263	676	3.5	200	0	0	186.3320	1	1	
29	0	191.0571	0	437	2761	2975	4263	676	3.5	200	1	1	191.8368	1	1	
30	0	197.8572	0	936	1551	2975	4263	551	3.5	200	0	0	198.7294	1	0	
31	0	204.8308	0	936	1551	2975	4263	576	3.5	200	0	0	206.2584	1	0	
32	0	211.5451	0	437	2761	2975	4263	651	3.5	200	1	1	212.0247	1	0	
33	0	218.5474	1	936	1551	2975	4263	526	3.5	200	0	1	220.6225		1	
34	1	226.3733	0	936	1551	2975	4263	526	3.5	200	0	0	227.5293	1	1	
35	0	232.2960	1	936	1551	2975	4263	601	3.5	200	0	0	235.5574	1	0	
36	0	241.6498	0	437	2761	2975	4263	726	3.5	200	1	1	242.4780	1	0	
37	0	250.5343	0	437	2761	2975	4263	751	3.5	200	1	0	251.5284		1	
38	1	256.5910	0	437	2761	2975	4263	751	3.5	200	1	1	257.8457	1	1	
39	0	262.1500	0	936	1551	2975	4263	626	3.5	200	0	0	263.1790	1	1	
40	0	268.9077	1	936	1551	2975	4263	701	3.5	200	0	0	269.8275	1	0	
41	0	275.3892	1	437	2761	2975	4263	701	3.5	200	1	1	278.4495	1	0	
42	0	281.9477	0	437	2761	2975	4263	651	3.5	200	1	1	282.9401	1	0	
43	0	286.8934	0	437	2761	2975	4263	526	3.5	200	1	0	287.9533		1	
44	1	292.7256	1	437	2761	2975	4263	526	3.5	200	1	1	295.0286	1	1	
45	0	302.0134	1	437	2761	2975	4263	626	3.5	200	1	1	304.2222	1	1	
46	0	307.9748	1	936	1551	2975	4263	601	3.5	200	0	0	311.2165	1	0	
47	0	317.0346	1	936	1551	2975	4263	676	3.5	200	0	1	319.1763		1	
48	1	324.5806	0	936	1551	2975	4263	676	3.5	200	0	0	326.1820	1	1	
49	0	332.0540	0	936	1551	2975	4263	501	3.5	200	0	0	333.5840	1	0	
50	0	339.7464	1	437	2761	2975	4263	751	3.5	200	1	1	341.3941	1	0	
51	0	345.2114	0	437	2761	2975	4263	551	3.5	200	1	1	346.1084	1	0	
52	0	350.1213	0	437	2761	2975	4263	576	3.5	200	1	0	351.4496		1	
53	1	355.6850	0	437	2761	2975	4263	576	3.5	200	1	1	356.6141	1	1	
54	0	362.6813	0	936	1551	2975	4263	526	3.5	200	0	0	363.8656	1	1	
55	0	369.0112	0	936	1551	2975	4263	601	3.5	200	0	1	369.9598		0	
56	1	374.2794	0	936	1551	2975	4263	601	3.5	200	0	0	374.9461	1	0	
57	0	380.8100	0	936	1551	2975	4263	551	3.5	200	0	0	382.1033	1	1	
58	0	388.6660	0	437	2761	2975	4263	576	3.5	200	1	1	389.6197	1	0	
59	0	392.9231	1	936	1551	2975	4263	501	3.5	200	0	0	393.9940	1	0	
60	0	399.5767	0	437	2761	2975	4263	626	3.5	200	1	1	401.2644	1	1	
61	0	405.5851	1	936	1551	2975	4263	701	3.5	200	0	1	407.5682		1	
62	1	412.3094	1	936	1551	2975	4263	701	3.5	200	0	0	414.8719	1	1	
63	0	419.9263	0	437	2761	2975	4263	651	3.5	200	1	0	421.2152		1	
64	1	426.0291	1	437	2761	2975	4263	651	3.5	200	1	1	428.4915	1	1	
65	0	431.9605	1	437	2761	2975	4263	676	3.5	200	1	0	434.7487		1	
66	1	440.8750	1	437	2761	2975	4263	676	3.5	200	1	1	442.7521	1	1	
67	0	447.1079	0	437	2761	2975	4263	751	3.5	200	1	1	447.9314	1	0	
68	0	452.2348	0	437	2761	2975	4263	601	3.5	200	1	0	453.7433		0	
69	1	459.3876	1	437	2761	2975	4263	601	3.5	200	1	0	461.5860		0	
70	1	466.0330	0	437	2761	2975	4263	601	3.5	200	1	1	466.8674	1	0	
71	0	470.3949	0	936	1551	2975	4263	651	3.5	200	0	0	471.5756	1	1	
72	0	477.9445	0	437	2761	2975	4263	751	3.5	200	1	0	478.9108		1	
73	1	484.2605	0	437	2761	2975	4263	751	3.5	200	1	1	485.1764	1	1	
74	0	492.4074	0	936	1551	2975	4263	576	3.5	200	0	0	493.7021	1	1	
75	0	499.3038	0	437	2761	2975	4263	551	3.5	200	1	1	500.3028	1	0	
76	0	507.2063	0	936	1551	2975	4263	626	3.5	200	0	0	508.0458	1	0	
77	0	514.1389	0	936	1551	2975	4263	676	3.5	200	0	0	515.1180	1	0	
78	0	521.8765	0	437	2761	2975	4263	701	3.5	200	1	1	522.8678	1	1	
79	0	530.0589	0	936	1551	2975	4263	726	3.5	200	0	0	531.2004	1	1	
80	0	536.2840	0	936	1551	2975	4263	526	3.5	200	0	1	537.0802		0	
81	1	542.9908	0	936	1551	2975	4263	526	3.5	200	0	0	544.0682	1	0	
82	0	549.1533	1	437	2761	2975	4263	551	3.5	200	1	1	551.6602	1	0	
83	0	555.4946	0	936	1551	2975	4263	626	3.5	200	0	0	556.6719	1	0	
84	0	562.0741	0	936	1551	2975	4263	526	3.5	200	0	0	563.1168	1	1	
85	0	568.4367	0	936	1551	2975	4263	601	3.5	200	0	1	577.7611		0	
86	1	582.3448	0	936	1551	2975	4263	601	3.5	200	0	0	583.3642	1	0	
87	0	587.8580	1	437	2761	2975	4263	576	3.5	200	1	1	589.6428	1	0	
88	0	593.5645	0	936	1551	2975	4263	726	3.5	200	0	0	595.0234	1	1	
89	0	600.0076	1	437	2761	2975	4263	651	3.5	200	1	1	602.4260	1	1	
90	0	606.3833	1	437	2761	2975	4263	676	3.5	200	1	1	608.8359	1	1	
91	0	613.4694	0	437	2761	2975	4263	701	3.5	200	1	0	614.6566		1	
92	1	622.7892	0	437	2761	2975	4263	701	3.5	200	1	0	624.2995		1	
93	1	629.3831	0	437	2761	2975	4263	701	3.5	200	1	1	630.3236	1	1	
94	0	634.2913	0	936	1551	2975	4263	501	3.5	200	0	0	635.2001	1	1	
95	0	640.4612	0	437	2761	2975	4263	576	3.5	200	1	1	641.4713	1	0	
96	0	645.0697	0	936	1551	2975	4263	501	3.5	200	0	0	646.1320	1	0	
97	0	651.6975	0	437	2761	2975	4263	751	3.5	200	1	1	652.7282	1	1	
98	0	659.4939	0	936	1551	2975	4263	651	3.5	200	0	0	660.6455	1	1	
99	0	666.0152	0	936	1551	2975	4263	551	3.5	200	0	0	667.3119	1	0	
100	0	673.3533	0	437	2761	2975	4263	676	3.5	200	1	1	674.2068	1	0	
101	0	684.2253	1	936	1551	2975	4263	626	3.5	200	0	0	686.7007	1	0	
102	0	691.5393	0	936	1551	2975	4263	701	3.5	200	0	1	692.6823		1	
103	1	698.4813	0	936	1551	2975	4263	701	3.5	200	0	1	699.4636		1	
104	1	704.9615	0	936	1551	2975	4263	701	3.5	200	0	0	706.0314	1	1	
105	0	710.6413	0	437	2761	2975	4263	601	3.5	200	1	1	711.5346	1	0	
