Trial	CorrectionTrial?	StartTime	CenterReward?	F1	F2	F3	F4	HoldTime	Atten	Pitch	Side	Response	RespTime	Correct	Mask	
1	0	43.5705	1	437	2761	2975	4263	651	-10.5	200	1	1	44.2493	1	1	
2	0	51.7157	0	936	1551	2975	4263	751	-10.5	200	0	0	53.3457	1	0	
3	0	65.8248	0	437	2761	2975	4263	551	-10.5	200	1	0	66.9711		1	
4	1	72.9831	1	437	2761	2975	4263	551	-10.5	200	1	1	73.7152	1	1	
5	0	79.5718	0	437	2761	2975	4263	626	-10.5	200	1	1	80.1575	1	0	
6	0	86.4756	0	936	1551	2975	4263	701	-10.5	200	0	1	87.4099		1	
7	1	92.6764	0	936	1551	2975	4263	701	-10.5	200	0	1	93.5194		1	
8	1	99.0970	0	936	1551	2975	4263	701	-10.5	200	0	0	100.2285	1	1	
9	0	106.4084	1	936	1551	2975	4263	726	-10.5	200	0	0	107.4508	1	1	
10	0	113.9010	1	437	2761	2975	4263	676	-10.5	200	1	0	115.8270		0	
11	1	120.9487	0	437	2761	2975	4263	676	-10.5	200	1	1	121.5672	1	0	
12	0	125.1442	0	936	1551	2975	4263	601	-10.5	200	0	1	125.6028		0	
13	1	130.9489	0	936	1551	2975	4263	601	-10.5	200	0	0	132.0900	1	0	
14	0	137.9822	0	936	1551	2975	4263	576	-10.5	200	0	0	139.2387	1	0	
15	0	146.1677	1	936	1551	2975	4263	501	-10.5	200	0	0	147.2791	1	1	
16	0	154.6295	1	437	2761	2975	4263	626	-10.5	200	1	0	156.5775		1	
17	1	162.3555	1	437	2761	2975	4263	626	-10.5	200	1	1	164.0940	1	1	
18	0	167.5317	1	437	2761	2975	4263	576	-10.5	200	1	0	168.7831		0	
19	1	174.0004	1	437	2761	2975	4263	576	-10.5	200	1	1	175.9167	1	0	
20	0	179.2420	1	437	2761	2975	4263	601	-10.5	200	1	0	180.5405		1	
21	1	186.3078	0	437	2761	2975	4263	601	-10.5	200	1	1	187.2510	1	1	
22	0	193.6692	1	936	1551	2975	4263	651	-10.5	200	0	0	195.6438	1	1	
23	0	201.9829	0	437	2761	2975	4263	501	-10.5	200	1	1	203.1953	1	0	
24	0	206.6165	0	936	1551	2975	4263	551	-10.5	200	0	0	207.5459	1	0	
25	0	213.2218	0	437	2761	2975	4263	726	-10.5	200	1	0	214.7232		1	
26	1	220.4715	1	437	2761	2975	4263	726	-10.5	200	1	1	220.8142	1	1	
27	0	224.2665	0	437	2761	2975	4263	676	-10.5	200	1	1	225.6117	1	0	
28	0	231.9121	0	936	1551	2975	4263	701	-10.5	200	0	0	233.5432	1	1	
29	0	239.7933	0	437	2761	2975	4263	526	-10.5	200	1	1	240.6212	1	0	
30	0	243.9937	0	936	1551	2975	4263	576	-10.5	200	0	0	245.1486	1	0	
31	0	251.2954	1	936	1551	2975	4263	626	-10.5	200	0	0	253.2960	1	0	
32	0	259.6001	0	936	1551	2975	4263	751	-10.5	200	0	1	260.5442		1	
33	1	265.8536	0	936	1551	2975	4263	751	-10.5	200	0	0	267.2914	1	1	
34	0	273.5848	0	437	2761	2975	4263	501	-10.5	200	1	0	275.0001		1	
35	1	280.7769	0	437	2761	2975	4263	501	-10.5	200	1	1	281.3984	1	1	
36	0	289.8928	0	936	1551	2975	4263	701	-10.5	200	0	0	291.3345	1	0	
37	0	297.1413	1	936	1551	2975	4263	676	-10.5	200	0	0	298.2538	1	0	
38	0	303.5763	0	437	2761	2975	4263	601	-10.5	200	1	0	305.4057		1	
39	1	311.6186	0	437	2761	2975	4263	601	-10.5	200	1	1	312.3065	1	1	
40	0	319.6187	0	936	1551	2975	4263	726	-10.5	200	0	0	320.9039	1	1	
41	0	328.8617	0	437	2761	2975	4263	526	-10.5	200	1	1	329.9338	1	1	
42	0	336.4120	1	437	2761	2975	4263	651	-10.5	200	1	1	337.3298	1	1	
43	0	341.2579	0	936	1551	2975	4263	701	-10.5	200	0	0	342.6908	1	1	
44	0	348.7528	0	437	2761	2975	4263	651	-10.5	200	1	0	349.9487		0	
45	1	356.0010	0	437	2761	2975	4263	651	-10.5	200	1	1	356.8282	1	0	
46	0	360.3057	0	437	2761	2975	4263	601	-10.5	200	1	1	360.7949	1	0	
47	0	364.5398	1	437	2761	2975	4263	576	-10.5	200	1	1	365.1019	1	0	
48	0	369.0829	0	936	1551	2975	4263	626	-10.5	200	0	1	370.4394		1	
49	1	375.3633	0	936	1551	2975	4263	626	-10.5	200	0	0	377.6169	1	1	
50	0	383.9015	1	936	1551	2975	4263	751	-10.5	200	0	0	385.8908	1	0	
51	0	391.7361	0	437	2761	2975	4263	551	-10.5	200	1	1	392.5568	1	0	
52	0	397.4659	0	437	2761	2975	4263	501	-10.5	200	1	0	399.0363		1	
53	1	404.8791	1	437	2761	2975	4263	501	-10.5	200	1	1	407.0853	1	1	
54	0	410.2362	1	936	1551	2975	4263	526	-10.5	200	0	0	411.7411	1	1	
55	0	418.2808	1	437	2761	2975	4263	726	-10.5	200	1	1	421.5338	1	0	
56	0	425.8645	0	936	1551	2975	4263	701	-10.5	200	0	0	427.1127	1	0	
57	0	434.0446	0	936	1551	2975	4263	501	-10.5	200	0	0	435.6597	1	1	
58	0	441.2554	0	936	1551	2975	4263	751	-10.5	200	0	1	442.0703		0	
59	1	449.0793	0	936	1551	2975	4263	751	-10.5	200	0	0	450.6553	1	0	
60	0	456.6994	0	437	2761	2975	4263	651	-10.5	200	1	1	457.6673	1	1	
61	0	461.2876	0	437	2761	2975	4263	526	-10.5	200	1	1	462.1718	1	0	
62	0	465.8514	0	437	2761	2975	4263	551	-10.5	200	1	0	467.2582		1	
63	1	472.5236	0	437	2761	2975	4263	551	-10.5	200	1	1	473.5266	1	1	
64	0	479.9354	1	936	1551	2975	4263	676	-10.5	200	0	0	481.8136	1	1	
65	0	489.3224	1	936	1551	2975	4263	601	-10.5	200	0	0	491.3725	1	0	
66	0	499.3071	0	936	1551	2975	4263	726	-10.5	200	0	1	500.4075		1	
67	1	506.3401	0	936	1551	2975	4263	726	-10.5	200	0	0	508.0687	1	1	
68	0	515.0926	1	437	2761	2975	4263	576	-10.5	200	1	1	516.5732	1	1	
69	0	520.4475	1	437	2761	2975	4263	601	-10.5	200	1	0	521.4034		1	
70	1	526.3961	0	437	2761	2975	4263	601	-10.5	200	1	1	527.3292	1	1	
71	0	531.0675	0	437	2761	2975	4263	551	-10.5	200	1	1	531.6022	1	0	
72	0	538.2193	0	437	2761	2975	4263	751	-10.5	200	1	1	538.8547	1	0	
73	0	548.7693	0	936	1551	2975	4263	576	-10.5	200	0	0	550.2524	1	0	
74	0	561.8172	1	437	2761	2975	4263	726	-10.5	200	1	0	562.9849		1	
75	1	567.3880	1	437	2761	2975	4263	726	-10.5	200	1	1	568.0348	1	1	
76	0	576.8547	1	936	1551	2975	4263	676	-10.5	200	0	0	578.2466	1	0	
77	0	584.4715	0	437	2761	2975	4263	626	-10.5	200	1	1	585.2934	1	0	
78	0	588.9693	0	936	1551	2975	4263	526	-10.5	200	0	0	590.2205	1	1	
79	0	595.9144	0	936	1551	2975	4263	701	-10.5	200	0	0	597.1057	1	0	
80	0	604.4599	1	936	1551	2975	4263	651	-10.5	200	0	0	605.8978	1	1	
81	0	613.2772	0	936	1551	2975	4263	676	-10.5	200	0	0	614.5477	1	0	
82	0	621.2700	1	437	2761	2975	4263	701	-10.5	200	1	1	622.2286	1	1	
83	0	629.8299	1	936	1551	2975	4263	576	-10.5	200	0	0	631.3974	1	1	
84	0	637.7271	0	437	2761	2975	4263	526	-10.5	200	1	1	638.5223	1	0	
85	0	646.2459	1	437	2761	2975	4263	751	-10.5	200	1	1	646.9348	1	0	
86	0	651.0510	0	437	2761	2975	4263	626	-10.5	200	1	0	658.0551		1	
87	1	662.2752	0	437	2761	2975	4263	626	-10.5	200	1	1	663.1860	1	1	
88	0	666.6685	0	437	2761	2975	4263	601	-10.5	200	1	1	667.1157	1	0	
89	0	671.1995	0	936	1551	2975	4263	551	-10.5	200	0	0	672.5749	1	0	
90	0	678.3752	1	936	1551	2975	4263	501	-10.5	200	0	0	680.0504	1	1	
91	0	686.9057	0	936	1551	2975	4263	726	-10.5	200	0	0	688.5996	1	1	
92	0	696.1157	0	437	2761	2975	4263	601	-10.5	200	1	1	696.8444	1	1	
93	0	700.3034	0	936	1551	2975	4263	576	-10.5	200	0	0	701.3057	1	0	
94	0	707.0037	1	936	1551	2975	4263	626	-10.5	200	0	0	708.5260	1	0	
95	0	715.2482	0	437	2761	2975	4263	751	-10.5	200	1	1	715.9416	1	0	
96	0	719.6520	0	437	2761	2975	4263	526	-10.5	200	1	0	721.1569		0	
97	1	725.9957	0	437	2761	2975	4263	526	-10.5	200	1	1	726.9048	1	0	
98	0	730.4262	0	437	2761	2975	4263	651	-10.5	200	1	1	731.3919	1	1	
99	0	735.0509	0	936	1551	2975	4263	501	-10.5	200	0	0	737.4986	1	1	
100	0	743.7102	0	437	2761	2975	4263	676	-10.5	200	1	1	744.4647	1	0	
101	0	747.9032	0	437	2761	2975	4263	726	-10.5	200	1	0	749.0657		1	
102	1	753.2657	0	437	2761	2975	4263	726	-10.5	200	1	1	754.0507	1	1	
103	0	760.0064	0	936	1551	2975	4263	551	-10.5	200	0	1	761.1530		1	
104	1	769.6696	0	936	1551	2975	4263	551	-10.5	200	0	1	773.0611		1	
105	1	778.3892	0	936	1551	2975	4263	551	-10.5	200	0	0	779.8656	1	1	
106	0	785.0862	0	437	2761	2975	4263	526	-10.5	200	1	0	786.7250		1	
107	1	810.1302	0	437	2761	2975	4263	526	-10.5	200	1	0	811.5972		1	
108	1	816.1331	0	437	2761	2975	4263	526	-10.5	200	1	0	817.6003		1	
