Trial	CorrectionTrial?	StartTime	CenterReward?	SpkrIdx	SpkrPos	duration	HoldTime	Atten	Response	RespTime	Correct	ComputerTime	SoundOrLED	
1	0	13.145	0	8	90	700	1141	9.0	3	23.873	0	736561.417708	0	
2	1	34.311	0	8	90	700	1141	9.0	3	38.713	0	736561.417880	0	
3	1	60.615	0	8	90	700	1141	9.0	8	62.343	1	736561.418153	0	
4	0	78.311	1	4	-30	700	1081	0.0	4	80.144	1	736561.418359	0	
5	0	95.844	0	8	90	700	1041	4.5	8	100.891	1	736561.418600	0	
6	0	116.829	0	6	30	700	1201	9.0	6	119.105	1	736561.418810	0	
7	0	128.293	0	7	60	700	1061	9.0	7	129.796	1	736561.418934	0	
8	0	145.876	0	5	0	700	1101	4.5	6	147.286	0	736561.419136	0	
9	1	152.594	0	5	0	700	1101	4.5	4	154.258	0	736561.419217	0	
10	1	159.483	0	5	0	700	1101	4.5	5	160.818	1	736561.419293	0	
11	0	178.372	0	3	-60	700	1021	4.5	2	180.099	0	736561.419516	0	
12	1	185.324	0	3	-60	700	1021	4.5	3	186.536	1	736561.419591	0	
13	0	195.691	0	4	-30	700	1001	9.0	2	197.424	0	736561.419717	0	
14	1	202.723	0	4	-30	700	1001	9.0	3	204.028	0	736561.419793	0	
15	1	209.185	0	4	-30	700	1001	9.0	4	210.657	1	736561.419870	0	
16	0	227.929	0	2	-90	700	1181	9.0	2	229.090	1	736561.420084	0	
17	0	241.048	0	5	0	700	1161	4.5	6	242.171	0	736561.420234	0	
18	1	270.094	0	5	0	700	1161	4.5	5	271.796	1	736561.420578	0	
19	0	286.895	0	7	60	700	1081	0.0	8	287.962	0	736561.420765	0	
20	1	298.006	0	7	60	700	1081	0.0	6	299.340	0	736561.420897	0	
21	1	307.319	1	7	60	700	1081	0.0	6	312.019	0	736561.421043	0	
22	1	318.014	0	7	60	700	1081	0.0	2	320.041	0	736561.421136	0	
23	1	325.275	0	7	60	700	1081	0.0	8	326.807	0	736561.421214	0	
24	1	337.096	0	7	60	700	1081	0.0	6	338.729	0	736561.421353	0	
25	1	344.199	0	7	60	700	1081	0.0	3	346.059	0	736561.421437	0	
26	1	352.568	0	7	60	700	1081	0.0	8	354.348	0	736561.421533	0	
27	1	359.990	0	7	60	700	1081	0.0	4	363.275	0	736561.421636	0	
28	1	377.183	0	7	60	700	1081	0.0	2	378.342	0	736561.421811	0	
29	1	383.586	0	7	60	700	1081	0.0	6	384.880	0	736561.421886	0	
30	1	390.083	0	7	60	700	1081	0.0	5	391.568	0	736561.421964	0	
31	1	397.937	0	7	60	700	1081	0.0	8	400.009	0	736561.422062	0	
32	1	406.750	0	7	60	700	1081	0.0	5	408.346	0	736561.422158	0	
33	1	411.602	0	7	60	700	1081	0.0	7	413.285	1	736561.422215	0	
34	0	428.063	0	6	30	700	1201	4.5	6	429.457	1	736561.422403	0	
35	0	438.859	1	3	-60	700	1001	9.0	2	444.836	0	736561.422581	0	
36	1	450.003	1	3	-60	700	1001	9.0	3	459.393	1	736561.422750	0	
37	0	477.747	0	2	-90	700	1061	0.0	2	479.602	1	736561.422983	0	
38	0	492.325	0	4	-30	700	1181	4.5	2	493.874	0	736561.423148	0	
39	1	499.422	0	4	-30	700	1181	4.5	4	501.213	1	736561.423234	0	
40	0	518.350	0	4	-30	700	1041	0.0	6	528.130	0	736561.423545	0	
41	1	533.328	0	4	-30	700	1041	0.0	4	534.668	1	736561.423620	0	
42	0	553.159	0	8	90	700	1161	9.0	6	554.434	0	736561.423849	0	
43	1	559.762	0	8	90	700	1161	9.0	4	565.245	0	736561.423974	0	
44	1	575.877	0	8	90	700	1161	9.0	8	577.325	1	736561.424113	0	
45	0	597.958	0	2	-90	700	1021	0.0	2	599.231	1	736561.424367	0	
46	0	611.221	0	5	0	700	1101	9.0	6	612.664	0	736561.424523	0	
47	1	617.901	0	5	0	700	1101	9.0	5	619.389	1	736561.424600	0	
48	0	635.417	0	3	-60	700	1121	4.5	2	637.366	0	736561.424808	0	
49	1	642.654	0	3	-60	700	1121	4.5	6	651.080	0	736561.424967	0	
50	1	656.309	0	3	-60	700	1121	4.5	2	659.948	0	736561.425070	0	
51	1	665.209	1	3	-60	700	1121	4.5	3	667.472	1	736561.425157	0	
52	0	683.417	0	6	30	700	1021	4.5	6	689.433	1	736561.425411	0	
53	0	698.177	0	3	-60	700	1101	0.0	3	701.770	1	736561.425554	0	
54	0	717.994	0	6	30	700	1061	9.0	6	719.507	1	736561.425759	0	
55	0	728.029	0	8	90	700	1201	4.5	6	730.158	0	736561.425883	0	
56	1	745.948	0	8	90	700	1201	4.5	2	748.207	0	736561.426091	0	
57	1	753.512	0	8	90	700	1201	4.5	7	754.744	0	736561.426167	0	
58	1	762.578	0	8	90	700	1201	4.5	8	763.879	1	736561.426273	0	
59	0	785.869	0	7	60	700	1161	4.5	6	787.211	0	736561.426543	0	
60	1	792.572	0	7	60	700	1161	4.5	7	793.733	1	736561.426619	0	
61	0	806.898	0	2	-90	700	1141	0.0	2	810.251	1	736561.426810	0	
62	0	823.998	0	5	0	700	1001	9.0	5	825.236	1	736561.426984	0	
63	0	843.051	0	7	60	700	1041	4.5	6	844.385	0	736561.427205	0	
64	1	849.561	0	7	60	700	1041	4.5	7	850.713	1	736561.427279	0	
65	0	863.921	0	7	60	700	1081	4.5	7	865.191	1	736561.427445	0	
66	0	878.828	0	6	30	700	1181	9.0	5	880.404	0	736561.427621	0	
67	1	885.398	1	6	30	700	1181	9.0	6	891.785	1	736561.427753	0	
68	0	901.131	0	7	60	700	1081	0.0	6	903.116	0	736561.427885	0	
69	1	910.799	0	7	60	700	1081	0.0	7	912.698	1	736561.427996	0	
70	0	925.604	0	2	-90	700	1041	9.0	2	930.301	1	736561.428199	0	
71	0	945.140	0	3	-60	700	1201	9.0	2	948.268	0	736561.428407	0	
72	1	960.257	0	3	-60	700	1201	9.0	2	963.685	0	736561.428585	0	
73	1	968.993	1	3	-60	700	1201	9.0	6	975.595	0	736561.428724	0	
74	1	980.903	0	3	-60	700	1201	9.0	2	982.689	0	736561.428805	0	
75	1	990.923	0	3	-60	700	1201	9.0	4	993.336	0	736561.428929	0	
76	1	1002.782	0	3	-60	700	1201	9.0	2	1005.733	0	736561.429073	0	
77	1	1018.822	0	3	-60	700	1201	9.0	4	1020.561	0	736561.429244	0	
78	1	1025.895	0	3	-60	700	1201	9.0	4	1027.168	0	736561.429321	0	
79	1	1035.765	0	3	-60	700	1201	9.0	6	1045.333	0	736561.429531	0	
80	1	1051.426	0	3	-60	700	1201	9.0	3	1053.316	1	736561.429623	0	
81	0	1068.941	0	8	90	700	1061	4.5	7	1070.314	0	736561.429820	0	
82	1	1076.784	0	8	90	700	1061	4.5	3	1078.965	0	736561.429920	0	
83	1	1084.546	0	8	90	700	1061	4.5	8	1086.003	1	736561.430002	0	
84	0	1104.320	0	3	-60	700	1181	4.5	2	1108.225	0	736561.430259	0	
85	1	1113.588	0	3	-60	700	1181	4.5	3	1115.801	1	736561.430345	0	
86	0	1130.141	0	2	-90	700	1121	0.0	3	1131.658	0	736561.430530	0	
87	1	1139.526	0	2	-90	700	1121	0.0	2	1141.047	1	736561.430639	0	
88	0	1156.575	1	4	-30	700	1021	0.0	6	1160.824	0	736561.430868	0	
89	1	1167.042	0	4	-30	700	1021	0.0	4	1169.662	1	736561.430969	0	
90	0	1179.883	0	4	-30	700	1101	9.0	2	1181.522	0	736561.431106	0	
91	1	1188.237	0	4	-30	700	1101	9.0	2	1195.032	0	736561.431263	0	
92	1	1206.752	0	4	-30	700	1101	9.0	5	1208.567	0	736561.431420	0	
93	1	1224.709	0	4	-30	700	1101	9.0	2	1227.107	0	736561.431635	0	
