Trial	CorrectionTrial?	StartTime	CenterReward?	SpkrIdx	SpkrPos	duration	HoldTime	Atten	Response	RespTime	Correct	ComputerTime	SoundOrLED	
1	0	57.807	0	4	-30	700	1061	0.0	3	64.961	0	736623.616580	0	
2	1	81.693	0	4	-30	700	1061	0.0	3	84.056	0	736623.616801	0	
3	1	89.333	0	4	-30	700	1061	0.0	3	101.795	0	736623.617007	0	
4	1	111.457	0	4	-30	700	1061	0.0	3	114.891	0	736623.617158	0	
5	1	132.656	0	4	-30	700	1061	0.0	6	133.882	0	736623.617378	0	
6	1	139.381	0	4	-30	700	1061	0.0	8	151.995	0	736623.617587	0	
7	1	164.052	0	4	-30	700	1061	0.0	3	169.842	0	736623.617794	0	
8	1	177.861	0	4	-30	700	1061	0.0	3	180.993	0	736623.617923	0	
9	1	186.213	0	4	-30	700	1061	0.0	3	187.587	0	736623.618000	0	
10	1	192.814	0	4	-30	700	1061	0.0	8	196.705	0	736623.618105	0	
11	1	211.018	0	4	-30	700	1061	0.0	2	214.393	0	736623.618310	0	
12	1	230.685	0	4	-30	700	1061	0.0	6	232.025	0	736623.618514	0	
13	1	257.069	0	4	-30	700	1061	0.0	6	258.956	0	736623.618825	0	
14	1	264.121	0	4	-30	700	1061	0.0	3	269.647	0	736623.618949	0	
15	1	274.826	0	4	-30	700	1061	0.0	3	279.452	0	736623.619062	0	
16	1	284.629	0	4	-30	700	1061	0.0	2	299.043	0	736623.619289	0	
17	1	349.507	0	4	-30	700	1061	0.0	3	353.889	0	736623.619924	0	
18	1	400.506	0	4	-30	700	1061	0.0	3	401.902	0	736623.620480	0	
19	1	407.323	0	4	-30	700	1061	0.0	8	409.150	0	736623.620563	0	
20	0	465.226	0	3	-60	700	1021	4.5	3	472.719	1	736623.621299	0	
21	0	484.181	0	2	-90	700	1081	4.5	3	485.661	0	736623.621450	0	
22	1	490.957	0	2	-90	700	1081	4.5	2	492.329	1	736623.621526	0	
23	0	503.621	0	4	-30	700	1161	9.0	3	505.053	0	736623.621673	0	
24	1	510.317	1	4	-30	700	1161	9.0	2	517.066	0	736623.621813	0	
25	1	524.452	0	4	-30	700	1161	9.0	6	526.450	0	736623.621921	0	
26	1	531.718	0	4	-30	700	1161	9.0	3	534.620	0	736623.622016	0	
27	1	539.922	0	4	-30	700	1161	9.0	2	552.173	0	736623.622220	0	
28	1	557.435	0	4	-30	700	1161	9.0	8	566.150	0	736623.622381	0	
29	1	658.588	0	4	-30	700	1161	9.0	2	664.573	0	736623.623520	0	
30	1	669.835	0	4	-30	700	1161	9.0	6	670.873	0	736623.623593	0	
31	1	676.223	0	4	-30	700	1161	9.0	8	677.912	0	736623.623674	0	
32	1	683.232	0	4	-30	700	1161	9.0	3	684.642	0	736623.623752	0	
33	1	692.613	0	4	-30	700	1161	9.0	3	696.318	0	736623.623887	0	
34	1	701.622	1	4	-30	700	1161	9.0	2	711.338	0	736623.624061	0	
35	1	716.666	0	4	-30	700	1161	9.0	8	723.492	0	736623.624202	0	
36	1	730.886	0	4	-30	700	1161	9.0	7	733.093	0	736623.624313	0	
37	1	741.043	0	4	-30	700	1161	9.0	2	745.748	0	736623.624459	0	
38	1	751.024	0	4	-30	700	1161	9.0	-1	-1.000	0	736623.624694	0	
39	0	780.309	0	8	90	700	1101	4.5	8	781.838	1	736623.624877	0	
40	0	800.128	0	3	-60	700	1201	0.0	2	804.845	0	736623.625143	0	
41	1	810.161	0	3	-60	700	1201	0.0	2	811.240	0	736623.625217	0	
42	1	816.561	0	3	-60	700	1201	0.0	3	817.731	1	736623.625292	0	
43	0	825.772	0	2	-90	700	1001	0.0	2	827.263	1	736623.625403	0	
44	0	840.122	0	6	30	700	1121	4.5	6	841.498	1	736623.625568	0	
45	0	848.887	0	6	30	700	1041	4.5	6	850.432	1	736623.625671	0	
46	0	858.112	1	8	90	700	1181	0.0	7	862.997	0	736623.625817	0	
47	1	868.344	0	8	90	700	1181	0.0	8	869.369	1	736623.625890	0	
48	0	887.126	0	7	60	700	1141	4.5	6	889.572	0	736623.626124	0	
49	1	899.637	0	7	60	700	1141	4.5	8	900.971	0	736623.626255	0	
50	1	906.896	0	7	60	700	1141	4.5	7	908.630	1	736623.626344	0	
51	0	916.506	0	7	60	700	1021	0.0	8	917.894	0	736623.626452	0	
52	1	926.898	0	7	60	700	1021	0.0	7	928.362	1	736623.626572	0	
53	0	944.074	0	4	-30	700	1061	4.5	3	946.388	0	736623.626782	0	
54	1	951.636	0	4	-30	700	1061	4.5	4	960.194	1	736623.626941	0	
55	0	972.563	0	7	60	700	1081	0.0	4	965.083	0	736623.627085	0	
56	1	977.333	0	7	60	700	1081	0.0	7	978.603	1	736623.627155	0	
57	0	993.383	0	8	90	700	1101	9.0	6	994.748	0	736623.627342	0	
58	1	999.964	0	8	90	700	1101	9.0	8	1001.514	1	736623.627420	0	
59	0	1016.250	0	6	30	700	1121	0.0	6	1017.578	1	736623.627605	0	
60	0	1027.031	0	2	-90	700	1201	0.0	2	1028.143	1	736623.627728	0	
61	0	1042.834	0	6	30	700	1161	9.0	6	1044.110	1	736623.627913	0	
62	0	1052.549	0	3	-60	700	1181	9.0	2	1054.073	0	736623.628028	0	
63	1	1059.451	0	3	-60	700	1181	9.0	3	1060.856	1	736623.628106	0	
64	0	1070.834	0	8	90	700	1001	4.5	8	1072.488	1	736623.628242	0	
65	0	1083.831	0	4	-30	700	1161	9.0	4	1084.982	1	736623.628386	0	
66	0	1093.852	0	3	-60	700	1141	0.0	2	1094.989	0	736623.628502	0	
67	1	1100.305	0	3	-60	700	1141	0.0	4	1101.539	0	736623.628577	0	
68	1	1106.817	0	3	-60	700	1141	0.0	3	1108.139	1	736623.628654	0	
69	0	1118.110	0	2	-90	700	1041	4.5	3	1119.391	0	736623.628784	0	
70	1	1124.610	0	2	-90	700	1041	4.5	3	1125.636	0	736623.628856	0	
71	1	1134.587	0	2	-90	700	1041	4.5	2	1136.060	1	736623.628976	0	
72	0	1148.608	0	7	60	700	1061	0.0	6	1149.894	0	736623.629138	0	
73	1	1155.134	0	7	60	700	1061	0.0	7	1156.087	1	736623.629208	0	
74	0	1168.223	0	8	90	700	1081	4.5	8	1169.625	1	736623.629365	0	
75	0	1181.553	0	7	60	700	1201	0.0	6	1183.060	0	736623.629521	0	
76	1	1188.367	0	7	60	700	1201	0.0	8	1189.505	0	736623.629596	0	
77	1	1198.382	1	7	60	700	1201	0.0	3	1205.288	0	736623.629779	0	
78	1	1210.667	0	7	60	700	1201	0.0	6	1212.172	0	736623.629857	0	
79	1	1217.576	0	7	60	700	1201	0.0	8	1218.999	0	736623.629937	0	
80	1	1225.170	0	7	60	700	1201	0.0	8	1226.463	0	736623.630023	0	
81	1	1231.953	0	7	60	700	1201	0.0	8	1233.067	0	736623.630100	0	
