Trial,StartTime,CenterReward,F1,F2,F3,F4,HoldTime,Atten,Pitch,Side,Response,RespTime,Correct,SpatialMask,originalFile,LeftTemperature,RightTemperature,fNum,vowel_level,SNR,day,treatment,SpatialCondition,VowelLocation
1,4.4933,0,730,2058.0,2857.0,4205.0,1001.0,10.0,200.0,1.0,0.0,5.8984,0.0,4.0,10_12_2014 level23_spatial_F+V 15_26 Block7-48.txt,37,37,1201,47.0,-20.0,2014-12-10,False,single_speaker,left
3,25.1523,0,460,1105.0,2857.0,4205.0,751.0,10.0,200.0,0.0,0.0,28.0218,1.0,1.0,10_12_2014 level23_spatial_F+V 15_26 Block7-48.txt,37,37,1201,47.0,-20.0,2014-12-10,False,colocated,right
4,32.0434,0,460,1105.0,2857.0,4205.0,651.0,10.0,200.0,0.0,0.0,33.4739,1.0,0.0,10_12_2014 level23_spatial_F+V 15_26 Block7-48.txt,37,37,1201,47.0,-20.0,2014-12-10,False,colocated,left
5,37.9448,0,460,1105.0,2857.0,4205.0,851.0,10.0,200.0,0.0,0.0,38.89,1.0,1.0,10_12_2014 level23_spatial_F+V 15_26 Block7-48.txt,37,37,1201,47.0,-20.0,2014-12-10,False,colocated,right
6,43.1803,1,730,2058.0,2857.0,4205.0,701.0,10.0,200.0,1.0,0.0,44.2924,0.0,2.0,10_12_2014 level23_spatial_F+V 15_26 Block7-48.txt,37,37,1201,47.0,-20.0,2014-12-10,False,separated,left
8,61.8982,0,730,2058.0,2857.0,4205.0,551.0,10.0,200.0,1.0,0.0,64.6916,0.0,2.0,10_12_2014 level23_spatial_F+V 15_26 Block7-48.txt,37,37,1201,47.0,-20.0,2014-12-10,False,separated,left
12,111.8463,0,730,2058.0,2857.0,4205.0,801.0,10.0,200.0,1.0,1.0,113.2476,1.0,1.0,10_12_2014 level23_spatial_F+V 15_26 Block7-48.txt,37,37,1201,47.0,-20.0,2014-12-10,False,colocated,right
13,129.1467,0,730,2058.0,2857.0,4205.0,601.0,10.0,200.0,1.0,0.0,130.8039,0.0,3.0,10_12_2014 level23_spatial_F+V 15_26 Block7-48.txt,37,37,1201,47.0,-20.0,2014-12-10,False,separated,right
15,150.8278,0,460,1105.0,2857.0,4205.0,901.0,10.0,200.0,0.0,0.0,152.2098,1.0,4.0,10_12_2014 level23_spatial_F+V 15_26 Block7-48.txt,37,37,1201,47.0,-20.0,2014-12-10,False,single_speaker,left
16,156.1768,0,460,1105.0,2857.0,4205.0,951.0,10.0,200.0,0.0,0.0,157.1626,1.0,0.0,10_12_2014 level23_spatial_F+V 15_26 Block7-48.txt,37,37,1201,47.0,-20.0,2014-12-10,False,colocated,left
17,161.004,0,730,2058.0,2857.0,4205.0,501.0,10.0,200.0,1.0,0.0,162.1834,0.0,5.0,10_12_2014 level23_spatial_F+V 15_26 Block7-48.txt,37,37,1201,47.0,-20.0,2014-12-10,False,single_speaker,right
19,181.142,0,730,2058.0,2857.0,4205.0,551.0,10.0,200.0,1.0,0.0,182.48,0.0,5.0,10_12_2014 level23_spatial_F+V 15_26 Block7-48.txt,37,37,1201,47.0,-20.0,2014-12-10,False,single_speaker,right
21,204.6863,0,730,2058.0,2857.0,4205.0,901.0,10.0,200.0,1.0,0.0,206.1924,0.0,1.0,10_12_2014 level23_spatial_F+V 15_26 Block7-48.txt,37,37,1201,47.0,-20.0,2014-12-10,False,colocated,right
26,262.7787,0,730,2058.0,2857.0,4205.0,751.0,10.0,200.0,1.0,0.0,264.4607,0.0,2.0,10_12_2014 level23_spatial_F+V 15_26 Block7-48.txt,37,37,1201,47.0,-20.0,2014-12-10,False,separated,left
28,283.283,0,460,1105.0,2857.0,4205.0,801.0,10.0,200.0,0.0,0.0,284.4906,1.0,1.0,10_12_2014 level23_spatial_F+V 15_26 Block7-48.txt,37,37,1201,47.0,-20.0,2014-12-10,False,colocated,right
29,289.0144,0,460,1105.0,2857.0,4205.0,951.0,10.0,200.0,0.0,0.0,289.8249,1.0,4.0,10_12_2014 level23_spatial_F+V 15_26 Block7-48.txt,37,37,1201,47.0,-20.0,2014-12-10,False,single_speaker,left
30,294.0501,0,730,2058.0,2857.0,4205.0,1001.0,10.0,200.0,1.0,0.0,295.0513,0.0,0.0,10_12_2014 level23_spatial_F+V 15_26 Block7-48.txt,37,37,1201,47.0,-20.0,2014-12-10,False,colocated,left
32,319.2898,1,460,1105.0,2857.0,4205.0,851.0,10.0,200.0,0.0,1.0,320.7117,0.0,5.0,10_12_2014 level23_spatial_F+V 15_26 Block7-48.txt,37,37,1201,47.0,-20.0,2014-12-10,False,single_speaker,right
34,335.2233,0,460,1105.0,2857.0,4205.0,601.0,10.0,200.0,0.0,0.0,336.407,1.0,5.0,10_12_2014 level23_spatial_F+V 15_26 Block7-48.txt,37,37,1201,47.0,-20.0,2014-12-10,False,single_speaker,right
35,340.5548,0,460,1105.0,2857.0,4205.0,651.0,10.0,200.0,0.0,0.0,342.0833,1.0,2.0,10_12_2014 level23_spatial_F+V 15_26 Block7-48.txt,37,37,1201,47.0,-20.0,2014-12-10,False,separated,left
36,346.6259,0,730,2058.0,2857.0,4205.0,901.0,10.0,200.0,1.0,0.0,348.481,0.0,3.0,10_12_2014 level23_spatial_F+V 15_26 Block7-48.txt,37,37,1201,47.0,-20.0,2014-12-10,False,separated,right
38,377.2852,0,730,2058.0,2857.0,4205.0,1001.0,10.0,200.0,1.0,0.0,378.5368,0.0,5.0,10_12_2014 level23_spatial_F+V 15_26 Block7-48.txt,37,37,1201,47.0,-20.0,2014-12-10,False,single_speaker,right
40,394.9269,1,460,1105.0,2857.0,4205.0,551.0,10.0,200.0,0.0,0.0,396.6867,1.0,2.0,10_12_2014 level23_spatial_F+V 15_26 Block7-48.txt,37,37,1201,47.0,-20.0,2014-12-10,False,separated,left
41,400.7168,0,460,1105.0,2857.0,4205.0,651.0,10.0,200.0,0.0,0.0,402.1219,1.0,3.0,10_12_2014 level23_spatial_F+V 15_26 Block7-48.txt,37,37,1201,47.0,-20.0,2014-12-10,False,separated,right
42,406.4381,0,460,1105.0,2857.0,4205.0,951.0,10.0,200.0,0.0,0.0,407.6295,1.0,3.0,10_12_2014 level23_spatial_F+V 15_26 Block7-48.txt,37,37,1201,47.0,-20.0,2014-12-10,False,separated,right
43,412.9159,0,730,2058.0,2857.0,4205.0,851.0,10.0,200.0,1.0,0.0,414.5697,0.0,1.0,10_12_2014 level23_spatial_F+V 15_26 Block7-48.txt,37,37,1201,47.0,-20.0,2014-12-10,False,colocated,right
45,435.6976,0,460,1105.0,2857.0,4205.0,601.0,10.0,200.0,0.0,0.0,437.2962,1.0,4.0,10_12_2014 level23_spatial_F+V 15_26 Block7-48.txt,37,37,1201,47.0,-20.0,2014-12-10,False,single_speaker,left
46,441.9772,0,460,1105.0,2857.0,4205.0,801.0,10.0,200.0,0.0,0.0,443.009,1.0,3.0,10_12_2014 level23_spatial_F+V 15_26 Block7-48.txt,37,37,1201,47.0,-20.0,2014-12-10,False,separated,right
47,451.5469,0,460,1105.0,2857.0,4205.0,701.0,10.0,200.0,0.0,0.0,452.1965,1.0,0.0,10_12_2014 level23_spatial_F+V 15_26 Block7-48.txt,37,37,1201,47.0,-20.0,2014-12-10,False,colocated,left
48,456.9982,0,730,2058.0,2857.0,4205.0,751.0,10.0,200.0,1.0,0.0,458.0973,0.0,0.0,10_12_2014 level23_spatial_F+V 15_26 Block7-48.txt,37,37,1201,47.0,-20.0,2014-12-10,False,colocated,left
50,479.2596,0,730,2058.0,2857.0,4205.0,751.0,10.0,200.0,1.0,1.0,480.6269,1.0,4.0,10_12_2014 level23_spatial_F+V 15_26 Block7-48.txt,37,37,1201,47.0,-20.0,2014-12-10,False,single_speaker,left
51,492.1807,1,730,2058.0,2857.0,4205.0,551.0,10.0,200.0,1.0,0.0,494.9579,0.0,4.0,10_12_2014 level23_spatial_F+V 15_26 Block7-48.txt,37,37,1201,47.0,-20.0,2014-12-10,False,single_speaker,left
53,516.6918,0,730,2058.0,2857.0,4205.0,701.0,10.0,200.0,1.0,0.0,518.3545,0.0,3.0,10_12_2014 level23_spatial_F+V 15_26 Block7-48.txt,37,37,1201,47.0,-20.0,2014-12-10,False,separated,right
55,539.1587,0,730,2058.0,2857.0,4205.0,501.0,10.0,200.0,1.0,0.0,540.8659,0.0,0.0,10_12_2014 level23_spatial_F+V 15_26 Block7-48.txt,37,37,1201,47.0,-20.0,2014-12-10,False,colocated,left
57,558.0031,0,460,1105.0,2857.0,4205.0,851.0,10.0,200.0,0.0,0.0,559.5796,1.0,5.0,10_12_2014 level23_spatial_F+V 15_26 Block7-48.txt,37,37,1201,47.0,-20.0,2014-12-10,False,single_speaker,right
58,563.6007,0,460,1105.0,2857.0,4205.0,901.0,10.0,200.0,0.0,0.0,564.4061,1.0,2.0,10_12_2014 level23_spatial_F+V 15_26 Block7-48.txt,37,37,1201,47.0,-20.0,2014-12-10,False,separated,left
59,567.9947,0,730,2058.0,2857.0,4205.0,651.0,10.0,200.0,1.0,0.0,569.4395,0.0,4.0,10_12_2014 level23_spatial_F+V 15_26 Block7-48.txt,37,37,1201,47.0,-20.0,2014-12-10,False,single_speaker,left
61,591.3187,0,730,2058.0,2857.0,4205.0,951.0,10.0,200.0,1.0,0.0,592.6713,0.0,2.0,10_12_2014 level23_spatial_F+V 15_26 Block7-48.txt,37,37,1201,47.0,-20.0,2014-12-10,False,separated,left
63,608.2098,0,730,2058.0,2857.0,4205.0,1001.0,10.0,200.0,1.0,0.0,609.2088,0.0,3.0,10_12_2014 level23_spatial_F+V 15_26 Block7-48.txt,37,37,1201,47.0,-20.0,2014-12-10,False,separated,right
65,629.0611,0,460,1105.0,2857.0,4205.0,601.0,10.0,200.0,0.0,0.0,630.6737,1.0,1.0,10_12_2014 level23_spatial_F+V 15_26 Block7-48.txt,37,37,1201,47.0,-20.0,2014-12-10,False,colocated,right
66,634.5754,0,460,1105.0,2857.0,4205.0,701.0,10.0,200.0,0.0,0.0,635.8974,1.0,2.0,10_12_2014 level23_spatial_F+V 15_26 Block7-48.txt,37,37,1201,47.0,-20.0,2014-12-10,False,separated,left
67,640.3367,0,730,2058.0,2857.0,4205.0,751.0,10.0,200.0,1.0,0.0,641.8466,0.0,1.0,10_12_2014 level23_spatial_F+V 15_26 Block7-48.txt,37,37,1201,47.0,-20.0,2014-12-10,False,colocated,right
69,660.4816,1,730,2058.0,2857.0,4205.0,851.0,10.0,200.0,1.0,0.0,662.3598,0.0,3.0,10_12_2014 level23_spatial_F+V 15_26 Block7-48.txt,37,37,1201,47.0,-20.0,2014-12-10,False,separated,right
71,680.3579,0,460,1105.0,2857.0,4205.0,951.0,10.0,200.0,0.0,0.0,681.696,1.0,5.0,10_12_2014 level23_spatial_F+V 15_26 Block7-48.txt,37,37,1201,47.0,-20.0,2014-12-10,False,single_speaker,right
72,689.8346,0,460,1105.0,2857.0,4205.0,651.0,10.0,200.0,0.0,0.0,691.4586,1.0,4.0,10_12_2014 level23_spatial_F+V 15_26 Block7-48.txt,37,37,1201,47.0,-20.0,2014-12-10,False,single_speaker,left
73,696.2052,0,460,1105.0,2857.0,4205.0,1001.0,10.0,200.0,0.0,0.0,697.4752,1.0,1.0,10_12_2014 level23_spatial_F+V 15_26 Block7-48.txt,37,37,1201,47.0,-20.0,2014-12-10,False,colocated,right
74,701.5131,0,730,2058.0,2857.0,4205.0,501.0,10.0,200.0,1.0,1.0,702.8903,1.0,4.0,10_12_2014 level23_spatial_F+V 15_26 Block7-48.txt,37,37,1201,47.0,-20.0,2014-12-10,False,single_speaker,left
75,710.2756,0,460,1105.0,2857.0,4205.0,601.0,10.0,200.0,0.0,0.0,711.7376,1.0,4.0,10_12_2014 level23_spatial_F+V 15_26 Block7-48.txt,37,37,1201,47.0,-20.0,2014-12-10,False,single_speaker,left
76,715.7145,0,730,2058.0,2857.0,4205.0,801.0,10.0,200.0,1.0,0.0,716.8546,0.0,1.0,10_12_2014 level23_spatial_F+V 15_26 Block7-48.txt,37,37,1201,47.0,-20.0,2014-12-10,False,colocated,right
78,739.8802,1,460,1105.0,2857.0,4205.0,551.0,10.0,200.0,0.0,0.0,743.4209,1.0,0.0,10_12_2014 level23_spatial_F+V 15_26 Block7-48.txt,37,37,1201,47.0,-20.0,2014-12-10,False,colocated,left
79,747.4456,0,730,2058.0,2857.0,4205.0,501.0,10.0,200.0,1.0,0.0,749.8878,0.0,4.0,10_12_2014 level23_spatial_F+V 15_26 Block7-48.txt,37,37,1201,47.0,-20.0,2014-12-10,False,single_speaker,left
82,792.9065,0,460,1105.0,2857.0,4205.0,601.0,10.0,200.0,0.0,0.0,794.6923,1.0,5.0,10_12_2014 level23_spatial_F+V 15_26 Block7-48.txt,37,37,1201,47.0,-20.0,2014-12-10,False,single_speaker,right
83,797.6593,0,460,1105.0,2857.0,4205.0,751.0,10.0,200.0,0.0,0.0,799.4712,1.0,2.0,10_12_2014 level23_spatial_F+V 15_26 Block7-48.txt,37,37,1201,47.0,-20.0,2014-12-10,False,separated,left
84,803.3635,0,730,2058.0,2857.0,4205.0,701.0,10.0,200.0,1.0,0.0,804.5619,0.0,5.0,10_12_2014 level23_spatial_F+V 15_26 Block7-48.txt,37,37,1201,47.0,-20.0,2014-12-10,False,single_speaker,right
86,877.917,1,730,2058.0,2857.0,4205.0,801.0,10.0,200.0,1.0,1.0,891.9924,1.0,0.0,10_12_2014 level23_spatial_F+V 15_26 Block7-48.txt,37,37,1201,47.0,-20.0,2014-12-10,False,colocated,left
87,903.1672,0,730,2058.0,2857.0,4205.0,551.0,10.0,200.0,1.0,1.0,904.0425,1.0,1.0,10_12_2014 level23_spatial_F+V 15_26 Block7-48.txt,37,37,1201,47.0,-20.0,2014-12-10,False,colocated,right
1,9.3983,0,730,2058.0,2857.0,4205.0,801.0,10.0,200.0,1.0,0.0,10.311,0.0,2.0,09_12_2014 level23_spatial_F+V 15_44 Block7-45.txt,37,37,1201,47.0,-20.0,2014-12-09,False,separated,left
4,35.4594,1,460,1105.0,2857.0,4205.0,701.0,10.0,200.0,0.0,0.0,36.3281,1.0,0.0,09_12_2014 level23_spatial_F+V 15_44 Block7-45.txt,37,37,1201,47.0,-20.0,2014-12-09,False,colocated,left
5,57.316,0,460,1105.0,2857.0,4205.0,651.0,10.0,200.0,0.0,0.0,58.7275,1.0,1.0,09_12_2014 level23_spatial_F+V 15_44 Block7-45.txt,37,37,1201,47.0,-20.0,2014-12-09,False,colocated,right
6,68.8637,0,460,1105.0,2857.0,4205.0,551.0,10.0,200.0,0.0,1.0,70.5188,0.0,0.0,09_12_2014 level23_spatial_F+V 15_44 Block7-45.txt,37,37,1201,47.0,-20.0,2014-12-09,False,colocated,left
8,92.4132,0,460,1105.0,2857.0,4205.0,601.0,10.0,200.0,0.0,0.0,93.8012,1.0,4.0,09_12_2014 level23_spatial_F+V 15_44 Block7-45.txt,37,37,1201,47.0,-20.0,2014-12-09,False,single_speaker,left
9,101.4108,0,460,1105.0,2857.0,4205.0,501.0,10.0,200.0,0.0,0.0,102.5736,1.0,5.0,09_12_2014 level23_spatial_F+V 15_44 Block7-45.txt,37,37,1201,47.0,-20.0,2014-12-09,False,single_speaker,right
10,113.519,1,730,2058.0,2857.0,4205.0,751.0,10.0,200.0,1.0,1.0,115.4425,1.0,0.0,09_12_2014 level23_spatial_F+V 15_44 Block7-45.txt,37,37,1201,47.0,-20.0,2014-12-09,False,colocated,left
11,127.4097,0,730,2058.0,2857.0,4205.0,901.0,10.0,200.0,1.0,1.0,128.5749,1.0,1.0,09_12_2014 level23_spatial_F+V 15_44 Block7-45.txt,37,37,1201,47.0,-20.0,2014-12-09,False,colocated,right
12,136.5175,0,460,1105.0,2857.0,4205.0,851.0,10.0,200.0,0.0,1.0,137.3149,0.0,2.0,09_12_2014 level23_spatial_F+V 15_44 Block7-45.txt,37,37,1201,47.0,-20.0,2014-12-09,False,separated,left
15,187.7323,0,730,2058.0,2857.0,4205.0,1001.0,10.0,200.0,1.0,1.0,188.5577,1.0,0.0,09_12_2014 level23_spatial_F+V 15_44 Block7-45.txt,37,37,1201,47.0,-20.0,2014-12-09,False,colocated,left
16,200.1789,1,730,2058.0,2857.0,4205.0,601.0,10.0,200.0,1.0,1.0,200.6303,1.0,5.0,09_12_2014 level23_spatial_F+V 15_44 Block7-45.txt,37,37,1201,47.0,-20.0,2014-12-09,False,single_speaker,right
17,214.2075,0,460,1105.0,2857.0,4205.0,701.0,10.0,200.0,0.0,0.0,215.035,1.0,2.0,09_12_2014 level23_spatial_F+V 15_44 Block7-45.txt,37,37,1201,47.0,-20.0,2014-12-09,False,separated,left
18,236.6137,0,460,1105.0,2857.0,4205.0,551.0,10.0,200.0,0.0,0.0,238.0512,1.0,5.0,09_12_2014 level23_spatial_F+V 15_44 Block7-45.txt,37,37,1201,47.0,-20.0,2014-12-09,False,single_speaker,right
19,255.484,0,460,1105.0,2857.0,4205.0,851.0,10.0,200.0,0.0,0.0,256.7745,1.0,5.0,09_12_2014 level23_spatial_F+V 15_44 Block7-45.txt,37,37,1201,47.0,-20.0,2014-12-09,False,single_speaker,right
20,276.0192,0,730,2058.0,2857.0,4205.0,1001.0,10.0,200.0,1.0,0.0,276.9117,0.0,2.0,09_12_2014 level23_spatial_F+V 15_44 Block7-45.txt,37,37,1201,47.0,-20.0,2014-12-09,False,separated,left
22,293.8556,0,460,1105.0,2857.0,4205.0,751.0,10.0,200.0,0.0,0.0,295.2747,1.0,1.0,09_12_2014 level23_spatial_F+V 15_44 Block7-45.txt,37,37,1201,47.0,-20.0,2014-12-09,False,colocated,right
23,322.0204,0,460,1105.0,2857.0,4205.0,951.0,10.0,200.0,0.0,0.0,323.3585,1.0,4.0,09_12_2014 level23_spatial_F+V 15_44 Block7-45.txt,37,37,1201,47.0,-20.0,2014-12-09,False,single_speaker,left
24,327.338,0,460,1105.0,2857.0,4205.0,651.0,10.0,200.0,0.0,0.0,328.6215,1.0,2.0,09_12_2014 level23_spatial_F+V 15_44 Block7-45.txt,37,37,1201,47.0,-20.0,2014-12-09,False,separated,left
25,339.7247,0,730,2058.0,2857.0,4205.0,901.0,10.0,200.0,1.0,1.0,340.4507,1.0,3.0,09_12_2014 level23_spatial_F+V 15_44 Block7-45.txt,37,37,1201,47.0,-20.0,2014-12-09,False,separated,right
26,349.8127,0,460,1105.0,2857.0,4205.0,801.0,10.0,200.0,0.0,0.0,350.9117,1.0,4.0,09_12_2014 level23_spatial_F+V 15_44 Block7-45.txt,37,37,1201,47.0,-20.0,2014-12-09,False,single_speaker,left
27,355.4019,0,730,2058.0,2857.0,4205.0,901.0,10.0,200.0,1.0,1.0,356.4997,1.0,4.0,09_12_2014 level23_spatial_F+V 15_44 Block7-45.txt,37,37,1201,47.0,-20.0,2014-12-09,False,single_speaker,left
28,362.7096,0,460,1105.0,2857.0,4205.0,651.0,10.0,200.0,0.0,1.0,363.5968,0.0,3.0,09_12_2014 level23_spatial_F+V 15_44 Block7-45.txt,37,37,1201,47.0,-20.0,2014-12-09,False,separated,right
30,378.4243,0,460,1105.0,2857.0,4205.0,601.0,10.0,200.0,0.0,1.0,379.5751,0.0,3.0,09_12_2014 level23_spatial_F+V 15_44 Block7-45.txt,37,37,1201,47.0,-20.0,2014-12-09,False,separated,right
32,398.1402,0,730,2058.0,2857.0,4205.0,1001.0,10.0,200.0,1.0,0.0,399.0108,0.0,1.0,09_12_2014 level23_spatial_F+V 15_44 Block7-45.txt,37,37,1201,47.0,-20.0,2014-12-09,False,colocated,right
35,435.0863,0,730,2058.0,2857.0,4205.0,801.0,10.0,200.0,1.0,0.0,436.568,0.0,3.0,09_12_2014 level23_spatial_F+V 15_44 Block7-45.txt,37,37,1201,47.0,-20.0,2014-12-09,False,separated,right
37,450.7207,0,730,2058.0,2857.0,4205.0,701.0,10.0,200.0,1.0,1.0,452.5234,1.0,1.0,09_12_2014 level23_spatial_F+V 15_44 Block7-45.txt,37,37,1201,47.0,-20.0,2014-12-09,False,colocated,right
38,484.1892,1,460,1105.0,2857.0,4205.0,851.0,10.0,200.0,0.0,1.0,489.2117,0.0,3.0,09_12_2014 level23_spatial_F+V 15_44 Block7-45.txt,37,37,1201,47.0,-20.0,2014-12-09,False,separated,right
40,502.043,1,460,1105.0,2857.0,4205.0,501.0,10.0,200.0,0.0,0.0,505.6409,1.0,1.0,09_12_2014 level23_spatial_F+V 15_44 Block7-45.txt,37,37,1201,47.0,-20.0,2014-12-09,False,colocated,right
41,514.1501,0,730,2058.0,2857.0,4205.0,551.0,10.0,200.0,1.0,0.0,516.3576,0.0,3.0,09_12_2014 level23_spatial_F+V 15_44 Block7-45.txt,37,37,1201,47.0,-20.0,2014-12-09,False,separated,right
43,534.865,0,460,1105.0,2857.0,4205.0,951.0,10.0,200.0,0.0,0.0,536.4065,1.0,0.0,09_12_2014 level23_spatial_F+V 15_44 Block7-45.txt,37,37,1201,47.0,-20.0,2014-12-09,False,colocated,left
44,541.6951,1,730,2058.0,2857.0,4205.0,551.0,10.0,200.0,1.0,0.0,546.4159,0.0,4.0,09_12_2014 level23_spatial_F+V 15_44 Block7-45.txt,37,37,1201,47.0,-20.0,2014-12-09,False,single_speaker,left
49,618.472,1,730,2058.0,2857.0,4205.0,601.0,10.0,200.0,1.0,0.0,619.4104,0.0,0.0,09_12_2014 level23_spatial_F+V 15_44 Block7-45.txt,37,37,1201,47.0,-20.0,2014-12-09,False,colocated,left
51,651.4522,0,730,2058.0,2857.0,4205.0,651.0,10.0,200.0,1.0,0.0,653.0528,0.0,5.0,09_12_2014 level23_spatial_F+V 15_44 Block7-45.txt,37,37,1201,47.0,-20.0,2014-12-09,False,single_speaker,right
53,678.1658,0,730,2058.0,2857.0,4205.0,501.0,10.0,200.0,1.0,0.0,680.2594,0.0,5.0,09_12_2014 level23_spatial_F+V 15_44 Block7-45.txt,37,37,1201,47.0,-20.0,2014-12-09,False,single_speaker,right
56,704.7564,0,730,2058.0,2857.0,4205.0,1001.0,10.0,200.0,1.0,0.0,705.9019,0.0,2.0,09_12_2014 level23_spatial_F+V 15_44 Block7-45.txt,37,37,1201,47.0,-20.0,2014-12-09,False,separated,left
59,748.0037,0,730,2058.0,2857.0,4205.0,801.0,10.0,200.0,1.0,0.0,748.8562,0.0,4.0,09_12_2014 level23_spatial_F+V 15_44 Block7-45.txt,37,37,1201,47.0,-20.0,2014-12-09,False,single_speaker,left
61,773.6514,0,460,1105.0,2857.0,4205.0,701.0,10.0,200.0,0.0,0.0,774.7875,1.0,2.0,09_12_2014 level23_spatial_F+V 15_44 Block7-45.txt,37,37,1201,47.0,-20.0,2014-12-09,False,separated,left
62,779.4945,0,460,1105.0,2857.0,4205.0,751.0,10.0,200.0,0.0,0.0,780.6252,1.0,5.0,09_12_2014 level23_spatial_F+V 15_44 Block7-45.txt,37,37,1201,47.0,-20.0,2014-12-09,False,single_speaker,right
63,791.1786,0,460,1105.0,2857.0,4205.0,951.0,10.0,200.0,0.0,0.0,792.8561,1.0,5.0,09_12_2014 level23_spatial_F+V 15_44 Block7-45.txt,37,37,1201,47.0,-20.0,2014-12-09,False,single_speaker,right
64,797.4674,0,730,2058.0,2857.0,4205.0,851.0,10.0,200.0,1.0,0.0,798.4805,0.0,2.0,09_12_2014 level23_spatial_F+V 15_44 Block7-45.txt,37,37,1201,47.0,-20.0,2014-12-09,False,separated,left
66,813.8446,0,730,2058.0,2857.0,4205.0,701.0,10.0,200.0,1.0,0.0,814.6533,0.0,1.0,09_12_2014 level23_spatial_F+V 15_44 Block7-45.txt,37,37,1201,47.0,-20.0,2014-12-09,False,colocated,right
68,863.2762,1,460,1105.0,2857.0,4205.0,951.0,10.0,200.0,0.0,0.0,864.8665,1.0,5.0,09_12_2014 level23_spatial_F+V 15_44 Block7-45.txt,37,37,1201,47.0,-20.0,2014-12-09,False,single_speaker,right
69,869.5185,0,730,2058.0,2857.0,4205.0,801.0,10.0,200.0,1.0,0.0,870.4827,0.0,0.0,09_12_2014 level23_spatial_F+V 15_44 Block7-45.txt,37,37,1201,47.0,-20.0,2014-12-09,False,colocated,left
71,893.5209,0,730,2058.0,2857.0,4205.0,501.0,10.0,200.0,1.0,1.0,895.197,1.0,5.0,09_12_2014 level23_spatial_F+V 15_44 Block7-45.txt,37,37,1201,47.0,-20.0,2014-12-09,False,single_speaker,right
72,909.282,0,460,1105.0,2857.0,4205.0,1001.0,10.0,200.0,0.0,0.0,910.8834,1.0,1.0,09_12_2014 level23_spatial_F+V 15_44 Block7-45.txt,37,37,1201,47.0,-20.0,2014-12-09,False,colocated,right
73,914.5384,0,460,1105.0,2857.0,4205.0,601.0,10.0,200.0,0.0,0.0,916.644,1.0,0.0,09_12_2014 level23_spatial_F+V 15_44 Block7-45.txt,37,37,1201,47.0,-20.0,2014-12-09,False,colocated,left
74,921.3964,0,460,1105.0,2857.0,4205.0,551.0,10.0,200.0,0.0,0.0,923.0985,1.0,2.0,09_12_2014 level23_spatial_F+V 15_44 Block7-45.txt,37,37,1201,47.0,-20.0,2014-12-09,False,separated,left
75,927.9122,0,730,2058.0,2857.0,4205.0,851.0,10.0,200.0,1.0,0.0,929.3065,0.0,5.0,09_12_2014 level23_spatial_F+V 15_44 Block7-45.txt,37,37,1201,47.0,-20.0,2014-12-09,False,single_speaker,right
1,10.6156,0,460,1105.0,2857.0,4205.0,901.0,10.0,200.0,0.0,0.0,11.7564,1.0,1.0,30_04_2015 level23_spatial_F+V 08_58 Block10-18.txt,37,37,1201,47.0,-20.0,2015-04-30,False,colocated,right
2,16.6331,0,460,1105.0,2857.0,4205.0,1001.0,10.0,200.0,0.0,0.0,17.1996,1.0,3.0,30_04_2015 level23_spatial_F+V 08_58 Block10-18.txt,37,37,1201,47.0,-20.0,2015-04-30,False,separated,right
3,21.6309,0,460,1105.0,2857.0,4205.0,501.0,10.0,200.0,0.0,0.0,22.9475,1.0,2.0,30_04_2015 level23_spatial_F+V 08_58 Block10-18.txt,37,37,1201,47.0,-20.0,2015-04-30,False,separated,left
4,32.9868,0,730,2058.0,2857.0,4205.0,851.0,10.0,200.0,1.0,0.0,33.8142,0.0,5.0,30_04_2015 level23_spatial_F+V 08_58 Block10-18.txt,37,37,1201,47.0,-20.0,2015-04-30,False,single_speaker,right
6,53.466,0,730,2058.0,2857.0,4205.0,601.0,10.0,200.0,1.0,0.0,54.1755,0.0,0.0,30_04_2015 level23_spatial_F+V 08_58 Block10-18.txt,37,37,1201,47.0,-20.0,2015-04-30,False,colocated,left
10,102.3814,0,730,2058.0,2857.0,4205.0,801.0,10.0,200.0,1.0,1.0,103.224,1.0,1.0,30_04_2015 level23_spatial_F+V 08_58 Block10-18.txt,37,37,1201,47.0,-20.0,2015-04-30,False,colocated,right
11,114.5013,0,460,1105.0,2857.0,4205.0,551.0,10.0,200.0,0.0,0.0,115.6473,1.0,4.0,30_04_2015 level23_spatial_F+V 08_58 Block10-18.txt,37,37,1201,47.0,-20.0,2015-04-30,False,single_speaker,left
12,122.3544,0,730,2058.0,2857.0,4205.0,701.0,10.0,200.0,1.0,0.0,123.4922,0.0,4.0,30_04_2015 level23_spatial_F+V 08_58 Block10-18.txt,37,37,1201,47.0,-20.0,2015-04-30,False,single_speaker,left
14,142.0846,0,730,2058.0,2857.0,4205.0,951.0,10.0,200.0,1.0,1.0,143.1626,1.0,3.0,30_04_2015 level23_spatial_F+V 08_58 Block10-18.txt,37,37,1201,47.0,-20.0,2015-04-30,False,separated,right
15,159.1386,0,460,1105.0,2857.0,4205.0,751.0,10.0,200.0,0.0,0.0,160.0379,1.0,0.0,30_04_2015 level23_spatial_F+V 08_58 Block10-18.txt,37,37,1201,47.0,-20.0,2015-04-30,False,colocated,left
16,163.8737,0,730,2058.0,2857.0,4205.0,951.0,10.0,200.0,1.0,0.0,164.7674,0.0,1.0,30_04_2015 level23_spatial_F+V 08_58 Block10-18.txt,37,37,1201,47.0,-20.0,2015-04-30,False,colocated,right
18,183.5136,0,460,1105.0,2857.0,4205.0,501.0,10.0,200.0,0.0,0.0,184.4638,1.0,2.0,30_04_2015 level23_spatial_F+V 08_58 Block10-18.txt,37,37,1201,47.0,-20.0,2015-04-30,False,separated,left
19,191.1565,0,730,2058.0,2857.0,4205.0,1001.0,10.0,200.0,1.0,1.0,192.0072,1.0,0.0,30_04_2015 level23_spatial_F+V 08_58 Block10-18.txt,37,37,1201,47.0,-20.0,2015-04-30,False,colocated,left
20,203.2357,0,460,1105.0,2857.0,4205.0,801.0,10.0,200.0,0.0,0.0,203.9799,1.0,0.0,30_04_2015 level23_spatial_F+V 08_58 Block10-18.txt,37,37,1201,47.0,-20.0,2015-04-30,False,colocated,left
21,207.3958,0,730,2058.0,2857.0,4205.0,601.0,10.0,200.0,1.0,0.0,208.6906,0.0,2.0,30_04_2015 level23_spatial_F+V 08_58 Block10-18.txt,37,37,1201,47.0,-20.0,2015-04-30,False,separated,left
23,225.6546,1,460,1105.0,2857.0,4205.0,701.0,10.0,200.0,0.0,0.0,226.3952,1.0,1.0,30_04_2015 level23_spatial_F+V 08_58 Block10-18.txt,37,37,1201,47.0,-20.0,2015-04-30,False,colocated,right
24,229.5313,0,460,1105.0,2857.0,4205.0,651.0,10.0,200.0,0.0,0.0,232.1637,1.0,5.0,30_04_2015 level23_spatial_F+V 08_58 Block10-18.txt,37,37,1201,47.0,-20.0,2015-04-30,False,single_speaker,right
25,235.5064,0,730,2058.0,2857.0,4205.0,901.0,10.0,200.0,1.0,1.0,237.1269,1.0,5.0,30_04_2015 level23_spatial_F+V 08_58 Block10-18.txt,37,37,1201,47.0,-20.0,2015-04-30,False,single_speaker,right
26,252.7539,0,730,2058.0,2857.0,4205.0,751.0,10.0,200.0,1.0,0.0,253.6313,0.0,5.0,30_04_2015 level23_spatial_F+V 08_58 Block10-18.txt,37,37,1201,47.0,-20.0,2015-04-30,False,single_speaker,right
28,272.7386,1,730,2058.0,2857.0,4205.0,851.0,10.0,200.0,1.0,1.0,273.4497,1.0,4.0,30_04_2015 level23_spatial_F+V 08_58 Block10-18.txt,37,37,1201,47.0,-20.0,2015-04-30,False,single_speaker,left
29,291.7703,0,460,1105.0,2857.0,4205.0,901.0,10.0,200.0,0.0,0.0,292.4375,1.0,3.0,30_04_2015 level23_spatial_F+V 08_58 Block10-18.txt,37,37,1201,47.0,-20.0,2015-04-30,False,separated,right
30,296.5465,1,460,1105.0,2857.0,4205.0,701.0,10.0,200.0,0.0,0.0,297.5236,1.0,1.0,30_04_2015 level23_spatial_F+V 08_58 Block10-18.txt,37,37,1201,47.0,-20.0,2015-04-30,False,colocated,right
31,306.1528,0,460,1105.0,2857.0,4205.0,651.0,10.0,200.0,0.0,0.0,307.4158,1.0,5.0,30_04_2015 level23_spatial_F+V 08_58 Block10-18.txt,37,37,1201,47.0,-20.0,2015-04-30,False,single_speaker,right
32,311.1959,0,460,1105.0,2857.0,4205.0,851.0,10.0,200.0,0.0,0.0,312.2846,1.0,3.0,30_04_2015 level23_spatial_F+V 08_58 Block10-18.txt,37,37,1201,47.0,-20.0,2015-04-30,False,separated,right
33,315.3496,0,730,2058.0,2857.0,4205.0,501.0,10.0,200.0,1.0,1.0,317.3868,1.0,2.0,30_04_2015 level23_spatial_F+V 08_58 Block10-18.txt,37,37,1201,47.0,-20.0,2015-04-30,False,separated,left
34,330.1638,0,460,1105.0,2857.0,4205.0,751.0,10.0,200.0,0.0,0.0,330.9568,1.0,4.0,30_04_2015 level23_spatial_F+V 08_58 Block10-18.txt,37,37,1201,47.0,-20.0,2015-04-30,False,single_speaker,left
35,334.0134,0,460,1105.0,2857.0,4205.0,601.0,10.0,200.0,0.0,0.0,335.1751,1.0,5.0,30_04_2015 level23_spatial_F+V 08_58 Block10-18.txt,37,37,1201,47.0,-20.0,2015-04-30,False,single_speaker,right
36,342.7153,0,730,2058.0,2857.0,4205.0,551.0,10.0,200.0,1.0,1.0,344.7293,1.0,3.0,30_04_2015 level23_spatial_F+V 08_58 Block10-18.txt,37,37,1201,47.0,-20.0,2015-04-30,False,separated,right
37,354.2709,0,730,2058.0,2857.0,4205.0,801.0,10.0,200.0,1.0,1.0,355.0325,1.0,2.0,30_04_2015 level23_spatial_F+V 08_58 Block10-18.txt,37,37,1201,47.0,-20.0,2015-04-30,False,separated,left
38,367.426,0,730,2058.0,2857.0,4205.0,951.0,10.0,200.0,1.0,1.0,368.6696,1.0,4.0,30_04_2015 level23_spatial_F+V 08_58 Block10-18.txt,37,37,1201,47.0,-20.0,2015-04-30,False,single_speaker,left
39,381.4056,0,730,2058.0,2857.0,4205.0,751.0,10.0,200.0,1.0,0.0,382.7488,0.0,3.0,30_04_2015 level23_spatial_F+V 08_58 Block10-18.txt,37,37,1201,47.0,-20.0,2015-04-30,False,separated,right
41,408.7528,0,460,1105.0,2857.0,4205.0,901.0,10.0,200.0,0.0,0.0,409.5203,1.0,4.0,30_04_2015 level23_spatial_F+V 08_58 Block10-18.txt,37,37,1201,47.0,-20.0,2015-04-30,False,single_speaker,left
42,412.5713,0,460,1105.0,2857.0,4205.0,601.0,10.0,200.0,0.0,0.0,413.5913,1.0,2.0,30_04_2015 level23_spatial_F+V 08_58 Block10-18.txt,37,37,1201,47.0,-20.0,2015-04-30,False,separated,left
43,420.3069,0,730,2058.0,2857.0,4205.0,651.0,10.0,200.0,1.0,1.0,421.7831,1.0,1.0,30_04_2015 level23_spatial_F+V 08_58 Block10-18.txt,37,37,1201,47.0,-20.0,2015-04-30,False,colocated,right
44,432.2275,0,730,2058.0,2857.0,4205.0,701.0,10.0,200.0,1.0,1.0,433.1273,1.0,0.0,30_04_2015 level23_spatial_F+V 08_58 Block10-18.txt,37,37,1201,47.0,-20.0,2015-04-30,False,colocated,left
45,445.6385,0,460,1105.0,2857.0,4205.0,951.0,10.0,200.0,0.0,1.0,446.5347,0.0,0.0,30_04_2015 level23_spatial_F+V 08_58 Block10-18.txt,37,37,1201,47.0,-20.0,2015-04-30,False,colocated,left
48,472.7686,0,460,1105.0,2857.0,4205.0,501.0,10.0,200.0,0.0,0.0,474.4079,1.0,3.0,30_04_2015 level23_spatial_F+V 08_58 Block10-18.txt,37,37,1201,47.0,-20.0,2015-04-30,False,separated,right
49,478.0787,0,460,1105.0,2857.0,4205.0,551.0,10.0,200.0,0.0,0.0,479.25,1.0,5.0,30_04_2015 level23_spatial_F+V 08_58 Block10-18.txt,37,37,1201,47.0,-20.0,2015-04-30,False,single_speaker,right
50,487.4789,0,730,2058.0,2857.0,4205.0,1001.0,10.0,200.0,1.0,1.0,488.6642,1.0,0.0,30_04_2015 level23_spatial_F+V 08_58 Block10-18.txt,37,37,1201,47.0,-20.0,2015-04-30,False,colocated,left
51,499.2116,0,730,2058.0,2857.0,4205.0,801.0,10.0,200.0,1.0,1.0,500.359,1.0,5.0,30_04_2015 level23_spatial_F+V 08_58 Block10-18.txt,37,37,1201,47.0,-20.0,2015-04-30,False,single_speaker,right
52,510.7846,0,730,2058.0,2857.0,4205.0,851.0,10.0,200.0,1.0,1.0,512.1575,1.0,4.0,30_04_2015 level23_spatial_F+V 08_58 Block10-18.txt,37,37,1201,47.0,-20.0,2015-04-30,False,single_speaker,left
53,522.0241,0,460,1105.0,2857.0,4205.0,501.0,10.0,200.0,0.0,0.0,523.0406,1.0,0.0,30_04_2015 level23_spatial_F+V 08_58 Block10-18.txt,37,37,1201,47.0,-20.0,2015-04-30,False,colocated,left
54,529.732,0,730,2058.0,2857.0,4205.0,1001.0,10.0,200.0,1.0,1.0,530.3885,1.0,5.0,30_04_2015 level23_spatial_F+V 08_58 Block10-18.txt,37,37,1201,47.0,-20.0,2015-04-30,False,single_speaker,right
55,542.0515,0,460,1105.0,2857.0,4205.0,551.0,10.0,200.0,0.0,0.0,542.7737,1.0,3.0,30_04_2015 level23_spatial_F+V 08_58 Block10-18.txt,37,37,1201,47.0,-20.0,2015-04-30,False,separated,right
56,546.6894,0,730,2058.0,2857.0,4205.0,651.0,10.0,200.0,1.0,1.0,547.8298,1.0,2.0,30_04_2015 level23_spatial_F+V 08_58 Block10-18.txt,37,37,1201,47.0,-20.0,2015-04-30,False,separated,left
57,557.4722,0,730,2058.0,2857.0,4205.0,751.0,10.0,200.0,1.0,0.0,558.2253,0.0,3.0,30_04_2015 level23_spatial_F+V 08_58 Block10-18.txt,37,37,1201,47.0,-20.0,2015-04-30,False,separated,right
59,584.7825,1,730,2058.0,2857.0,4205.0,601.0,10.0,200.0,1.0,0.0,588.8679,0.0,5.0,30_04_2015 level23_spatial_F+V 08_58 Block10-18.txt,37,37,1201,47.0,-20.0,2015-04-30,False,single_speaker,right
61,607.3595,0,730,2058.0,2857.0,4205.0,701.0,10.0,200.0,1.0,0.0,608.0356,0.0,1.0,30_04_2015 level23_spatial_F+V 08_58 Block10-18.txt,37,37,1201,47.0,-20.0,2015-04-30,False,colocated,right
63,626.2542,0,460,1105.0,2857.0,4205.0,801.0,10.0,200.0,0.0,0.0,627.0509,1.0,5.0,30_04_2015 level23_spatial_F+V 08_58 Block10-18.txt,37,37,1201,47.0,-20.0,2015-04-30,False,single_speaker,right
64,630.53,0,730,2058.0,2857.0,4205.0,951.0,10.0,200.0,1.0,0.0,631.1931,0.0,4.0,30_04_2015 level23_spatial_F+V 08_58 Block10-18.txt,37,37,1201,47.0,-20.0,2015-04-30,False,single_speaker,left
66,657.613,0,460,1105.0,2857.0,4205.0,551.0,10.0,200.0,0.0,0.0,659.1654,1.0,1.0,30_04_2015 level23_spatial_F+V 08_58 Block10-18.txt,37,37,1201,47.0,-20.0,2015-04-30,False,colocated,right
67,662.7783,0,460,1105.0,2857.0,4205.0,901.0,10.0,200.0,0.0,0.0,663.9696,1.0,2.0,30_04_2015 level23_spatial_F+V 08_58 Block10-18.txt,37,37,1201,47.0,-20.0,2015-04-30,False,separated,left
68,667.6502,0,460,1105.0,2857.0,4205.0,801.0,10.0,200.0,0.0,0.0,668.8675,1.0,4.0,30_04_2015 level23_spatial_F+V 08_58 Block10-18.txt,37,37,1201,47.0,-20.0,2015-04-30,False,single_speaker,left
69,676.3396,0,460,1105.0,2857.0,4205.0,751.0,10.0,200.0,0.0,0.0,677.5796,1.0,0.0,30_04_2015 level23_spatial_F+V 08_58 Block10-18.txt,37,37,1201,47.0,-20.0,2015-04-30,False,colocated,left
70,681.583,1,730,2058.0,2857.0,4205.0,951.0,10.0,200.0,1.0,1.0,685.6769,1.0,1.0,30_04_2015 level23_spatial_F+V 08_58 Block10-18.txt,37,37,1201,47.0,-20.0,2015-04-30,False,colocated,right
71,700.6594,0,460,1105.0,2857.0,4205.0,851.0,10.0,200.0,0.0,0.0,701.8668,1.0,4.0,30_04_2015 level23_spatial_F+V 08_58 Block10-18.txt,37,37,1201,47.0,-20.0,2015-04-30,False,single_speaker,left
72,705.421,0,730,2058.0,2857.0,4205.0,1001.0,10.0,200.0,1.0,1.0,707.603,1.0,3.0,30_04_2015 level23_spatial_F+V 08_58 Block10-18.txt,37,37,1201,47.0,-20.0,2015-04-30,False,separated,right
73,716.1722,1,730,2058.0,2857.0,4205.0,701.0,10.0,200.0,1.0,0.0,717.1161,0.0,2.0,30_04_2015 level23_spatial_F+V 08_58 Block10-18.txt,37,37,1201,47.0,-20.0,2015-04-30,False,separated,left
75,743.9841,1,730,2058.0,2857.0,4205.0,501.0,10.0,200.0,1.0,1.0,747.2556,1.0,3.0,30_04_2015 level23_spatial_F+V 08_58 Block10-18.txt,37,37,1201,47.0,-20.0,2015-04-30,False,separated,right
76,757.3394,1,730,2058.0,2857.0,4205.0,601.0,10.0,200.0,1.0,0.0,760.1234,0.0,1.0,30_04_2015 level23_spatial_F+V 08_58 Block10-18.txt,37,37,1201,47.0,-20.0,2015-04-30,False,colocated,right
79,786.9766,0,730,2058.0,2857.0,4205.0,801.0,10.0,200.0,1.0,1.0,789.7245,1.0,0.0,30_04_2015 level23_spatial_F+V 08_58 Block10-18.txt,37,37,1201,47.0,-20.0,2015-04-30,False,colocated,left
80,801.1262,1,460,1105.0,2857.0,4205.0,951.0,10.0,200.0,0.0,0.0,802.1283,1.0,2.0,30_04_2015 level23_spatial_F+V 08_58 Block10-18.txt,37,37,1201,47.0,-20.0,2015-04-30,False,separated,left
81,807.9562,0,730,2058.0,2857.0,4205.0,701.0,10.0,200.0,1.0,1.0,809.5316,1.0,0.0,30_04_2015 level23_spatial_F+V 08_58 Block10-18.txt,37,37,1201,47.0,-20.0,2015-04-30,False,colocated,left
82,819.4961,0,730,2058.0,2857.0,4205.0,501.0,10.0,200.0,1.0,0.0,820.9038,0.0,2.0,30_04_2015 level23_spatial_F+V 08_58 Block10-18.txt,37,37,1201,47.0,-20.0,2015-04-30,False,separated,left
84,840.631,0,460,1105.0,2857.0,4205.0,751.0,10.0,200.0,0.0,0.0,841.5509,1.0,1.0,30_04_2015 level23_spatial_F+V 08_58 Block10-18.txt,37,37,1201,47.0,-20.0,2015-04-30,False,colocated,right
85,844.4411,0,730,2058.0,2857.0,4205.0,551.0,10.0,200.0,1.0,0.0,846.3625,0.0,4.0,30_04_2015 level23_spatial_F+V 08_58 Block10-18.txt,37,37,1201,47.0,-20.0,2015-04-30,False,single_speaker,left
88,872.5754,0,460,1105.0,2857.0,4205.0,651.0,10.0,200.0,0.0,0.0,873.949,1.0,1.0,30_04_2015 level23_spatial_F+V 08_58 Block10-18.txt,37,37,1201,47.0,-20.0,2015-04-30,False,colocated,right
89,877.2569,0,460,1105.0,2857.0,4205.0,1001.0,10.0,200.0,0.0,1.0,880.586,0.0,2.0,30_04_2015 level23_spatial_F+V 08_58 Block10-18.txt,37,37,1201,47.0,-20.0,2015-04-30,False,separated,left
91,891.814,0,460,1105.0,2857.0,4205.0,901.0,10.0,200.0,0.0,0.0,893.4777,1.0,0.0,30_04_2015 level23_spatial_F+V 08_58 Block10-18.txt,37,37,1201,47.0,-20.0,2015-04-30,False,colocated,left
92,896.9339,0,460,1105.0,2857.0,4205.0,601.0,10.0,200.0,0.0,0.0,898.3103,1.0,5.0,30_04_2015 level23_spatial_F+V 08_58 Block10-18.txt,37,37,1201,47.0,-20.0,2015-04-30,False,single_speaker,right
93,902.1349,0,460,1105.0,2857.0,4205.0,901.0,10.0,200.0,0.0,0.0,903.3829,1.0,4.0,30_04_2015 level23_spatial_F+V 08_58 Block10-18.txt,37,37,1201,47.0,-20.0,2015-04-30,False,single_speaker,left
94,906.7233,0,460,1105.0,2857.0,4205.0,601.0,10.0,200.0,0.0,0.0,908.875,1.0,3.0,30_04_2015 level23_spatial_F+V 08_58 Block10-18.txt,37,37,1201,47.0,-20.0,2015-04-30,False,separated,right
95,912.7268,0,460,1105.0,2857.0,4205.0,651.0,10.0,200.0,0.0,0.0,914.2566,1.0,2.0,30_04_2015 level23_spatial_F+V 08_58 Block10-18.txt,37,37,1201,47.0,-20.0,2015-04-30,False,separated,left
96,918.0914,0,460,1105.0,2857.0,4205.0,1001.0,10.0,200.0,0.0,0.0,919.7053,1.0,0.0,30_04_2015 level23_spatial_F+V 08_58 Block10-18.txt,37,37,1201,47.0,-20.0,2015-04-30,False,colocated,left
97,923.3445,1,460,1105.0,2857.0,4205.0,751.0,10.0,200.0,0.0,0.0,925.4682,1.0,4.0,30_04_2015 level23_spatial_F+V 08_58 Block10-18.txt,37,37,1201,47.0,-20.0,2015-04-30,False,single_speaker,left
98,928.8907,0,730,2058.0,2857.0,4205.0,701.0,10.0,200.0,1.0,1.0,930.6431,1.0,5.0,30_04_2015 level23_spatial_F+V 08_58 Block10-18.txt,37,37,1201,47.0,-20.0,2015-04-30,False,single_speaker,right
99,938.8804,0,730,2058.0,2857.0,4205.0,851.0,10.0,200.0,1.0,1.0,939.9854,1.0,4.0,30_04_2015 level23_spatial_F+V 08_58 Block10-18.txt,37,37,1201,47.0,-20.0,2015-04-30,False,single_speaker,left
100,949.7387,0,460,1105.0,2857.0,4205.0,801.0,10.0,200.0,0.0,0.0,950.8984,1.0,5.0,30_04_2015 level23_spatial_F+V 08_58 Block10-18.txt,37,37,1201,47.0,-20.0,2015-04-30,False,single_speaker,right
101,953.9473,0,730,2058.0,2857.0,4205.0,501.0,10.0,200.0,1.0,0.0,956.1047,0.0,3.0,30_04_2015 level23_spatial_F+V 08_58 Block10-18.txt,37,37,1201,47.0,-20.0,2015-04-30,False,separated,right
103,980.2764,0,460,1105.0,2857.0,4205.0,951.0,10.0,200.0,0.0,0.0,981.1984,1.0,3.0,30_04_2015 level23_spatial_F+V 08_58 Block10-18.txt,37,37,1201,47.0,-20.0,2015-04-30,False,separated,right
104,984.6388,0,730,2058.0,2857.0,4205.0,751.0,10.0,200.0,1.0,1.0,986.1779,1.0,5.0,30_04_2015 level23_spatial_F+V 08_58 Block10-18.txt,37,37,1201,47.0,-20.0,2015-04-30,False,single_speaker,right
105,995.0184,0,460,1105.0,2857.0,4205.0,901.0,10.0,200.0,0.0,0.0,996.8169,1.0,4.0,30_04_2015 level23_spatial_F+V 08_58 Block10-18.txt,37,37,1201,47.0,-20.0,2015-04-30,False,single_speaker,left
106,1000.3612,0,460,1105.0,2857.0,4205.0,1001.0,10.0,200.0,0.0,0.0,1001.8564,1.0,1.0,30_04_2015 level23_spatial_F+V 08_58 Block10-18.txt,37,37,1201,47.0,-20.0,2015-04-30,False,colocated,right
107,1004.9724,1,460,1105.0,2857.0,4205.0,551.0,10.0,200.0,0.0,0.0,1007.1228,1.0,2.0,30_04_2015 level23_spatial_F+V 08_58 Block10-18.txt,37,37,1201,47.0,-20.0,2015-04-30,False,separated,left
108,1009.7842,0,460,1105.0,2857.0,4205.0,501.0,10.0,200.0,0.0,0.0,1012.5377,1.0,0.0,30_04_2015 level23_spatial_F+V 08_58 Block10-18.txt,37,37,1201,47.0,-20.0,2015-04-30,False,colocated,left
109,1016.503,0,730,2058.0,2857.0,4205.0,951.0,10.0,200.0,1.0,0.0,1017.7492,0.0,0.0,30_04_2015 level23_spatial_F+V 08_58 Block10-18.txt,37,37,1201,47.0,-20.0,2015-04-30,False,colocated,left
111,1037.7596,0,730,2058.0,2857.0,4205.0,701.0,10.0,200.0,1.0,1.0,1038.9914,1.0,5.0,30_04_2015 level23_spatial_F+V 08_58 Block10-18.txt,37,37,1201,47.0,-20.0,2015-04-30,False,single_speaker,right
112,1047.3277,1,730,2058.0,2857.0,4205.0,801.0,10.0,200.0,1.0,0.0,1049.3936,0.0,2.0,30_04_2015 level23_spatial_F+V 08_58 Block10-18.txt,37,37,1201,47.0,-20.0,2015-04-30,False,separated,left
114,1074.9723,0,730,2058.0,2857.0,4205.0,601.0,10.0,200.0,1.0,1.0,1076.806,1.0,0.0,30_04_2015 level23_spatial_F+V 08_58 Block10-18.txt,37,37,1201,47.0,-20.0,2015-04-30,False,colocated,left
115,1091.7348,0,730,2058.0,2857.0,4205.0,651.0,10.0,200.0,1.0,0.0,1093.166,0.0,1.0,30_04_2015 level23_spatial_F+V 08_58 Block10-18.txt,37,37,1201,47.0,-20.0,2015-04-30,False,colocated,right
117,1115.7349,0,460,1105.0,2857.0,4205.0,751.0,10.0,200.0,0.0,0.0,1117.0465,1.0,3.0,30_04_2015 level23_spatial_F+V 08_58 Block10-18.txt,37,37,1201,47.0,-20.0,2015-04-30,False,separated,right
118,1123.7951,0,460,1105.0,2857.0,4205.0,551.0,10.0,200.0,0.0,0.0,1125.2766,1.0,1.0,30_04_2015 level23_spatial_F+V 08_58 Block10-18.txt,37,37,1201,47.0,-20.0,2015-04-30,False,colocated,right
119,1128.898,1,460,1105.0,2857.0,4205.0,951.0,10.0,200.0,0.0,1.0,1131.3027,0.0,3.0,30_04_2015 level23_spatial_F+V 08_58 Block10-18.txt,37,37,1201,47.0,-20.0,2015-04-30,False,separated,right
121,1143.8374,0,460,1105.0,2857.0,4205.0,701.0,10.0,200.0,0.0,0.0,1145.0167,1.0,1.0,30_04_2015 level23_spatial_F+V 08_58 Block10-18.txt,37,37,1201,47.0,-20.0,2015-04-30,False,colocated,right
122,1153.4199,0,730,2058.0,2857.0,4205.0,851.0,10.0,200.0,1.0,0.0,1155.6117,0.0,3.0,30_04_2015 level23_spatial_F+V 08_58 Block10-18.txt,37,37,1201,47.0,-20.0,2015-04-30,False,separated,right
124,1175.7665,0,730,2058.0,2857.0,4205.0,901.0,10.0,200.0,1.0,0.0,1177.3262,0.0,1.0,30_04_2015 level23_spatial_F+V 08_58 Block10-18.txt,37,37,1201,47.0,-20.0,2015-04-30,False,colocated,right
127,1204.1564,0,460,1105.0,2857.0,4205.0,651.0,10.0,200.0,0.0,0.0,1206.0409,1.0,0.0,30_04_2015 level23_spatial_F+V 08_58 Block10-18.txt,37,37,1201,47.0,-20.0,2015-04-30,False,colocated,left
128,1209.972,1,730,2058.0,2857.0,4205.0,1001.0,10.0,200.0,1.0,0.0,1214.6642,0.0,1.0,30_04_2015 level23_spatial_F+V 08_58 Block10-18.txt,37,37,1201,47.0,-20.0,2015-04-30,False,colocated,right
130,1255.7447,1,730,2058.0,2857.0,4205.0,501.0,10.0,200.0,1.0,1.0,1258.2703,1.0,4.0,30_04_2015 level23_spatial_F+V 08_58 Block10-18.txt,37,37,1201,47.0,-20.0,2015-04-30,False,single_speaker,left
131,1264.8921,0,460,1105.0,2857.0,4205.0,601.0,10.0,200.0,0.0,0.0,1266.4842,1.0,2.0,30_04_2015 level23_spatial_F+V 08_58 Block10-18.txt,37,37,1201,47.0,-20.0,2015-04-30,False,separated,left
132,1269.3921,0,460,1105.0,2857.0,4205.0,551.0,10.0,200.0,0.0,0.0,1270.5553,1.0,5.0,30_04_2015 level23_spatial_F+V 08_58 Block10-18.txt,37,37,1201,47.0,-20.0,2015-04-30,False,single_speaker,right
133,1274.0136,0,460,1105.0,2857.0,4205.0,1001.0,10.0,200.0,0.0,0.0,1275.236,1.0,5.0,30_04_2015 level23_spatial_F+V 08_58 Block10-18.txt,37,37,1201,47.0,-20.0,2015-04-30,False,single_speaker,right
134,1278.4321,0,730,2058.0,2857.0,4205.0,801.0,10.0,200.0,1.0,0.0,1280.541,0.0,4.0,30_04_2015 level23_spatial_F+V 08_58 Block10-18.txt,37,37,1201,47.0,-20.0,2015-04-30,False,single_speaker,left
136,1295.9399,0,460,1105.0,2857.0,4205.0,501.0,10.0,200.0,0.0,0.0,1297.2743,1.0,4.0,30_04_2015 level23_spatial_F+V 08_58 Block10-18.txt,37,37,1201,47.0,-20.0,2015-04-30,False,single_speaker,left
137,1300.7086,0,730,2058.0,2857.0,4205.0,851.0,10.0,200.0,1.0,0.0,1301.9668,0.0,0.0,30_04_2015 level23_spatial_F+V 08_58 Block10-18.txt,37,37,1201,47.0,-20.0,2015-04-30,False,colocated,left
139,1330.0802,0,730,2058.0,2857.0,4205.0,651.0,10.0,200.0,1.0,0.0,1331.3556,0.0,2.0,30_04_2015 level23_spatial_F+V 08_58 Block10-18.txt,37,37,1201,47.0,-20.0,2015-04-30,False,separated,left
143,1371.3704,1,730,2058.0,2857.0,4205.0,701.0,10.0,200.0,1.0,1.0,1375.8659,1.0,2.0,30_04_2015 level23_spatial_F+V 08_58 Block10-18.txt,37,37,1201,47.0,-20.0,2015-04-30,False,separated,left
144,1383.8887,0,730,2058.0,2857.0,4205.0,751.0,10.0,200.0,1.0,0.0,1385.7674,0.0,3.0,30_04_2015 level23_spatial_F+V 08_58 Block10-18.txt,37,37,1201,47.0,-20.0,2015-04-30,False,separated,right
146,1412.5282,0,460,1105.0,2857.0,4205.0,951.0,10.0,200.0,0.0,0.0,1413.7044,1.0,2.0,30_04_2015 level23_spatial_F+V 08_58 Block10-18.txt,37,37,1201,47.0,-20.0,2015-04-30,False,separated,left
147,1416.4582,0,730,2058.0,2857.0,4205.0,601.0,10.0,200.0,1.0,0.0,1418.9224,0.0,0.0,30_04_2015 level23_spatial_F+V 08_58 Block10-18.txt,37,37,1201,47.0,-20.0,2015-04-30,False,colocated,left
149,1441.6095,0,730,2058.0,2857.0,4205.0,601.0,10.0,200.0,1.0,0.0,1442.342,0.0,1.0,30_04_2015 level23_spatial_F+V 08_58 Block10-18.txt,37,37,1201,47.0,-20.0,2015-04-30,False,colocated,right
1,14.1024,1,460,1105.0,2857.0,4205.0,851.0,10.0,200.0,0.0,0.0,16.1002,1.0,2.0,09_01_2015 level23_spatial_F+V 09_25 Block7-70.txt,37,37,1201,47.0,-20.0,2015-01-09,False,separated,left
2,21.0177,0,460,1105.0,2857.0,4205.0,701.0,10.0,200.0,0.0,0.0,21.8001,1.0,0.0,09_01_2015 level23_spatial_F+V 09_25 Block7-70.txt,37,37,1201,47.0,-20.0,2015-01-09,False,colocated,left
3,30.9499,0,730,2058.0,2857.0,4205.0,551.0,10.0,200.0,1.0,1.0,32.2925,1.0,0.0,09_01_2015 level23_spatial_F+V 09_25 Block7-70.txt,37,37,1201,47.0,-20.0,2015-01-09,False,colocated,left
4,36.814,0,730,2058.0,2857.0,4205.0,951.0,10.0,200.0,1.0,1.0,37.9328,1.0,4.0,09_01_2015 level23_spatial_F+V 09_25 Block7-70.txt,37,37,1201,47.0,-20.0,2015-01-09,False,single_speaker,left
5,53.6991,0,460,1105.0,2857.0,4205.0,651.0,10.0,200.0,0.0,0.0,54.9539,1.0,3.0,09_01_2015 level23_spatial_F+V 09_25 Block7-70.txt,37,37,1201,47.0,-20.0,2015-01-09,False,separated,right
6,66.6325,1,460,1105.0,2857.0,4205.0,751.0,10.0,200.0,0.0,0.0,68.076,1.0,4.0,09_01_2015 level23_spatial_F+V 09_25 Block7-70.txt,37,37,1201,47.0,-20.0,2015-01-09,False,single_speaker,left
7,76.6079,0,460,1105.0,2857.0,4205.0,1001.0,10.0,200.0,0.0,0.0,77.7313,1.0,5.0,09_01_2015 level23_spatial_F+V 09_25 Block7-70.txt,37,37,1201,47.0,-20.0,2015-01-09,False,single_speaker,right
8,85.1342,1,460,1105.0,2857.0,4205.0,501.0,10.0,200.0,0.0,0.0,86.503,1.0,0.0,09_01_2015 level23_spatial_F+V 09_25 Block7-70.txt,37,37,1201,47.0,-20.0,2015-01-09,False,colocated,left
9,92.3038,0,730,2058.0,2857.0,4205.0,601.0,10.0,200.0,1.0,1.0,94.4351,1.0,5.0,09_01_2015 level23_spatial_F+V 09_25 Block7-70.txt,37,37,1201,47.0,-20.0,2015-01-09,False,single_speaker,right
10,103.8227,0,730,2058.0,2857.0,4205.0,801.0,10.0,200.0,1.0,0.0,105.0741,0.0,2.0,09_01_2015 level23_spatial_F+V 09_25 Block7-70.txt,37,37,1201,47.0,-20.0,2015-01-09,False,separated,left
12,121.5184,0,730,2058.0,2857.0,4205.0,851.0,10.0,200.0,1.0,0.0,122.563,0.0,2.0,09_01_2015 level23_spatial_F+V 09_25 Block7-70.txt,37,37,1201,47.0,-20.0,2015-01-09,False,separated,left
14,141.347,0,730,2058.0,2857.0,4205.0,801.0,10.0,200.0,1.0,0.0,142.3998,0.0,1.0,09_01_2015 level23_spatial_F+V 09_25 Block7-70.txt,37,37,1201,47.0,-20.0,2015-01-09,False,colocated,right
18,179.6934,0,460,1105.0,2857.0,4205.0,701.0,10.0,200.0,0.0,0.0,180.9013,1.0,0.0,09_01_2015 level23_spatial_F+V 09_25 Block7-70.txt,37,37,1201,47.0,-20.0,2015-01-09,False,colocated,left
19,186.4236,1,460,1105.0,2857.0,4205.0,501.0,10.0,200.0,0.0,0.0,187.6206,1.0,4.0,09_01_2015 level23_spatial_F+V 09_25 Block7-70.txt,37,37,1201,47.0,-20.0,2015-01-09,False,single_speaker,left
20,193.7826,0,460,1105.0,2857.0,4205.0,651.0,10.0,200.0,0.0,0.0,195.8161,1.0,3.0,09_01_2015 level23_spatial_F+V 09_25 Block7-70.txt,37,37,1201,47.0,-20.0,2015-01-09,False,separated,right
21,200.9956,0,460,1105.0,2857.0,4205.0,751.0,10.0,200.0,0.0,0.0,202.2862,1.0,5.0,09_01_2015 level23_spatial_F+V 09_25 Block7-70.txt,37,37,1201,47.0,-20.0,2015-01-09,False,single_speaker,right
22,207.0291,0,460,1105.0,2857.0,4205.0,601.0,10.0,200.0,0.0,0.0,208.3172,1.0,1.0,09_01_2015 level23_spatial_F+V 09_25 Block7-70.txt,37,37,1201,47.0,-20.0,2015-01-09,False,colocated,right
23,213.723,0,730,2058.0,2857.0,4205.0,901.0,10.0,200.0,1.0,0.0,215.575,0.0,3.0,09_01_2015 level23_spatial_F+V 09_25 Block7-70.txt,37,37,1201,47.0,-20.0,2015-01-09,False,separated,right
25,233.0799,0,460,1105.0,2857.0,4205.0,1001.0,10.0,200.0,0.0,0.0,234.3587,1.0,5.0,09_01_2015 level23_spatial_F+V 09_25 Block7-70.txt,37,37,1201,47.0,-20.0,2015-01-09,False,single_speaker,right
26,241.1579,0,730,2058.0,2857.0,4205.0,551.0,10.0,200.0,1.0,1.0,242.2412,1.0,4.0,09_01_2015 level23_spatial_F+V 09_25 Block7-70.txt,37,37,1201,47.0,-20.0,2015-01-09,False,single_speaker,left
27,251.326,1,730,2058.0,2857.0,4205.0,801.0,10.0,200.0,1.0,0.0,252.2206,0.0,0.0,09_01_2015 level23_spatial_F+V 09_25 Block7-70.txt,37,37,1201,47.0,-20.0,2015-01-09,False,colocated,left
29,270.59,0,460,1105.0,2857.0,4205.0,551.0,10.0,200.0,0.0,0.0,271.8853,1.0,2.0,09_01_2015 level23_spatial_F+V 09_25 Block7-70.txt,37,37,1201,47.0,-20.0,2015-01-09,False,separated,left
30,275.7288,0,730,2058.0,2857.0,4205.0,701.0,10.0,200.0,1.0,0.0,277.0023,0.0,4.0,09_01_2015 level23_spatial_F+V 09_25 Block7-70.txt,37,37,1201,47.0,-20.0,2015-01-09,False,single_speaker,left
32,293.1265,1,460,1105.0,2857.0,4205.0,751.0,10.0,200.0,0.0,0.0,294.3598,1.0,2.0,09_01_2015 level23_spatial_F+V 09_25 Block7-70.txt,37,37,1201,47.0,-20.0,2015-01-09,False,separated,left
33,299.1714,0,460,1105.0,2857.0,4205.0,901.0,10.0,200.0,0.0,0.0,301.2715,1.0,4.0,09_01_2015 level23_spatial_F+V 09_25 Block7-70.txt,37,37,1201,47.0,-20.0,2015-01-09,False,single_speaker,left
34,306.7937,0,730,2058.0,2857.0,4205.0,1001.0,10.0,200.0,1.0,0.0,307.3754,0.0,2.0,09_01_2015 level23_spatial_F+V 09_25 Block7-70.txt,37,37,1201,47.0,-20.0,2015-01-09,False,separated,left
36,327.0482,0,460,1105.0,2857.0,4205.0,651.0,10.0,200.0,0.0,1.0,328.8052,0.0,3.0,09_01_2015 level23_spatial_F+V 09_25 Block7-70.txt,37,37,1201,47.0,-20.0,2015-01-09,False,separated,right
38,347.2801,0,730,2058.0,2857.0,4205.0,601.0,10.0,200.0,1.0,0.0,348.7031,0.0,1.0,09_01_2015 level23_spatial_F+V 09_25 Block7-70.txt,37,37,1201,47.0,-20.0,2015-01-09,False,colocated,right
40,363.5637,0,460,1105.0,2857.0,4205.0,851.0,10.0,200.0,0.0,0.0,364.6277,1.0,1.0,09_01_2015 level23_spatial_F+V 09_25 Block7-70.txt,37,37,1201,47.0,-20.0,2015-01-09,False,colocated,right
41,369.0258,0,460,1105.0,2857.0,4205.0,501.0,10.0,200.0,0.0,0.0,370.4963,1.0,1.0,09_01_2015 level23_spatial_F+V 09_25 Block7-70.txt,37,37,1201,47.0,-20.0,2015-01-09,False,colocated,right
42,374.9108,0,730,2058.0,2857.0,4205.0,701.0,10.0,200.0,1.0,0.0,376.5114,0.0,5.0,09_01_2015 level23_spatial_F+V 09_25 Block7-70.txt,37,37,1201,47.0,-20.0,2015-01-09,False,single_speaker,right
44,392.7922,0,730,2058.0,2857.0,4205.0,501.0,10.0,200.0,1.0,1.0,394.2583,1.0,0.0,09_01_2015 level23_spatial_F+V 09_25 Block7-70.txt,37,37,1201,47.0,-20.0,2015-01-09,False,colocated,left
45,404.1071,0,730,2058.0,2857.0,4205.0,601.0,10.0,200.0,1.0,0.0,405.4415,0.0,1.0,09_01_2015 level23_spatial_F+V 09_25 Block7-70.txt,37,37,1201,47.0,-20.0,2015-01-09,False,colocated,right
47,424.2342,0,730,2058.0,2857.0,4205.0,901.0,10.0,200.0,1.0,0.0,425.1471,0.0,3.0,09_01_2015 level23_spatial_F+V 09_25 Block7-70.txt,37,37,1201,47.0,-20.0,2015-01-09,False,separated,right
49,445.887,1,730,2058.0,2857.0,4205.0,851.0,10.0,200.0,1.0,0.0,447.1501,0.0,3.0,09_01_2015 level23_spatial_F+V 09_25 Block7-70.txt,37,37,1201,47.0,-20.0,2015-01-09,False,separated,right
51,464.7829,0,730,2058.0,2857.0,4205.0,651.0,10.0,200.0,1.0,1.0,465.9446,1.0,5.0,09_01_2015 level23_spatial_F+V 09_25 Block7-70.txt,37,37,1201,47.0,-20.0,2015-01-09,False,single_speaker,right
52,473.1759,0,730,2058.0,2857.0,4205.0,1001.0,10.0,200.0,1.0,0.0,474.0839,0.0,2.0,09_01_2015 level23_spatial_F+V 09_25 Block7-70.txt,37,37,1201,47.0,-20.0,2015-01-09,False,separated,left
54,488.5078,0,460,1105.0,2857.0,4205.0,801.0,10.0,200.0,0.0,0.0,489.7841,1.0,2.0,09_01_2015 level23_spatial_F+V 09_25 Block7-70.txt,37,37,1201,47.0,-20.0,2015-01-09,False,separated,left
55,494.7993,0,460,1105.0,2857.0,4205.0,951.0,10.0,200.0,0.0,0.0,495.7848,1.0,1.0,09_01_2015 level23_spatial_F+V 09_25 Block7-70.txt,37,37,1201,47.0,-20.0,2015-01-09,False,colocated,right
56,500.7163,0,460,1105.0,2857.0,4205.0,751.0,10.0,200.0,0.0,0.0,501.6741,1.0,0.0,09_01_2015 level23_spatial_F+V 09_25 Block7-70.txt,37,37,1201,47.0,-20.0,2015-01-09,False,colocated,left
57,507.0144,0,460,1105.0,2857.0,4205.0,651.0,10.0,200.0,0.0,0.0,508.273,1.0,2.0,09_01_2015 level23_spatial_F+V 09_25 Block7-70.txt,37,37,1201,47.0,-20.0,2015-01-09,False,separated,left
58,512.4796,0,460,1105.0,2857.0,4205.0,501.0,10.0,200.0,0.0,0.0,514.1956,1.0,3.0,09_01_2015 level23_spatial_F+V 09_25 Block7-70.txt,37,37,1201,47.0,-20.0,2015-01-09,False,separated,right
59,518.9275,0,460,1105.0,2857.0,4205.0,1001.0,10.0,200.0,0.0,0.0,519.9891,1.0,1.0,09_01_2015 level23_spatial_F+V 09_25 Block7-70.txt,37,37,1201,47.0,-20.0,2015-01-09,False,colocated,right
60,523.8116,0,730,2058.0,2857.0,4205.0,551.0,10.0,200.0,1.0,1.0,525.4783,1.0,4.0,09_01_2015 level23_spatial_F+V 09_25 Block7-70.txt,37,37,1201,47.0,-20.0,2015-01-09,False,single_speaker,left
61,532.0455,0,460,1105.0,2857.0,4205.0,701.0,10.0,200.0,0.0,1.0,533.0884,0.0,5.0,09_01_2015 level23_spatial_F+V 09_25 Block7-70.txt,37,37,1201,47.0,-20.0,2015-01-09,False,single_speaker,right
63,549.7577,0,730,2058.0,2857.0,4205.0,751.0,10.0,200.0,1.0,0.0,550.7525,0.0,1.0,09_01_2015 level23_spatial_F+V 09_25 Block7-70.txt,37,37,1201,47.0,-20.0,2015-01-09,False,colocated,right
67,600.1539,0,460,1105.0,2857.0,4205.0,801.0,10.0,200.0,0.0,1.0,601.4625,0.0,4.0,09_01_2015 level23_spatial_F+V 09_25 Block7-70.txt,37,37,1201,47.0,-20.0,2015-01-09,False,single_speaker,left
69,616.382,0,460,1105.0,2857.0,4205.0,901.0,10.0,200.0,0.0,0.0,617.2478,1.0,5.0,09_01_2015 level23_spatial_F+V 09_25 Block7-70.txt,37,37,1201,47.0,-20.0,2015-01-09,False,single_speaker,right
70,621.9851,0,460,1105.0,2857.0,4205.0,951.0,10.0,200.0,0.0,0.0,622.8548,1.0,5.0,09_01_2015 level23_spatial_F+V 09_25 Block7-70.txt,37,37,1201,47.0,-20.0,2015-01-09,False,single_speaker,right
71,627.4071,0,730,2058.0,2857.0,4205.0,851.0,10.0,200.0,1.0,1.0,628.5402,1.0,5.0,09_01_2015 level23_spatial_F+V 09_25 Block7-70.txt,37,37,1201,47.0,-20.0,2015-01-09,False,single_speaker,right
72,636.4006,0,730,2058.0,2857.0,4205.0,601.0,10.0,200.0,1.0,0.0,637.3706,0.0,0.0,09_01_2015 level23_spatial_F+V 09_25 Block7-70.txt,37,37,1201,47.0,-20.0,2015-01-09,False,colocated,left
74,656.2575,1,730,2058.0,2857.0,4205.0,851.0,10.0,200.0,1.0,0.0,657.3638,0.0,1.0,09_01_2015 level23_spatial_F+V 09_25 Block7-70.txt,37,37,1201,47.0,-20.0,2015-01-09,False,colocated,right
76,679.0285,0,460,1105.0,2857.0,4205.0,501.0,10.0,200.0,0.0,0.0,680.3998,1.0,0.0,09_01_2015 level23_spatial_F+V 09_25 Block7-70.txt,37,37,1201,47.0,-20.0,2015-01-09,False,colocated,left
77,684.6076,0,730,2058.0,2857.0,4205.0,701.0,10.0,200.0,1.0,1.0,685.908,1.0,4.0,09_01_2015 level23_spatial_F+V 09_25 Block7-70.txt,37,37,1201,47.0,-20.0,2015-01-09,False,single_speaker,left
78,694.3202,0,460,1105.0,2857.0,4205.0,951.0,10.0,200.0,0.0,0.0,695.5409,1.0,4.0,09_01_2015 level23_spatial_F+V 09_25 Block7-70.txt,37,37,1201,47.0,-20.0,2015-01-09,False,single_speaker,left
79,700.0919,0,730,2058.0,2857.0,4205.0,751.0,10.0,200.0,1.0,1.0,702.8839,1.0,5.0,09_01_2015 level23_spatial_F+V 09_25 Block7-70.txt,37,37,1201,47.0,-20.0,2015-01-09,False,single_speaker,right
80,712.8181,0,730,2058.0,2857.0,4205.0,901.0,10.0,200.0,1.0,0.0,714.0594,0.0,0.0,09_01_2015 level23_spatial_F+V 09_25 Block7-70.txt,37,37,1201,47.0,-20.0,2015-01-09,False,colocated,left
82,730.7901,0,460,1105.0,2857.0,4205.0,801.0,10.0,200.0,0.0,0.0,732.3956,1.0,0.0,09_01_2015 level23_spatial_F+V 09_25 Block7-70.txt,37,37,1201,47.0,-20.0,2015-01-09,False,colocated,left
83,738.3864,0,460,1105.0,2857.0,4205.0,1001.0,10.0,200.0,0.0,0.0,739.3122,1.0,3.0,09_01_2015 level23_spatial_F+V 09_25 Block7-70.txt,37,37,1201,47.0,-20.0,2015-01-09,False,separated,right
84,743.7301,0,730,2058.0,2857.0,4205.0,651.0,10.0,200.0,1.0,0.0,744.8224,0.0,0.0,09_01_2015 level23_spatial_F+V 09_25 Block7-70.txt,37,37,1201,47.0,-20.0,2015-01-09,False,colocated,left
86,761.6996,1,730,2058.0,2857.0,4205.0,851.0,10.0,200.0,1.0,1.0,762.9827,1.0,4.0,09_01_2015 level23_spatial_F+V 09_25 Block7-70.txt,37,37,1201,47.0,-20.0,2015-01-09,False,single_speaker,left
87,770.6264,0,460,1105.0,2857.0,4205.0,801.0,10.0,200.0,0.0,0.0,772.6577,1.0,4.0,09_01_2015 level23_spatial_F+V 09_25 Block7-70.txt,37,37,1201,47.0,-20.0,2015-01-09,False,single_speaker,left
88,777.4287,0,730,2058.0,2857.0,4205.0,651.0,10.0,200.0,1.0,0.0,779.1563,0.0,2.0,09_01_2015 level23_spatial_F+V 09_25 Block7-70.txt,37,37,1201,47.0,-20.0,2015-01-09,False,separated,left
91,815.8766,0,730,2058.0,2857.0,4205.0,1001.0,10.0,200.0,1.0,1.0,816.6734,1.0,2.0,09_01_2015 level23_spatial_F+V 09_25 Block7-70.txt,37,37,1201,47.0,-20.0,2015-01-09,False,separated,left
92,825.515,0,730,2058.0,2857.0,4205.0,951.0,10.0,200.0,1.0,0.0,826.2521,0.0,1.0,09_01_2015 level23_spatial_F+V 09_25 Block7-70.txt,37,37,1201,47.0,-20.0,2015-01-09,False,colocated,right
95,857.6062,0,730,2058.0,2857.0,4205.0,701.0,10.0,200.0,1.0,0.0,859.248,0.0,3.0,09_01_2015 level23_spatial_F+V 09_25 Block7-70.txt,37,37,1201,47.0,-20.0,2015-01-09,False,separated,right
97,884.7839,0,730,2058.0,2857.0,4205.0,751.0,10.0,200.0,1.0,0.0,886.2756,0.0,5.0,09_01_2015 level23_spatial_F+V 09_25 Block7-70.txt,37,37,1201,47.0,-20.0,2015-01-09,False,single_speaker,right
99,903.9002,0,460,1105.0,2857.0,4205.0,501.0,10.0,200.0,0.0,0.0,905.3676,1.0,1.0,09_01_2015 level23_spatial_F+V 09_25 Block7-70.txt,37,37,1201,47.0,-20.0,2015-01-09,False,colocated,right
100,910.5323,0,460,1105.0,2857.0,4205.0,901.0,10.0,200.0,0.0,0.0,911.6878,1.0,2.0,09_01_2015 level23_spatial_F+V 09_25 Block7-70.txt,37,37,1201,47.0,-20.0,2015-01-09,False,separated,left
101,917.3253,0,460,1105.0,2857.0,4205.0,601.0,10.0,200.0,0.0,0.0,918.8917,1.0,3.0,09_01_2015 level23_spatial_F+V 09_25 Block7-70.txt,37,37,1201,47.0,-20.0,2015-01-09,False,separated,right
102,924.131,0,730,2058.0,2857.0,4205.0,751.0,10.0,200.0,1.0,0.0,925.6477,0.0,3.0,09_01_2015 level23_spatial_F+V 09_25 Block7-70.txt,37,37,1201,47.0,-20.0,2015-01-09,False,separated,right
104,942.5878,1,730,2058.0,2857.0,4205.0,551.0,10.0,200.0,1.0,0.0,944.4878,0.0,3.0,09_01_2015 level23_spatial_F+V 09_25 Block7-70.txt,37,37,1201,47.0,-20.0,2015-01-09,False,separated,right
107,979.5587,0,460,1105.0,2857.0,4205.0,851.0,10.0,200.0,0.0,0.0,981.3789,1.0,3.0,09_01_2015 level23_spatial_F+V 09_25 Block7-70.txt,37,37,1201,47.0,-20.0,2015-01-09,False,separated,right
108,986.3155,0,730,2058.0,2857.0,4205.0,801.0,10.0,200.0,1.0,0.0,987.6031,0.0,5.0,09_01_2015 level23_spatial_F+V 09_25 Block7-70.txt,37,37,1201,47.0,-20.0,2015-01-09,False,single_speaker,right
110,1007.6226,0,460,1105.0,2857.0,4205.0,901.0,10.0,200.0,0.0,0.0,1009.4839,1.0,5.0,09_01_2015 level23_spatial_F+V 09_25 Block7-70.txt,37,37,1201,47.0,-20.0,2015-01-09,False,single_speaker,right
111,1014.0197,0,730,2058.0,2857.0,4205.0,651.0,10.0,200.0,1.0,0.0,1015.5908,0.0,0.0,09_01_2015 level23_spatial_F+V 09_25 Block7-70.txt,37,37,1201,47.0,-20.0,2015-01-09,False,colocated,left
113,1037.1092,0,730,2058.0,2857.0,4205.0,701.0,10.0,200.0,1.0,0.0,1038.6492,0.0,1.0,09_01_2015 level23_spatial_F+V 09_25 Block7-70.txt,37,37,1201,47.0,-20.0,2015-01-09,False,colocated,right
115,1056.5266,0,730,2058.0,2857.0,4205.0,951.0,10.0,200.0,1.0,1.0,1057.514,1.0,5.0,09_01_2015 level23_spatial_F+V 09_25 Block7-70.txt,37,37,1201,47.0,-20.0,2015-01-09,False,single_speaker,right
116,1069.5093,0,460,1105.0,2857.0,4205.0,501.0,10.0,200.0,0.0,0.0,1071.7605,1.0,2.0,09_01_2015 level23_spatial_F+V 09_25 Block7-70.txt,37,37,1201,47.0,-20.0,2015-01-09,False,separated,left
117,1077.3204,0,730,2058.0,2857.0,4205.0,601.0,10.0,200.0,1.0,0.0,1078.6429,0.0,2.0,09_01_2015 level23_spatial_F+V 09_25 Block7-70.txt,37,37,1201,47.0,-20.0,2015-01-09,False,separated,left
119,1101.575,0,730,2058.0,2857.0,4205.0,1001.0,10.0,200.0,1.0,0.0,1103.2563,0.0,0.0,09_01_2015 level23_spatial_F+V 09_25 Block7-70.txt,37,37,1201,47.0,-20.0,2015-01-09,False,colocated,left
121,1120.8969,0,460,1105.0,2857.0,4205.0,601.0,10.0,200.0,0.0,0.0,1122.5281,1.0,1.0,09_01_2015 level23_spatial_F+V 09_25 Block7-70.txt,37,37,1201,47.0,-20.0,2015-01-09,False,colocated,right
122,1127.7599,0,730,2058.0,2857.0,4205.0,851.0,10.0,200.0,1.0,0.0,1129.256,0.0,1.0,09_01_2015 level23_spatial_F+V 09_25 Block7-70.txt,37,37,1201,47.0,-20.0,2015-01-09,False,colocated,right
124,1148.1013,0,460,1105.0,2857.0,4205.0,701.0,10.0,200.0,0.0,0.0,1150.3201,1.0,0.0,09_01_2015 level23_spatial_F+V 09_25 Block7-70.txt,37,37,1201,47.0,-20.0,2015-01-09,False,colocated,left
125,1156.7565,0,730,2058.0,2857.0,4205.0,501.0,10.0,200.0,1.0,1.0,1158.6471,1.0,1.0,09_01_2015 level23_spatial_F+V 09_25 Block7-70.txt,37,37,1201,47.0,-20.0,2015-01-09,False,colocated,right
126,1167.8335,0,730,2058.0,2857.0,4205.0,551.0,10.0,200.0,1.0,0.0,1169.667,0.0,3.0,09_01_2015 level23_spatial_F+V 09_25 Block7-70.txt,37,37,1201,47.0,-20.0,2015-01-09,False,separated,right
128,1190.9213,0,730,2058.0,2857.0,4205.0,901.0,10.0,200.0,1.0,1.0,1193.1463,1.0,4.0,09_01_2015 level23_spatial_F+V 09_25 Block7-70.txt,37,37,1201,47.0,-20.0,2015-01-09,False,single_speaker,left
129,1204.683,0,730,2058.0,2857.0,4205.0,651.0,10.0,200.0,1.0,0.0,1206.2796,0.0,2.0,09_01_2015 level23_spatial_F+V 09_25 Block7-70.txt,37,37,1201,47.0,-20.0,2015-01-09,False,separated,left
131,1228.6185,0,460,1105.0,2857.0,4205.0,951.0,10.0,200.0,0.0,0.0,1231.0052,1.0,2.0,09_01_2015 level23_spatial_F+V 09_25 Block7-70.txt,37,37,1201,47.0,-20.0,2015-01-09,False,separated,left
132,1235.8082,1,730,2058.0,2857.0,4205.0,801.0,10.0,200.0,1.0,1.0,1237.8535,1.0,5.0,09_01_2015 level23_spatial_F+V 09_25 Block7-70.txt,37,37,1201,47.0,-20.0,2015-01-09,False,single_speaker,right
133,1247.6333,0,730,2058.0,2857.0,4205.0,851.0,10.0,200.0,1.0,1.0,1249.0469,1.0,4.0,09_01_2015 level23_spatial_F+V 09_25 Block7-70.txt,37,37,1201,47.0,-20.0,2015-01-09,False,single_speaker,left
134,1258.8972,0,460,1105.0,2857.0,4205.0,651.0,10.0,200.0,0.0,0.0,1260.8482,1.0,4.0,09_01_2015 level23_spatial_F+V 09_25 Block7-70.txt,37,37,1201,47.0,-20.0,2015-01-09,False,single_speaker,left
135,1266.2615,0,460,1105.0,2857.0,4205.0,551.0,10.0,200.0,0.0,0.0,1267.8985,1.0,5.0,09_01_2015 level23_spatial_F+V 09_25 Block7-70.txt,37,37,1201,47.0,-20.0,2015-01-09,False,single_speaker,right
136,1272.5059,0,460,1105.0,2857.0,4205.0,901.0,10.0,200.0,0.0,0.0,1273.8666,1.0,0.0,09_01_2015 level23_spatial_F+V 09_25 Block7-70.txt,37,37,1201,47.0,-20.0,2015-01-09,False,colocated,left
137,1280.301,0,460,1105.0,2857.0,4205.0,501.0,10.0,200.0,0.0,0.0,1282.0109,1.0,0.0,09_01_2015 level23_spatial_F+V 09_25 Block7-70.txt,37,37,1201,47.0,-20.0,2015-01-09,False,colocated,left
138,1287.4822,0,730,2058.0,2857.0,4205.0,951.0,10.0,200.0,1.0,0.0,1288.9019,0.0,3.0,09_01_2015 level23_spatial_F+V 09_25 Block7-70.txt,37,37,1201,47.0,-20.0,2015-01-09,False,separated,right
140,1306.7149,0,460,1105.0,2857.0,4205.0,751.0,10.0,200.0,0.0,0.0,1308.2549,1.0,4.0,09_01_2015 level23_spatial_F+V 09_25 Block7-70.txt,37,37,1201,47.0,-20.0,2015-01-09,False,single_speaker,left
141,1313.4636,0,460,1105.0,2857.0,4205.0,1001.0,10.0,200.0,0.0,0.0,1314.8407,1.0,3.0,09_01_2015 level23_spatial_F+V 09_25 Block7-70.txt,37,37,1201,47.0,-20.0,2015-01-09,False,separated,right
142,1319.5022,0,460,1105.0,2857.0,4205.0,801.0,10.0,200.0,0.0,0.0,1321.2374,1.0,4.0,09_01_2015 level23_spatial_F+V 09_25 Block7-70.txt,37,37,1201,47.0,-20.0,2015-01-09,False,single_speaker,left
143,1326.2478,0,460,1105.0,2857.0,4205.0,701.0,10.0,200.0,0.0,0.0,1328.0363,1.0,3.0,09_01_2015 level23_spatial_F+V 09_25 Block7-70.txt,37,37,1201,47.0,-20.0,2015-01-09,False,separated,right
144,1333.0972,0,730,2058.0,2857.0,4205.0,901.0,10.0,200.0,1.0,0.0,1334.6406,0.0,2.0,09_01_2015 level23_spatial_F+V 09_25 Block7-70.txt,37,37,1201,47.0,-20.0,2015-01-09,False,separated,left
146,1353.5913,0,730,2058.0,2857.0,4205.0,1001.0,10.0,200.0,1.0,0.0,1354.905,0.0,3.0,09_01_2015 level23_spatial_F+V 09_25 Block7-70.txt,37,37,1201,47.0,-20.0,2015-01-09,False,separated,right
148,1373.905,0,460,1105.0,2857.0,4205.0,751.0,10.0,200.0,0.0,1.0,1375.5382,0.0,1.0,09_01_2015 level23_spatial_F+V 09_25 Block7-70.txt,37,37,1201,47.0,-20.0,2015-01-09,False,colocated,right
150,1388.5624,0,730,2058.0,2857.0,4205.0,951.0,10.0,200.0,1.0,0.0,1389.8319,0.0,0.0,09_01_2015 level23_spatial_F+V 09_25 Block7-70.txt,37,37,1201,47.0,-20.0,2015-01-09,False,colocated,left
152,1421.1662,0,460,1105.0,2857.0,4205.0,801.0,10.0,200.0,0.0,0.0,1422.7595,1.0,2.0,09_01_2015 level23_spatial_F+V 09_25 Block7-70.txt,37,37,1201,47.0,-20.0,2015-01-09,False,separated,left
153,1427.2897,0,460,1105.0,2857.0,4205.0,851.0,10.0,200.0,0.0,0.0,1428.6902,1.0,5.0,09_01_2015 level23_spatial_F+V 09_25 Block7-70.txt,37,37,1201,47.0,-20.0,2015-01-09,False,single_speaker,right
154,1433.5982,0,460,1105.0,2857.0,4205.0,501.0,10.0,200.0,0.0,0.0,1435.0562,1.0,1.0,09_01_2015 level23_spatial_F+V 09_25 Block7-70.txt,37,37,1201,47.0,-20.0,2015-01-09,False,colocated,right
155,1441.435,0,730,2058.0,2857.0,4205.0,701.0,10.0,200.0,1.0,1.0,1443.2353,1.0,4.0,09_01_2015 level23_spatial_F+V 09_25 Block7-70.txt,37,37,1201,47.0,-20.0,2015-01-09,False,single_speaker,left
156,1452.6315,0,730,2058.0,2857.0,4205.0,551.0,10.0,200.0,1.0,0.0,1453.6439,0.0,1.0,09_01_2015 level23_spatial_F+V 09_25 Block7-70.txt,37,37,1201,47.0,-20.0,2015-01-09,False,colocated,right
1,4.8341,0,460,1105.0,2857.0,4205.0,551.0,-5.0,200.0,0.0,1.0,5.6723,0.0,4.0,31_03_2014 level23_spatial_F+V 15_25 Block4-62.txt,37,37,1201,62.0,-5.0,2014-03-31,False,single_speaker,left
3,25.7834,0,460,1105.0,2857.0,4205.0,701.0,-5.0,200.0,0.0,0.0,26.2671,1.0,0.0,31_03_2014 level23_spatial_F+V 15_25 Block4-62.txt,37,37,1201,62.0,-5.0,2014-03-31,False,colocated,left
4,32.0523,0,460,1105.0,2857.0,4205.0,1001.0,-5.0,200.0,0.0,0.0,32.6963,1.0,5.0,31_03_2014 level23_spatial_F+V 15_25 Block4-62.txt,37,37,1201,62.0,-5.0,2014-03-31,False,single_speaker,right
5,41.5408,0,730,2058.0,2857.0,4205.0,751.0,-5.0,200.0,1.0,1.0,42.2884,1.0,3.0,31_03_2014 level23_spatial_F+V 15_25 Block4-62.txt,37,37,1201,62.0,-5.0,2014-03-31,False,separated,right
6,46.4502,0,730,2058.0,2857.0,4205.0,501.0,-5.0,200.0,1.0,1.0,47.4948,1.0,4.0,31_03_2014 level23_spatial_F+V 15_25 Block4-62.txt,37,37,1201,62.0,-5.0,2014-03-31,False,single_speaker,left
7,51.483,0,460,1105.0,2857.0,4205.0,601.0,-5.0,200.0,0.0,0.0,53.2968,1.0,1.0,31_03_2014 level23_spatial_F+V 15_25 Block4-62.txt,37,37,1201,62.0,-5.0,2014-03-31,False,colocated,right
8,58.5716,0,460,1105.0,2857.0,4205.0,651.0,-5.0,200.0,0.0,0.0,59.0471,1.0,3.0,31_03_2014 level23_spatial_F+V 15_25 Block4-62.txt,37,37,1201,62.0,-5.0,2014-03-31,False,separated,right
9,67.6687,1,460,1105.0,2857.0,4205.0,851.0,-5.0,200.0,0.0,0.0,68.5553,1.0,3.0,31_03_2014 level23_spatial_F+V 15_25 Block4-62.txt,37,37,1201,62.0,-5.0,2014-03-31,False,separated,right
10,73.9667,0,730,2058.0,2857.0,4205.0,901.0,-5.0,200.0,1.0,1.0,74.7296,1.0,2.0,31_03_2014 level23_spatial_F+V 15_25 Block4-62.txt,37,37,1201,62.0,-5.0,2014-03-31,False,separated,left
11,78.6731,0,730,2058.0,2857.0,4205.0,801.0,-5.0,200.0,1.0,0.0,79.5256,0.0,1.0,31_03_2014 level23_spatial_F+V 15_25 Block4-62.txt,37,37,1201,62.0,-5.0,2014-03-31,False,colocated,right
13,90.1877,0,730,2058.0,2857.0,4205.0,501.0,-5.0,200.0,1.0,1.0,92.6467,1.0,4.0,31_03_2014 level23_spatial_F+V 15_25 Block4-62.txt,37,37,1201,62.0,-5.0,2014-03-31,False,single_speaker,left
14,96.326,0,730,2058.0,2857.0,4205.0,701.0,-5.0,200.0,1.0,0.0,97.1728,0.0,0.0,31_03_2014 level23_spatial_F+V 15_25 Block4-62.txt,37,37,1201,62.0,-5.0,2014-03-31,False,colocated,left
16,110.6119,0,730,2058.0,2857.0,4205.0,551.0,-5.0,200.0,1.0,1.0,112.1679,1.0,0.0,31_03_2014 level23_spatial_F+V 15_25 Block4-62.txt,37,37,1201,62.0,-5.0,2014-03-31,False,colocated,left
17,116.9394,0,460,1105.0,2857.0,4205.0,801.0,-5.0,200.0,0.0,0.0,118.9911,1.0,2.0,31_03_2014 level23_spatial_F+V 15_25 Block4-62.txt,37,37,1201,62.0,-5.0,2014-03-31,False,separated,left
18,124.5372,0,730,2058.0,2857.0,4205.0,851.0,-5.0,200.0,1.0,1.0,125.104,1.0,2.0,31_03_2014 level23_spatial_F+V 15_25 Block4-62.txt,37,37,1201,62.0,-5.0,2014-03-31,False,separated,left
19,128.8343,0,730,2058.0,2857.0,4205.0,751.0,-5.0,200.0,1.0,1.0,129.6428,1.0,5.0,31_03_2014 level23_spatial_F+V 15_25 Block4-62.txt,37,37,1201,62.0,-5.0,2014-03-31,False,single_speaker,right
20,133.5898,0,460,1105.0,2857.0,4205.0,901.0,-5.0,200.0,0.0,0.0,134.2172,1.0,0.0,31_03_2014 level23_spatial_F+V 15_25 Block4-62.txt,37,37,1201,62.0,-5.0,2014-03-31,False,colocated,left
21,139.6348,0,730,2058.0,2857.0,4205.0,651.0,-5.0,200.0,1.0,1.0,140.6428,1.0,4.0,31_03_2014 level23_spatial_F+V 15_25 Block4-62.txt,37,37,1201,62.0,-5.0,2014-03-31,False,single_speaker,left
22,144.7627,0,460,1105.0,2857.0,4205.0,601.0,-5.0,200.0,0.0,0.0,145.5361,1.0,5.0,31_03_2014 level23_spatial_F+V 15_25 Block4-62.txt,37,37,1201,62.0,-5.0,2014-03-31,False,single_speaker,right
23,154.1885,1,730,2058.0,2857.0,4205.0,1001.0,-5.0,200.0,1.0,1.0,154.6363,1.0,5.0,31_03_2014 level23_spatial_F+V 15_25 Block4-62.txt,37,37,1201,62.0,-5.0,2014-03-31,False,single_speaker,right
24,158.61,0,460,1105.0,2857.0,4205.0,801.0,-5.0,200.0,0.0,0.0,159.8428,1.0,1.0,31_03_2014 level23_spatial_F+V 15_25 Block4-62.txt,37,37,1201,62.0,-5.0,2014-03-31,False,colocated,right
25,164.3386,0,730,2058.0,2857.0,4205.0,501.0,-5.0,200.0,1.0,1.0,165.6131,1.0,5.0,31_03_2014 level23_spatial_F+V 15_25 Block4-62.txt,37,37,1201,62.0,-5.0,2014-03-31,False,single_speaker,right
26,169.1339,0,460,1105.0,2857.0,4205.0,651.0,-5.0,200.0,0.0,1.0,170.3541,0.0,2.0,31_03_2014 level23_spatial_F+V 15_25 Block4-62.txt,37,37,1201,62.0,-5.0,2014-03-31,False,separated,left
28,182.2655,0,460,1105.0,2857.0,4205.0,901.0,-5.0,200.0,0.0,0.0,183.8326,1.0,2.0,31_03_2014 level23_spatial_F+V 15_25 Block4-62.txt,37,37,1201,62.0,-5.0,2014-03-31,False,separated,left
29,191.2452,0,730,2058.0,2857.0,4205.0,1001.0,-5.0,200.0,1.0,0.0,191.8278,0.0,3.0,31_03_2014 level23_spatial_F+V 15_25 Block4-62.txt,37,37,1201,62.0,-5.0,2014-03-31,False,separated,right
31,207.8562,0,730,2058.0,2857.0,4205.0,751.0,-5.0,200.0,1.0,1.0,211.8124,1.0,3.0,31_03_2014 level23_spatial_F+V 15_25 Block4-62.txt,37,37,1201,62.0,-5.0,2014-03-31,False,separated,right
32,214.747,0,460,1105.0,2857.0,4205.0,551.0,-5.0,200.0,0.0,1.0,219.0072,0.0,0.0,31_03_2014 level23_spatial_F+V 15_25 Block4-62.txt,37,37,1201,62.0,-5.0,2014-03-31,False,colocated,left
34,236.0223,0,730,2058.0,2857.0,4205.0,701.0,-5.0,200.0,1.0,1.0,236.7163,1.0,0.0,31_03_2014 level23_spatial_F+V 15_25 Block4-62.txt,37,37,1201,62.0,-5.0,2014-03-31,False,colocated,left
35,240.6654,0,730,2058.0,2857.0,4205.0,601.0,-5.0,200.0,1.0,1.0,241.3836,1.0,2.0,31_03_2014 level23_spatial_F+V 15_25 Block4-62.txt,37,37,1201,62.0,-5.0,2014-03-31,False,separated,left
36,246.6293,0,460,1105.0,2857.0,4205.0,951.0,-5.0,200.0,0.0,0.0,247.2831,1.0,5.0,31_03_2014 level23_spatial_F+V 15_25 Block4-62.txt,37,37,1201,62.0,-5.0,2014-03-31,False,single_speaker,right
37,253.8311,0,730,2058.0,2857.0,4205.0,701.0,-5.0,200.0,1.0,0.0,255.4763,0.0,1.0,31_03_2014 level23_spatial_F+V 15_25 Block4-62.txt,37,37,1201,62.0,-5.0,2014-03-31,False,colocated,right
39,267.4635,0,460,1105.0,2857.0,4205.0,751.0,-5.0,200.0,0.0,1.0,270.045,0.0,3.0,31_03_2014 level23_spatial_F+V 15_25 Block4-62.txt,37,37,1201,62.0,-5.0,2014-03-31,False,separated,right
41,292.5097,0,730,2058.0,2857.0,4205.0,851.0,-5.0,200.0,1.0,0.0,293.2766,0.0,1.0,31_03_2014 level23_spatial_F+V 15_25 Block4-62.txt,37,37,1201,62.0,-5.0,2014-03-31,False,colocated,right
43,303.8145,0,460,1105.0,2857.0,4205.0,501.0,-5.0,200.0,0.0,0.0,305.5376,1.0,4.0,31_03_2014 level23_spatial_F+V 15_25 Block4-62.txt,37,37,1201,62.0,-5.0,2014-03-31,False,single_speaker,left
44,311.44,1,460,1105.0,2857.0,4205.0,901.0,-5.0,200.0,0.0,0.0,312.0934,1.0,1.0,31_03_2014 level23_spatial_F+V 15_25 Block4-62.txt,37,37,1201,62.0,-5.0,2014-03-31,False,colocated,right
45,318.3729,0,460,1105.0,2857.0,4205.0,801.0,-5.0,200.0,0.0,0.0,319.6189,1.0,4.0,31_03_2014 level23_spatial_F+V 15_25 Block4-62.txt,37,37,1201,62.0,-5.0,2014-03-31,False,single_speaker,left
46,325.7984,0,460,1105.0,2857.0,4205.0,951.0,-5.0,200.0,0.0,0.0,327.4186,1.0,5.0,31_03_2014 level23_spatial_F+V 15_25 Block4-62.txt,37,37,1201,62.0,-5.0,2014-03-31,False,single_speaker,right
47,333.4954,0,460,1105.0,2857.0,4205.0,1001.0,-5.0,200.0,0.0,1.0,334.2002,0.0,2.0,31_03_2014 level23_spatial_F+V 15_25 Block4-62.txt,37,37,1201,62.0,-5.0,2014-03-31,False,separated,left
49,357.9868,0,730,2058.0,2857.0,4205.0,651.0,-5.0,200.0,1.0,1.0,359.0574,1.0,3.0,31_03_2014 level23_spatial_F+V 15_25 Block4-62.txt,37,37,1201,62.0,-5.0,2014-03-31,False,separated,right
50,363.1479,0,460,1105.0,2857.0,4205.0,551.0,-5.0,200.0,0.0,0.0,364.4958,1.0,4.0,31_03_2014 level23_spatial_F+V 15_25 Block4-62.txt,37,37,1201,62.0,-5.0,2014-03-31,False,single_speaker,left
51,369.9489,0,730,2058.0,2857.0,4205.0,551.0,-5.0,200.0,1.0,1.0,370.7233,1.0,2.0,31_03_2014 level23_spatial_F+V 15_25 Block4-62.txt,37,37,1201,62.0,-5.0,2014-03-31,False,separated,left
52,374.7714,0,730,2058.0,2857.0,4205.0,701.0,-5.0,200.0,1.0,1.0,375.3709,1.0,0.0,31_03_2014 level23_spatial_F+V 15_25 Block4-62.txt,37,37,1201,62.0,-5.0,2014-03-31,False,colocated,left
53,382.2031,0,460,1105.0,2857.0,4205.0,601.0,-5.0,200.0,0.0,0.0,383.5956,1.0,3.0,31_03_2014 level23_spatial_F+V 15_25 Block4-62.txt,37,37,1201,62.0,-5.0,2014-03-31,False,separated,right
54,390.2505,0,730,2058.0,2857.0,4205.0,751.0,-5.0,200.0,1.0,0.0,391.2006,0.0,0.0,31_03_2014 level23_spatial_F+V 15_25 Block4-62.txt,37,37,1201,62.0,-5.0,2014-03-31,False,colocated,left
56,411.6596,1,460,1105.0,2857.0,4205.0,901.0,-5.0,200.0,0.0,1.0,412.9176,0.0,0.0,31_03_2014 level23_spatial_F+V 15_25 Block4-62.txt,37,37,1201,62.0,-5.0,2014-03-31,False,colocated,left
58,434.7032,0,460,1105.0,2857.0,4205.0,501.0,-5.0,200.0,0.0,1.0,435.4576,0.0,2.0,31_03_2014 level23_spatial_F+V 15_25 Block4-62.txt,37,37,1201,62.0,-5.0,2014-03-31,False,separated,left
60,453.8333,0,460,1105.0,2857.0,4205.0,851.0,-5.0,200.0,0.0,1.0,454.7802,0.0,1.0,31_03_2014 level23_spatial_F+V 15_25 Block4-62.txt,37,37,1201,62.0,-5.0,2014-03-31,False,colocated,right
62,469.9571,0,730,2058.0,2857.0,4205.0,651.0,-5.0,200.0,1.0,1.0,470.808,1.0,5.0,31_03_2014 level23_spatial_F+V 15_25 Block4-62.txt,37,37,1201,62.0,-5.0,2014-03-31,False,single_speaker,right
63,474.5504,0,730,2058.0,2857.0,4205.0,951.0,-5.0,200.0,1.0,1.0,475.1009,1.0,2.0,31_03_2014 level23_spatial_F+V 15_25 Block4-62.txt,37,37,1201,62.0,-5.0,2014-03-31,False,separated,left
64,489.2335,0,730,2058.0,2857.0,4205.0,1001.0,-5.0,200.0,1.0,0.0,490.2615,0.0,1.0,31_03_2014 level23_spatial_F+V 15_25 Block4-62.txt,37,37,1201,62.0,-5.0,2014-03-31,False,colocated,right
66,505.54,0,730,2058.0,2857.0,4205.0,701.0,-5.0,200.0,1.0,1.0,506.0796,1.0,5.0,31_03_2014 level23_spatial_F+V 15_25 Block4-62.txt,37,37,1201,62.0,-5.0,2014-03-31,False,single_speaker,right
67,511.3083,0,460,1105.0,2857.0,4205.0,601.0,-5.0,200.0,0.0,0.0,512.4017,1.0,5.0,31_03_2014 level23_spatial_F+V 15_25 Block4-62.txt,37,37,1201,62.0,-5.0,2014-03-31,False,single_speaker,right
68,518.6426,0,730,2058.0,2857.0,4205.0,751.0,-5.0,200.0,1.0,1.0,519.2811,1.0,4.0,31_03_2014 level23_spatial_F+V 15_25 Block4-62.txt,37,37,1201,62.0,-5.0,2014-03-31,False,single_speaker,left
69,535.3322,0,730,2058.0,2857.0,4205.0,901.0,-5.0,200.0,1.0,1.0,535.8915,1.0,1.0,31_03_2014 level23_spatial_F+V 15_25 Block4-62.txt,37,37,1201,62.0,-5.0,2014-03-31,False,colocated,right
70,540.7732,0,460,1105.0,2857.0,4205.0,951.0,-5.0,200.0,0.0,0.0,541.4887,1.0,3.0,31_03_2014 level23_spatial_F+V 15_25 Block4-62.txt,37,37,1201,62.0,-5.0,2014-03-31,False,separated,right
71,546.9179,1,730,2058.0,2857.0,4205.0,501.0,-5.0,200.0,1.0,1.0,547.6606,1.0,4.0,31_03_2014 level23_spatial_F+V 15_25 Block4-62.txt,37,37,1201,62.0,-5.0,2014-03-31,False,single_speaker,left
72,551.0524,0,730,2058.0,2857.0,4205.0,1001.0,-5.0,200.0,1.0,1.0,553.6849,1.0,5.0,31_03_2014 level23_spatial_F+V 15_25 Block4-62.txt,37,37,1201,62.0,-5.0,2014-03-31,False,single_speaker,right
73,556.8097,0,460,1105.0,2857.0,4205.0,551.0,-5.0,200.0,0.0,1.0,559.0388,0.0,4.0,31_03_2014 level23_spatial_F+V 15_25 Block4-62.txt,37,37,1201,62.0,-5.0,2014-03-31,False,single_speaker,left
75,572.6917,0,730,2058.0,2857.0,4205.0,851.0,-5.0,200.0,1.0,1.0,575.374,1.0,4.0,31_03_2014 level23_spatial_F+V 15_25 Block4-62.txt,37,37,1201,62.0,-5.0,2014-03-31,False,single_speaker,left
76,580.0456,0,730,2058.0,2857.0,4205.0,801.0,-5.0,200.0,1.0,0.0,581.262,0.0,1.0,31_03_2014 level23_spatial_F+V 15_25 Block4-62.txt,37,37,1201,62.0,-5.0,2014-03-31,False,colocated,right
79,604.1649,0,730,2058.0,2857.0,4205.0,851.0,-5.0,200.0,1.0,1.0,605.1638,1.0,3.0,31_03_2014 level23_spatial_F+V 15_25 Block4-62.txt,37,37,1201,62.0,-5.0,2014-03-31,False,separated,right
80,630.0747,0,730,2058.0,2857.0,4205.0,701.0,-5.0,200.0,1.0,1.0,630.4802,1.0,2.0,31_03_2014 level23_spatial_F+V 15_25 Block4-62.txt,37,37,1201,62.0,-5.0,2014-03-31,False,separated,left
81,634.1798,0,460,1105.0,2857.0,4205.0,601.0,-5.0,200.0,0.0,1.0,635.4814,0.0,4.0,31_03_2014 level23_spatial_F+V 15_25 Block4-62.txt,37,37,1201,62.0,-5.0,2014-03-31,False,single_speaker,left
83,666.3613,1,460,1105.0,2857.0,4205.0,801.0,-5.0,200.0,0.0,1.0,666.9242,0.0,1.0,31_03_2014 level23_spatial_F+V 15_25 Block4-62.txt,37,37,1201,62.0,-5.0,2014-03-31,False,colocated,right
1,21.6267,0,730,2058.0,2857.0,4205.0,501.0,-5.0,200.0,1.0,1.0,22.4438,1.0,3.0,31_01_2014 level23_spatial_F+V 08_39 Block4-12.txt,37,37,1201,62.0,-5.0,2014-01-31,False,separated,right
2,25.6699,0,460,1105.0,2857.0,4205.0,751.0,-5.0,200.0,0.0,1.0,26.6087,0.0,2.0,31_01_2014 level23_spatial_F+V 08_39 Block4-12.txt,37,37,1201,62.0,-5.0,2014-01-31,False,separated,left
4,37.968,0,460,1105.0,2857.0,4205.0,551.0,-5.0,200.0,0.0,1.0,38.8611,0.0,1.0,31_01_2014 level23_spatial_F+V 08_39 Block4-12.txt,37,37,1201,62.0,-5.0,2014-01-31,False,colocated,right
6,56.661,1,730,2058.0,2857.0,4205.0,901.0,-5.0,200.0,1.0,1.0,59.5815,1.0,1.0,31_01_2014 level23_spatial_F+V 08_39 Block4-12.txt,37,37,1201,62.0,-5.0,2014-01-31,False,colocated,right
7,65.4243,0,460,1105.0,2857.0,4205.0,601.0,-5.0,200.0,0.0,1.0,67.0967,0.0,2.0,31_01_2014 level23_spatial_F+V 08_39 Block4-12.txt,37,37,1201,62.0,-5.0,2014-01-31,False,separated,left
9,98.9059,0,730,2058.0,2857.0,4205.0,1001.0,-5.0,200.0,1.0,0.0,100.4391,0.0,2.0,31_01_2014 level23_spatial_F+V 08_39 Block4-12.txt,37,37,1201,62.0,-5.0,2014-01-31,False,separated,left
11,115.0028,0,460,1105.0,2857.0,4205.0,851.0,-5.0,200.0,0.0,0.0,116.0638,1.0,0.0,31_01_2014 level23_spatial_F+V 08_39 Block4-12.txt,37,37,1201,62.0,-5.0,2014-01-31,False,colocated,left
12,124.3207,0,460,1105.0,2857.0,4205.0,701.0,-5.0,200.0,0.0,0.0,125.4359,1.0,2.0,31_01_2014 level23_spatial_F+V 08_39 Block4-12.txt,37,37,1201,62.0,-5.0,2014-01-31,False,separated,left
13,131.0584,0,730,2058.0,2857.0,4205.0,651.0,-5.0,200.0,1.0,1.0,132.6191,1.0,0.0,31_01_2014 level23_spatial_F+V 08_39 Block4-12.txt,37,37,1201,62.0,-5.0,2014-01-31,False,colocated,left
14,137.1586,0,730,2058.0,2857.0,4205.0,801.0,-5.0,200.0,1.0,0.0,139.1396,0.0,0.0,31_01_2014 level23_spatial_F+V 08_39 Block4-12.txt,37,37,1201,62.0,-5.0,2014-01-31,False,colocated,left
16,156.7263,0,460,1105.0,2857.0,4205.0,501.0,-5.0,200.0,0.0,0.0,158.9095,1.0,1.0,31_01_2014 level23_spatial_F+V 08_39 Block4-12.txt,37,37,1201,62.0,-5.0,2014-01-31,False,colocated,right
17,164.6964,1,460,1105.0,2857.0,4205.0,951.0,-5.0,200.0,0.0,0.0,167.0956,1.0,3.0,31_01_2014 level23_spatial_F+V 08_39 Block4-12.txt,37,37,1201,62.0,-5.0,2014-01-31,False,separated,right
18,173.0124,0,730,2058.0,2857.0,4205.0,801.0,-5.0,200.0,1.0,1.0,174.6706,1.0,1.0,31_01_2014 level23_spatial_F+V 08_39 Block4-12.txt,37,37,1201,62.0,-5.0,2014-01-31,False,colocated,right
19,179.0918,0,730,2058.0,2857.0,4205.0,601.0,-5.0,200.0,1.0,1.0,180.4302,1.0,1.0,31_01_2014 level23_spatial_F+V 08_39 Block4-12.txt,37,37,1201,62.0,-5.0,2014-01-31,False,colocated,right
20,185.6416,0,460,1105.0,2857.0,4205.0,701.0,-5.0,200.0,0.0,1.0,186.9802,0.0,3.0,31_01_2014 level23_spatial_F+V 08_39 Block4-12.txt,37,37,1201,62.0,-5.0,2014-01-31,False,separated,right
22,201.6402,0,460,1105.0,2857.0,4205.0,1001.0,-5.0,200.0,0.0,0.0,203.1024,1.0,0.0,31_01_2014 level23_spatial_F+V 08_39 Block4-12.txt,37,37,1201,62.0,-5.0,2014-01-31,False,colocated,left
23,208.7846,0,730,2058.0,2857.0,4205.0,901.0,-5.0,200.0,1.0,0.0,209.8442,0.0,3.0,31_01_2014 level23_spatial_F+V 08_39 Block4-12.txt,37,37,1201,62.0,-5.0,2014-01-31,False,separated,right
25,223.3482,0,730,2058.0,2857.0,4205.0,851.0,-5.0,200.0,1.0,1.0,224.2943,1.0,0.0,31_01_2014 level23_spatial_F+V 08_39 Block4-12.txt,37,37,1201,62.0,-5.0,2014-01-31,False,colocated,left
26,229.4427,0,460,1105.0,2857.0,4205.0,651.0,-5.0,200.0,0.0,0.0,230.2977,1.0,3.0,31_01_2014 level23_spatial_F+V 08_39 Block4-12.txt,37,37,1201,62.0,-5.0,2014-01-31,False,separated,right
27,236.8231,0,730,2058.0,2857.0,4205.0,751.0,-5.0,200.0,1.0,1.0,237.6023,1.0,2.0,31_01_2014 level23_spatial_F+V 08_39 Block4-12.txt,37,37,1201,62.0,-5.0,2014-01-31,False,separated,left
28,241.6147,0,730,2058.0,2857.0,4205.0,651.0,-5.0,200.0,1.0,1.0,242.5931,1.0,3.0,31_01_2014 level23_spatial_F+V 08_39 Block4-12.txt,37,37,1201,62.0,-5.0,2014-01-31,False,separated,right
29,247.3276,1,460,1105.0,2857.0,4205.0,701.0,-5.0,200.0,0.0,0.0,249.2302,1.0,0.0,31_01_2014 level23_spatial_F+V 08_39 Block4-12.txt,37,37,1201,62.0,-5.0,2014-01-31,False,colocated,left
30,254.8634,0,730,2058.0,2857.0,4205.0,501.0,-5.0,200.0,1.0,1.0,258.8788,1.0,2.0,31_01_2014 level23_spatial_F+V 08_39 Block4-12.txt,37,37,1201,62.0,-5.0,2014-01-31,False,separated,left
31,263.3997,0,460,1105.0,2857.0,4205.0,951.0,-5.0,200.0,0.0,1.0,265.8556,0.0,1.0,31_01_2014 level23_spatial_F+V 08_39 Block4-12.txt,37,37,1201,62.0,-5.0,2014-01-31,False,colocated,right
33,286.309,0,730,2058.0,2857.0,4205.0,901.0,-5.0,200.0,1.0,1.0,287.6139,1.0,0.0,31_01_2014 level23_spatial_F+V 08_39 Block4-12.txt,37,37,1201,62.0,-5.0,2014-01-31,False,colocated,left
34,291.9597,0,730,2058.0,2857.0,4205.0,1001.0,-5.0,200.0,1.0,1.0,292.5497,1.0,1.0,31_01_2014 level23_spatial_F+V 08_39 Block4-12.txt,37,37,1201,62.0,-5.0,2014-01-31,False,colocated,right
35,297.1932,0,730,2058.0,2857.0,4205.0,551.0,-5.0,200.0,1.0,0.0,298.5145,0.0,2.0,31_01_2014 level23_spatial_F+V 08_39 Block4-12.txt,37,37,1201,62.0,-5.0,2014-01-31,False,separated,left
37,315.9233,0,730,2058.0,2857.0,4205.0,751.0,-5.0,200.0,1.0,1.0,316.668,1.0,2.0,31_01_2014 level23_spatial_F+V 08_39 Block4-12.txt,37,37,1201,62.0,-5.0,2014-01-31,False,separated,left
38,321.7361,0,460,1105.0,2857.0,4205.0,601.0,-5.0,200.0,0.0,0.0,322.9777,1.0,0.0,31_01_2014 level23_spatial_F+V 08_39 Block4-12.txt,37,37,1201,62.0,-5.0,2014-01-31,False,colocated,left
39,328.1264,0,460,1105.0,2857.0,4205.0,801.0,-5.0,200.0,0.0,1.0,329.2577,0.0,2.0,31_01_2014 level23_spatial_F+V 08_39 Block4-12.txt,37,37,1201,62.0,-5.0,2014-01-31,False,separated,left
42,357.8084,0,460,1105.0,2857.0,4205.0,901.0,-5.0,200.0,0.0,0.0,359.2038,1.0,3.0,31_01_2014 level23_spatial_F+V 08_39 Block4-12.txt,37,37,1201,62.0,-5.0,2014-01-31,False,separated,right
43,365.2721,0,730,2058.0,2857.0,4205.0,701.0,-5.0,200.0,1.0,1.0,366.3747,1.0,3.0,31_01_2014 level23_spatial_F+V 08_39 Block4-12.txt,37,37,1201,62.0,-5.0,2014-01-31,False,separated,right
44,370.4464,0,730,2058.0,2857.0,4205.0,501.0,-5.0,200.0,1.0,0.0,371.8425,0.0,0.0,31_01_2014 level23_spatial_F+V 08_39 Block4-12.txt,37,37,1201,62.0,-5.0,2014-01-31,False,colocated,left
46,387.33,0,460,1105.0,2857.0,4205.0,601.0,-5.0,200.0,0.0,1.0,388.5147,0.0,1.0,31_01_2014 level23_spatial_F+V 08_39 Block4-12.txt,37,37,1201,62.0,-5.0,2014-01-31,False,colocated,right
49,415.1747,0,460,1105.0,2857.0,4205.0,651.0,-5.0,200.0,0.0,0.0,417.6018,1.0,1.0,31_01_2014 level23_spatial_F+V 08_39 Block4-12.txt,37,37,1201,62.0,-5.0,2014-01-31,False,colocated,right
50,425.0607,0,460,1105.0,2857.0,4205.0,801.0,-5.0,200.0,0.0,0.0,426.9668,1.0,1.0,31_01_2014 level23_spatial_F+V 08_39 Block4-12.txt,37,37,1201,62.0,-5.0,2014-01-31,False,colocated,right
51,433.3784,0,460,1105.0,2857.0,4205.0,851.0,-5.0,200.0,0.0,0.0,434.5192,1.0,0.0,31_01_2014 level23_spatial_F+V 08_39 Block4-12.txt,37,37,1201,62.0,-5.0,2014-01-31,False,colocated,left
52,440.8382,0,730,2058.0,2857.0,4205.0,751.0,-5.0,200.0,1.0,1.0,442.2613,1.0,1.0,31_01_2014 level23_spatial_F+V 08_39 Block4-12.txt,37,37,1201,62.0,-5.0,2014-01-31,False,colocated,right
53,447.0373,0,730,2058.0,2857.0,4205.0,951.0,-5.0,200.0,1.0,1.0,447.479,1.0,0.0,31_01_2014 level23_spatial_F+V 08_39 Block4-12.txt,37,37,1201,62.0,-5.0,2014-01-31,False,colocated,left
54,459.2726,0,460,1105.0,2857.0,4205.0,1001.0,-5.0,200.0,0.0,0.0,460.7015,1.0,3.0,31_01_2014 level23_spatial_F+V 08_39 Block4-12.txt,37,37,1201,62.0,-5.0,2014-01-31,False,separated,right
55,466.2916,0,730,2058.0,2857.0,4205.0,551.0,-5.0,200.0,1.0,0.0,468.1685,0.0,1.0,31_01_2014 level23_spatial_F+V 08_39 Block4-12.txt,37,37,1201,62.0,-5.0,2014-01-31,False,colocated,right
57,481.011,0,730,2058.0,2857.0,4205.0,851.0,-5.0,200.0,1.0,1.0,481.8197,1.0,3.0,31_01_2014 level23_spatial_F+V 08_39 Block4-12.txt,37,37,1201,62.0,-5.0,2014-01-31,False,separated,right
58,489.9726,0,730,2058.0,2857.0,4205.0,1001.0,-5.0,200.0,1.0,1.0,490.5095,1.0,3.0,31_01_2014 level23_spatial_F+V 08_39 Block4-12.txt,37,37,1201,62.0,-5.0,2014-01-31,False,separated,right
59,495.2924,0,460,1105.0,2857.0,4205.0,701.0,-5.0,200.0,0.0,0.0,496.884,1.0,3.0,31_01_2014 level23_spatial_F+V 08_39 Block4-12.txt,37,37,1201,62.0,-5.0,2014-01-31,False,separated,right
60,503.8761,0,460,1105.0,2857.0,4205.0,801.0,-5.0,200.0,0.0,1.0,504.7095,0.0,0.0,31_01_2014 level23_spatial_F+V 08_39 Block4-12.txt,37,37,1201,62.0,-5.0,2014-01-31,False,colocated,left
62,522.2936,0,460,1105.0,2857.0,4205.0,901.0,-5.0,200.0,0.0,0.0,523.7109,1.0,2.0,31_01_2014 level23_spatial_F+V 08_39 Block4-12.txt,37,37,1201,62.0,-5.0,2014-01-31,False,separated,left
63,531.1756,0,460,1105.0,2857.0,4205.0,501.0,-5.0,200.0,0.0,0.0,533.1517,1.0,2.0,31_01_2014 level23_spatial_F+V 08_39 Block4-12.txt,37,37,1201,62.0,-5.0,2014-01-31,False,separated,left
64,539.1184,1,730,2058.0,2857.0,4205.0,601.0,-5.0,200.0,1.0,1.0,540.0581,1.0,2.0,31_01_2014 level23_spatial_F+V 08_39 Block4-12.txt,37,37,1201,62.0,-5.0,2014-01-31,False,separated,left
65,544.0372,0,730,2058.0,2857.0,4205.0,651.0,-5.0,200.0,1.0,1.0,545.5964,1.0,1.0,31_01_2014 level23_spatial_F+V 08_39 Block4-12.txt,37,37,1201,62.0,-5.0,2014-01-31,False,colocated,right
66,550.2718,0,730,2058.0,2857.0,4205.0,951.0,-5.0,200.0,1.0,1.0,551.7812,1.0,3.0,31_01_2014 level23_spatial_F+V 08_39 Block4-12.txt,37,37,1201,62.0,-5.0,2014-01-31,False,separated,right
67,556.8732,0,460,1105.0,2857.0,4205.0,701.0,-5.0,200.0,0.0,1.0,557.652,0.0,3.0,31_01_2014 level23_spatial_F+V 08_39 Block4-12.txt,37,37,1201,62.0,-5.0,2014-01-31,False,separated,right
69,576.1842,0,730,2058.0,2857.0,4205.0,551.0,-5.0,200.0,1.0,0.0,577.8321,0.0,0.0,31_01_2014 level23_spatial_F+V 08_39 Block4-12.txt,37,37,1201,62.0,-5.0,2014-01-31,False,colocated,left
71,593.273,0,460,1105.0,2857.0,4205.0,1001.0,-5.0,200.0,0.0,1.0,594.5632,0.0,1.0,31_01_2014 level23_spatial_F+V 08_39 Block4-12.txt,37,37,1201,62.0,-5.0,2014-01-31,False,colocated,right
73,617.3968,1,730,2058.0,2857.0,4205.0,801.0,-5.0,200.0,1.0,1.0,618.4797,1.0,1.0,31_01_2014 level23_spatial_F+V 08_39 Block4-12.txt,37,37,1201,62.0,-5.0,2014-01-31,False,colocated,right
74,623.113,0,730,2058.0,2857.0,4205.0,751.0,-5.0,200.0,1.0,0.0,624.7046,0.0,2.0,31_01_2014 level23_spatial_F+V 08_39 Block4-12.txt,37,37,1201,62.0,-5.0,2014-01-31,False,separated,left
76,639.8003,0,460,1105.0,2857.0,4205.0,851.0,-5.0,200.0,0.0,1.0,640.4563,0.0,2.0,31_01_2014 level23_spatial_F+V 08_39 Block4-12.txt,37,37,1201,62.0,-5.0,2014-01-31,False,separated,left
78,656.9377,0,730,2058.0,2857.0,4205.0,501.0,-5.0,200.0,1.0,1.0,657.9106,1.0,1.0,31_01_2014 level23_spatial_F+V 08_39 Block4-12.txt,37,37,1201,62.0,-5.0,2014-01-31,False,colocated,right
79,662.4574,0,460,1105.0,2857.0,4205.0,901.0,-5.0,200.0,0.0,1.0,663.8018,0.0,0.0,31_01_2014 level23_spatial_F+V 08_39 Block4-12.txt,37,37,1201,62.0,-5.0,2014-01-31,False,colocated,left
81,688.5295,0,460,1105.0,2857.0,4205.0,601.0,-5.0,200.0,0.0,0.0,690.9243,1.0,0.0,31_01_2014 level23_spatial_F+V 08_39 Block4-12.txt,37,37,1201,62.0,-5.0,2014-01-31,False,colocated,left
82,697.5468,0,460,1105.0,2857.0,4205.0,651.0,-5.0,200.0,0.0,1.0,698.734,0.0,0.0,31_01_2014 level23_spatial_F+V 08_39 Block4-12.txt,37,37,1201,62.0,-5.0,2014-01-31,False,colocated,left
84,722.311,0,460,1105.0,2857.0,4205.0,1001.0,-5.0,200.0,0.0,1.0,723.3645,0.0,1.0,31_01_2014 level23_spatial_F+V 08_39 Block4-12.txt,37,37,1201,62.0,-5.0,2014-01-31,False,colocated,right
86,738.3558,0,730,2058.0,2857.0,4205.0,801.0,-5.0,200.0,1.0,1.0,739.2275,1.0,3.0,31_01_2014 level23_spatial_F+V 08_39 Block4-12.txt,37,37,1201,62.0,-5.0,2014-01-31,False,separated,right
87,747.7655,1,730,2058.0,2857.0,4205.0,951.0,-5.0,200.0,1.0,1.0,748.4762,1.0,2.0,31_01_2014 level23_spatial_F+V 08_39 Block4-12.txt,37,37,1201,62.0,-5.0,2014-01-31,False,separated,left
88,754.3219,0,460,1105.0,2857.0,4205.0,651.0,-5.0,200.0,0.0,0.0,756.1307,1.0,3.0,31_01_2014 level23_spatial_F+V 08_39 Block4-12.txt,37,37,1201,62.0,-5.0,2014-01-31,False,separated,right
89,764.5178,0,460,1105.0,2857.0,4205.0,751.0,-5.0,200.0,0.0,0.0,766.7243,1.0,1.0,31_01_2014 level23_spatial_F+V 08_39 Block4-12.txt,37,37,1201,62.0,-5.0,2014-01-31,False,colocated,right
90,771.6375,0,730,2058.0,2857.0,4205.0,701.0,-5.0,200.0,1.0,0.0,773.6896,0.0,0.0,31_01_2014 level23_spatial_F+V 08_39 Block4-12.txt,37,37,1201,62.0,-5.0,2014-01-31,False,colocated,left
92,787.0303,0,460,1105.0,2857.0,4205.0,901.0,-5.0,200.0,0.0,0.0,788.3292,1.0,2.0,31_01_2014 level23_spatial_F+V 08_39 Block4-12.txt,37,37,1201,62.0,-5.0,2014-01-31,False,separated,left
93,794.994,1,730,2058.0,2857.0,4205.0,851.0,-5.0,200.0,1.0,1.0,796.1595,1.0,2.0,31_01_2014 level23_spatial_F+V 08_39 Block4-12.txt,37,37,1201,62.0,-5.0,2014-01-31,False,separated,left
94,801.0745,0,730,2058.0,2857.0,4205.0,601.0,-5.0,200.0,1.0,1.0,805.9917,1.0,3.0,31_01_2014 level23_spatial_F+V 08_39 Block4-12.txt,37,37,1201,62.0,-5.0,2014-01-31,False,separated,right
95,810.7875,0,460,1105.0,2857.0,4205.0,551.0,-5.0,200.0,0.0,1.0,811.8794,0.0,2.0,31_01_2014 level23_spatial_F+V 08_39 Block4-12.txt,37,37,1201,62.0,-5.0,2014-01-31,False,separated,left
97,831.5386,0,730,2058.0,2857.0,4205.0,501.0,-5.0,200.0,1.0,0.0,833.6674,0.0,0.0,31_01_2014 level23_spatial_F+V 08_39 Block4-12.txt,37,37,1201,62.0,-5.0,2014-01-31,False,colocated,left
99,848.5702,0,460,1105.0,2857.0,4205.0,551.0,-5.0,200.0,0.0,1.0,850.092,0.0,3.0,31_01_2014 level23_spatial_F+V 08_39 Block4-12.txt,37,37,1201,62.0,-5.0,2014-01-31,False,separated,right
101,873.4738,0,730,2058.0,2857.0,4205.0,851.0,-5.0,200.0,1.0,0.0,874.4841,0.0,2.0,31_01_2014 level23_spatial_F+V 08_39 Block4-12.txt,37,37,1201,62.0,-5.0,2014-01-31,False,separated,left
103,887.0333,0,730,2058.0,2857.0,4205.0,701.0,-5.0,200.0,1.0,1.0,888.1358,1.0,3.0,31_01_2014 level23_spatial_F+V 08_39 Block4-12.txt,37,37,1201,62.0,-5.0,2014-01-31,False,separated,right
104,895.4433,0,460,1105.0,2857.0,4205.0,951.0,-5.0,200.0,0.0,1.0,897.5875,0.0,3.0,31_01_2014 level23_spatial_F+V 08_39 Block4-12.txt,37,37,1201,62.0,-5.0,2014-01-31,False,separated,right
106,913.4841,0,460,1105.0,2857.0,4205.0,901.0,-5.0,200.0,0.0,1.0,914.4748,0.0,1.0,31_01_2014 level23_spatial_F+V 08_39 Block4-12.txt,37,37,1201,62.0,-5.0,2014-01-31,False,colocated,right
108,933.5575,0,730,2058.0,2857.0,4205.0,601.0,-5.0,200.0,1.0,1.0,934.8786,1.0,0.0,31_01_2014 level23_spatial_F+V 08_39 Block4-12.txt,37,37,1201,62.0,-5.0,2014-01-31,False,colocated,left
109,939.5243,0,460,1105.0,2857.0,4205.0,651.0,-5.0,200.0,0.0,1.0,940.3006,0.0,2.0,31_01_2014 level23_spatial_F+V 08_39 Block4-12.txt,37,37,1201,62.0,-5.0,2014-01-31,False,separated,left
111,955.9409,0,730,2058.0,2857.0,4205.0,801.0,-5.0,200.0,1.0,0.0,957.3494,0.0,0.0,31_01_2014 level23_spatial_F+V 08_39 Block4-12.txt,37,37,1201,62.0,-5.0,2014-01-31,False,colocated,left
113,970.0515,1,730,2058.0,2857.0,4205.0,1001.0,-5.0,200.0,1.0,1.0,970.5415,1.0,1.0,31_01_2014 level23_spatial_F+V 08_39 Block4-12.txt,37,37,1201,62.0,-5.0,2014-01-31,False,colocated,right
114,976.1824,0,460,1105.0,2857.0,4205.0,901.0,-5.0,200.0,0.0,1.0,985.3897,0.0,1.0,31_01_2014 level23_spatial_F+V 08_39 Block4-12.txt,37,37,1201,62.0,-5.0,2014-01-31,False,colocated,right
116,1002.7519,0,460,1105.0,2857.0,4205.0,801.0,-5.0,200.0,0.0,1.0,1003.8499,0.0,2.0,31_01_2014 level23_spatial_F+V 08_39 Block4-12.txt,37,37,1201,62.0,-5.0,2014-01-31,False,separated,left
119,1024.9782,0,460,1105.0,2857.0,4205.0,701.0,-5.0,200.0,0.0,0.0,1026.2895,1.0,3.0,31_01_2014 level23_spatial_F+V 08_39 Block4-12.txt,37,37,1201,62.0,-5.0,2014-01-31,False,separated,right
120,1031.267,0,730,2058.0,2857.0,4205.0,751.0,-5.0,200.0,1.0,1.0,1032.8339,1.0,2.0,31_01_2014 level23_spatial_F+V 08_39 Block4-12.txt,37,37,1201,62.0,-5.0,2014-01-31,False,separated,left
121,1038.0444,0,460,1105.0,2857.0,4205.0,501.0,-5.0,200.0,0.0,1.0,1039.3306,0.0,0.0,31_01_2014 level23_spatial_F+V 08_39 Block4-12.txt,37,37,1201,62.0,-5.0,2014-01-31,False,colocated,left
123,1053.262,1,460,1105.0,2857.0,4205.0,551.0,-5.0,200.0,0.0,0.0,1059.1025,1.0,0.0,31_01_2014 level23_spatial_F+V 08_39 Block4-12.txt,37,37,1201,62.0,-5.0,2014-01-31,False,colocated,left
124,1070.0952,1,730,2058.0,2857.0,4205.0,1001.0,-5.0,200.0,1.0,1.0,1070.8124,1.0,1.0,31_01_2014 level23_spatial_F+V 08_39 Block4-12.txt,37,37,1201,62.0,-5.0,2014-01-31,False,colocated,right
125,1076.5127,0,730,2058.0,2857.0,4205.0,951.0,-5.0,200.0,1.0,1.0,1080.4174,1.0,3.0,31_01_2014 level23_spatial_F+V 08_39 Block4-12.txt,37,37,1201,62.0,-5.0,2014-01-31,False,separated,right
126,1084.4345,0,460,1105.0,2857.0,4205.0,601.0,-5.0,200.0,0.0,1.0,1085.5569,0.0,2.0,31_01_2014 level23_spatial_F+V 08_39 Block4-12.txt,37,37,1201,62.0,-5.0,2014-01-31,False,separated,left
1,3.5538,0,460,1105.0,2857.0,4205.0,651.0,10.0,200.0,0.0,0.0,4.5455,1.0,2.0,12_01_2015 level23_spatial_F+V 09_32 Block7-74.txt,37,37,1201,47.0,-20.0,2015-01-12,False,separated,left
2,11.1629,0,730,2058.0,2857.0,4205.0,851.0,10.0,200.0,1.0,0.0,11.8103,0.0,2.0,12_01_2015 level23_spatial_F+V 09_32 Block7-74.txt,37,37,1201,47.0,-20.0,2015-01-12,False,separated,left
4,34.1854,1,730,2058.0,2857.0,4205.0,751.0,10.0,200.0,1.0,1.0,35.3868,1.0,2.0,12_01_2015 level23_spatial_F+V 09_32 Block7-74.txt,37,37,1201,47.0,-20.0,2015-01-12,False,separated,left
5,44.8967,1,460,1105.0,2857.0,4205.0,551.0,10.0,200.0,0.0,0.0,46.951,1.0,5.0,12_01_2015 level23_spatial_F+V 09_32 Block7-74.txt,37,37,1201,47.0,-20.0,2015-01-12,False,single_speaker,right
6,51.4979,0,730,2058.0,2857.0,4205.0,951.0,10.0,200.0,1.0,0.0,52.3398,0.0,1.0,12_01_2015 level23_spatial_F+V 09_32 Block7-74.txt,37,37,1201,47.0,-20.0,2015-01-12,False,colocated,right
9,90.1066,0,730,2058.0,2857.0,4205.0,901.0,10.0,200.0,1.0,1.0,91.2111,1.0,5.0,12_01_2015 level23_spatial_F+V 09_32 Block7-74.txt,37,37,1201,47.0,-20.0,2015-01-12,False,single_speaker,right
10,102.6484,0,460,1105.0,2857.0,4205.0,801.0,10.0,200.0,0.0,1.0,103.8428,0.0,0.0,12_01_2015 level23_spatial_F+V 09_32 Block7-74.txt,37,37,1201,47.0,-20.0,2015-01-12,False,colocated,left
12,120.7317,0,460,1105.0,2857.0,4205.0,601.0,10.0,200.0,0.0,0.0,121.9989,1.0,4.0,12_01_2015 level23_spatial_F+V 09_32 Block7-74.txt,37,37,1201,47.0,-20.0,2015-01-12,False,single_speaker,left
13,132.0796,0,730,2058.0,2857.0,4205.0,1001.0,10.0,200.0,1.0,1.0,132.951,1.0,3.0,12_01_2015 level23_spatial_F+V 09_32 Block7-74.txt,37,37,1201,47.0,-20.0,2015-01-12,False,separated,right
14,141.5302,0,460,1105.0,2857.0,4205.0,701.0,10.0,200.0,0.0,0.0,142.7267,1.0,3.0,12_01_2015 level23_spatial_F+V 09_32 Block7-74.txt,37,37,1201,47.0,-20.0,2015-01-12,False,separated,right
15,146.8199,0,460,1105.0,2857.0,4205.0,1001.0,10.0,200.0,0.0,1.0,147.4177,0.0,2.0,12_01_2015 level23_spatial_F+V 09_32 Block7-74.txt,37,37,1201,47.0,-20.0,2015-01-12,False,separated,left
17,160.1152,0,730,2058.0,2857.0,4205.0,901.0,10.0,200.0,1.0,0.0,161.2048,0.0,2.0,12_01_2015 level23_spatial_F+V 09_32 Block7-74.txt,37,37,1201,47.0,-20.0,2015-01-12,False,separated,left
19,177.1491,0,730,2058.0,2857.0,4205.0,501.0,10.0,200.0,1.0,1.0,178.4658,1.0,4.0,12_01_2015 level23_spatial_F+V 09_32 Block7-74.txt,37,37,1201,47.0,-20.0,2015-01-12,False,single_speaker,left
20,186.9757,0,730,2058.0,2857.0,4205.0,801.0,10.0,200.0,1.0,1.0,188.0489,1.0,4.0,12_01_2015 level23_spatial_F+V 09_32 Block7-74.txt,37,37,1201,47.0,-20.0,2015-01-12,False,single_speaker,left
21,198.2625,0,730,2058.0,2857.0,4205.0,701.0,10.0,200.0,1.0,0.0,199.1747,0.0,1.0,12_01_2015 level23_spatial_F+V 09_32 Block7-74.txt,37,37,1201,47.0,-20.0,2015-01-12,False,colocated,right
23,216.1871,0,730,2058.0,2857.0,4205.0,851.0,10.0,200.0,1.0,0.0,217.0353,0.0,1.0,12_01_2015 level23_spatial_F+V 09_32 Block7-74.txt,37,37,1201,47.0,-20.0,2015-01-12,False,colocated,right
26,247.22,0,460,1105.0,2857.0,4205.0,601.0,10.0,200.0,0.0,0.0,248.5547,1.0,5.0,12_01_2015 level23_spatial_F+V 09_32 Block7-74.txt,37,37,1201,47.0,-20.0,2015-01-12,False,single_speaker,right
27,252.725,0,460,1105.0,2857.0,4205.0,751.0,10.0,200.0,0.0,0.0,253.6718,1.0,4.0,12_01_2015 level23_spatial_F+V 09_32 Block7-74.txt,37,37,1201,47.0,-20.0,2015-01-12,False,single_speaker,left
28,257.5056,0,730,2058.0,2857.0,4205.0,651.0,10.0,200.0,1.0,0.0,258.5136,0.0,3.0,12_01_2015 level23_spatial_F+V 09_32 Block7-74.txt,37,37,1201,47.0,-20.0,2015-01-12,False,separated,right
30,277.3255,0,460,1105.0,2857.0,4205.0,951.0,10.0,200.0,0.0,0.0,278.0679,1.0,3.0,12_01_2015 level23_spatial_F+V 09_32 Block7-74.txt,37,37,1201,47.0,-20.0,2015-01-12,False,separated,right
31,281.8986,0,460,1105.0,2857.0,4205.0,651.0,10.0,200.0,0.0,0.0,282.8706,1.0,1.0,12_01_2015 level23_spatial_F+V 09_32 Block7-74.txt,37,37,1201,47.0,-20.0,2015-01-12,False,colocated,right
32,287.4906,0,460,1105.0,2857.0,4205.0,1001.0,10.0,200.0,0.0,0.0,288.5689,1.0,5.0,12_01_2015 level23_spatial_F+V 09_32 Block7-74.txt,37,37,1201,47.0,-20.0,2015-01-12,False,single_speaker,right
33,292.8543,0,730,2058.0,2857.0,4205.0,701.0,10.0,200.0,1.0,0.0,294.2519,0.0,3.0,12_01_2015 level23_spatial_F+V 09_32 Block7-74.txt,37,37,1201,47.0,-20.0,2015-01-12,False,separated,right
35,311.9247,0,730,2058.0,2857.0,4205.0,501.0,10.0,200.0,1.0,1.0,313.2905,1.0,4.0,12_01_2015 level23_spatial_F+V 09_32 Block7-74.txt,37,37,1201,47.0,-20.0,2015-01-12,False,single_speaker,left
36,321.3237,0,730,2058.0,2857.0,4205.0,951.0,10.0,200.0,1.0,0.0,322.5294,0.0,0.0,12_01_2015 level23_spatial_F+V 09_32 Block7-74.txt,37,37,1201,47.0,-20.0,2015-01-12,False,colocated,left
39,350.2255,0,460,1105.0,2857.0,4205.0,751.0,10.0,200.0,0.0,0.0,351.5005,1.0,2.0,12_01_2015 level23_spatial_F+V 09_32 Block7-74.txt,37,37,1201,47.0,-20.0,2015-01-12,False,separated,left
40,356.2727,0,730,2058.0,2857.0,4205.0,851.0,10.0,200.0,1.0,0.0,357.4161,0.0,5.0,12_01_2015 level23_spatial_F+V 09_32 Block7-74.txt,37,37,1201,47.0,-20.0,2015-01-12,False,single_speaker,right
42,373.3185,0,460,1105.0,2857.0,4205.0,801.0,10.0,200.0,0.0,1.0,374.2689,0.0,0.0,12_01_2015 level23_spatial_F+V 09_32 Block7-74.txt,37,37,1201,47.0,-20.0,2015-01-12,False,colocated,left
45,399.0365,0,460,1105.0,2857.0,4205.0,551.0,10.0,200.0,0.0,0.0,400.2561,1.0,3.0,12_01_2015 level23_spatial_F+V 09_32 Block7-74.txt,37,37,1201,47.0,-20.0,2015-01-12,False,separated,right
46,409.9553,0,730,2058.0,2857.0,4205.0,901.0,10.0,200.0,1.0,0.0,410.814,0.0,5.0,12_01_2015 level23_spatial_F+V 09_32 Block7-74.txt,37,37,1201,47.0,-20.0,2015-01-12,False,single_speaker,right
48,425.1571,0,730,2058.0,2857.0,4205.0,501.0,10.0,200.0,1.0,1.0,426.6129,1.0,0.0,12_01_2015 level23_spatial_F+V 09_32 Block7-74.txt,37,37,1201,47.0,-20.0,2015-01-12,False,colocated,left
49,434.675,0,460,1105.0,2857.0,4205.0,801.0,10.0,200.0,0.0,0.0,436.0758,1.0,1.0,12_01_2015 level23_spatial_F+V 09_32 Block7-74.txt,37,37,1201,47.0,-20.0,2015-01-12,False,colocated,right
50,440.5694,0,460,1105.0,2857.0,4205.0,901.0,10.0,200.0,0.0,0.0,441.8476,1.0,1.0,12_01_2015 level23_spatial_F+V 09_32 Block7-74.txt,37,37,1201,47.0,-20.0,2015-01-12,False,colocated,right
51,445.8612,0,460,1105.0,2857.0,4205.0,701.0,10.0,200.0,0.0,0.0,447.1029,1.0,4.0,12_01_2015 level23_spatial_F+V 09_32 Block7-74.txt,37,37,1201,47.0,-20.0,2015-01-12,False,single_speaker,left
52,451.7553,1,460,1105.0,2857.0,4205.0,651.0,10.0,200.0,0.0,0.0,452.8512,1.0,0.0,12_01_2015 level23_spatial_F+V 09_32 Block7-74.txt,37,37,1201,47.0,-20.0,2015-01-12,False,colocated,left
53,457.0971,0,730,2058.0,2857.0,4205.0,601.0,10.0,200.0,1.0,0.0,458.7434,0.0,0.0,12_01_2015 level23_spatial_F+V 09_32 Block7-74.txt,37,37,1201,47.0,-20.0,2015-01-12,False,colocated,left
55,474.7845,0,730,2058.0,2857.0,4205.0,951.0,10.0,200.0,1.0,0.0,476.1366,0.0,0.0,12_01_2015 level23_spatial_F+V 09_32 Block7-74.txt,37,37,1201,47.0,-20.0,2015-01-12,False,colocated,left
57,492.1947,0,460,1105.0,2857.0,4205.0,1001.0,10.0,200.0,0.0,0.0,493.2187,1.0,1.0,12_01_2015 level23_spatial_F+V 09_32 Block7-74.txt,37,37,1201,47.0,-20.0,2015-01-12,False,colocated,right
58,497.4409,0,460,1105.0,2857.0,4205.0,851.0,10.0,200.0,0.0,0.0,498.9058,1.0,2.0,12_01_2015 level23_spatial_F+V 09_32 Block7-74.txt,37,37,1201,47.0,-20.0,2015-01-12,False,separated,left
59,503.1294,0,460,1105.0,2857.0,4205.0,751.0,10.0,200.0,0.0,0.0,504.5545,1.0,1.0,12_01_2015 level23_spatial_F+V 09_32 Block7-74.txt,37,37,1201,47.0,-20.0,2015-01-12,False,colocated,right
60,508.7908,0,460,1105.0,2857.0,4205.0,651.0,10.0,200.0,0.0,0.0,511.0513,1.0,4.0,12_01_2015 level23_spatial_F+V 09_32 Block7-74.txt,37,37,1201,47.0,-20.0,2015-01-12,False,single_speaker,left
61,515.9429,0,460,1105.0,2857.0,4205.0,501.0,10.0,200.0,0.0,0.0,517.6393,1.0,0.0,12_01_2015 level23_spatial_F+V 09_32 Block7-74.txt,37,37,1201,47.0,-20.0,2015-01-12,False,colocated,left
62,521.6496,0,730,2058.0,2857.0,4205.0,601.0,10.0,200.0,1.0,0.0,523.0041,0.0,2.0,12_01_2015 level23_spatial_F+V 09_32 Block7-74.txt,37,37,1201,47.0,-20.0,2015-01-12,False,separated,left
64,545.3907,0,730,2058.0,2857.0,4205.0,1001.0,10.0,200.0,1.0,1.0,546.287,1.0,5.0,12_01_2015 level23_spatial_F+V 09_32 Block7-74.txt,37,37,1201,47.0,-20.0,2015-01-12,False,single_speaker,right
65,554.094,0,730,2058.0,2857.0,4205.0,551.0,10.0,200.0,1.0,0.0,555.335,0.0,4.0,12_01_2015 level23_spatial_F+V 09_32 Block7-74.txt,37,37,1201,47.0,-20.0,2015-01-12,False,single_speaker,left
67,571.694,0,460,1105.0,2857.0,4205.0,801.0,10.0,200.0,0.0,0.0,572.5533,1.0,3.0,12_01_2015 level23_spatial_F+V 09_32 Block7-74.txt,37,37,1201,47.0,-20.0,2015-01-12,False,separated,right
68,576.1828,0,460,1105.0,2857.0,4205.0,701.0,10.0,200.0,0.0,0.0,577.2185,1.0,0.0,12_01_2015 level23_spatial_F+V 09_32 Block7-74.txt,37,37,1201,47.0,-20.0,2015-01-12,False,colocated,left
69,582.1116,0,730,2058.0,2857.0,4205.0,751.0,10.0,200.0,1.0,0.0,583.2273,0.0,0.0,12_01_2015 level23_spatial_F+V 09_32 Block7-74.txt,37,37,1201,47.0,-20.0,2015-01-12,False,colocated,left
71,598.645,0,730,2058.0,2857.0,4205.0,901.0,10.0,200.0,1.0,0.0,599.876,0.0,4.0,12_01_2015 level23_spatial_F+V 09_32 Block7-74.txt,37,37,1201,47.0,-20.0,2015-01-12,False,single_speaker,left
73,617.0378,0,460,1105.0,2857.0,4205.0,951.0,10.0,200.0,0.0,0.0,617.808,1.0,4.0,12_01_2015 level23_spatial_F+V 09_32 Block7-74.txt,37,37,1201,47.0,-20.0,2015-01-12,False,single_speaker,left
74,621.525,0,460,1105.0,2857.0,4205.0,751.0,10.0,200.0,0.0,0.0,622.5962,1.0,1.0,12_01_2015 level23_spatial_F+V 09_32 Block7-74.txt,37,37,1201,47.0,-20.0,2015-01-12,False,colocated,right
75,627.1873,0,460,1105.0,2857.0,4205.0,501.0,10.0,200.0,0.0,0.0,629.1596,1.0,2.0,12_01_2015 level23_spatial_F+V 09_32 Block7-74.txt,37,37,1201,47.0,-20.0,2015-01-12,False,separated,left
76,633.7744,1,730,2058.0,2857.0,4205.0,651.0,10.0,200.0,1.0,0.0,635.4065,0.0,1.0,12_01_2015 level23_spatial_F+V 09_32 Block7-74.txt,37,37,1201,47.0,-20.0,2015-01-12,False,colocated,right
78,652.1948,0,730,2058.0,2857.0,4205.0,851.0,10.0,200.0,1.0,0.0,653.3083,0.0,2.0,12_01_2015 level23_spatial_F+V 09_32 Block7-74.txt,37,37,1201,47.0,-20.0,2015-01-12,False,separated,left
