Trial,StartTime,CenterReward,F1,F2,F3,F4,HoldTime,Atten,Pitch,Side,Response,RespTime,Correct,SpatialMask,originalFile,LeftTemperature,RightTemperature,fNum,vowel_level,SNR,day,treatment,SpatialCondition,VowelLocation
1,5.4249,0,460,1105,2857,4205,651,10.0,200,0,0,9.6501,1,2,01_04_2015 level23_spatial_F+V 14_59 Block9-8.txt,37,37,1203,47.0,-20.0,2015-04-01,False,separated,left
2,15.2161,0,460,1105,2857,4205,701,10.0,200,0,1,16.3344,0,0,01_04_2015 level23_spatial_F+V 14_59 Block9-8.txt,37,37,1203,47.0,-20.0,2015-04-01,False,colocated,left
6,71.1764,0,460,1105,2857,4205,901,10.0,200,0,0,71.8206,1,5,01_04_2015 level23_spatial_F+V 14_59 Block9-8.txt,37,37,1203,47.0,-20.0,2015-04-01,False,single_speaker,right
7,77.2989,1,730,2058,2857,4205,601,10.0,200,1,1,79.0783,1,5,01_04_2015 level23_spatial_F+V 14_59 Block9-8.txt,37,37,1203,47.0,-20.0,2015-04-01,False,single_speaker,right
8,89.0657,0,730,2058,2857,4205,851,10.0,200,1,0,90.0143,0,5,01_04_2015 level23_spatial_F+V 14_59 Block9-8.txt,37,37,1203,47.0,-20.0,2015-04-01,False,single_speaker,right
11,124.005,0,730,2058,2857,4205,951,10.0,200,1,0,124.9325,0,2,01_04_2015 level23_spatial_F+V 14_59 Block9-8.txt,37,37,1203,47.0,-20.0,2015-04-01,False,separated,left
13,147.9873,0,460,1105,2857,4205,1001,10.0,200,0,0,149.7252,1,3,01_04_2015 level23_spatial_F+V 14_59 Block9-8.txt,37,37,1203,47.0,-20.0,2015-04-01,False,separated,right
14,155.3924,0,730,2058,2857,4205,501,10.0,200,1,0,156.0199,0,3,01_04_2015 level23_spatial_F+V 14_59 Block9-8.txt,37,37,1203,47.0,-20.0,2015-04-01,False,separated,right
16,167.1079,0,460,1105,2857,4205,551,10.0,200,0,0,167.9658,1,1,01_04_2015 level23_spatial_F+V 14_59 Block9-8.txt,37,37,1203,47.0,-20.0,2015-04-01,False,colocated,right
17,173.0851,0,730,2058,2857,4205,801,10.0,200,1,0,173.4595,0,3,01_04_2015 level23_spatial_F+V 14_59 Block9-8.txt,37,37,1203,47.0,-20.0,2015-04-01,False,separated,right
20,204.5157,0,460,1105,2857,4205,651,10.0,200,0,0,204.9757,1,2,01_04_2015 level23_spatial_F+V 14_59 Block9-8.txt,37,37,1203,47.0,-20.0,2015-04-01,False,separated,left
21,210.3109,0,730,2058,2857,4205,801,10.0,200,1,1,211.0988,1,4,01_04_2015 level23_spatial_F+V 14_59 Block9-8.txt,37,37,1203,47.0,-20.0,2015-04-01,False,single_speaker,left
22,225.4608,0,730,2058,2857,4205,551,10.0,200,1,0,226.2999,0,0,01_04_2015 level23_spatial_F+V 14_59 Block9-8.txt,37,37,1203,47.0,-20.0,2015-04-01,False,colocated,left
24,240.9485,0,730,2058,2857,4205,951,10.0,200,1,1,241.7505,1,4,01_04_2015 level23_spatial_F+V 14_59 Block9-8.txt,37,37,1203,47.0,-20.0,2015-04-01,False,single_speaker,left
25,253.6862,1,730,2058,2857,4205,701,10.0,200,1,1,254.9576,1,5,01_04_2015 level23_spatial_F+V 14_59 Block9-8.txt,37,37,1203,47.0,-20.0,2015-04-01,False,single_speaker,right
26,268.5648,1,460,1105,2857,4205,601,10.0,200,0,0,269.1717,1,4,01_04_2015 level23_spatial_F+V 14_59 Block9-8.txt,37,37,1203,47.0,-20.0,2015-04-01,False,single_speaker,left
27,277.8369,1,730,2058,2857,4205,901,10.0,200,1,0,279.5832,0,0,01_04_2015 level23_spatial_F+V 14_59 Block9-8.txt,37,37,1203,47.0,-20.0,2015-04-01,False,colocated,left
29,296.6257,0,730,2058,2857,4205,1001,10.0,200,1,0,297.2343,0,1,01_04_2015 level23_spatial_F+V 14_59 Block9-8.txt,37,37,1203,47.0,-20.0,2015-04-01,False,colocated,right
32,327.5523,0,460,1105,2857,4205,501,10.0,200,0,0,328.0324,1,5,01_04_2015 level23_spatial_F+V 14_59 Block9-8.txt,37,37,1203,47.0,-20.0,2015-04-01,False,single_speaker,right
33,337.6059,0,730,2058,2857,4205,751,10.0,200,1,0,339.9839,0,1,01_04_2015 level23_spatial_F+V 14_59 Block9-8.txt,37,37,1203,47.0,-20.0,2015-04-01,False,colocated,right
35,359.0532,0,460,1105,2857,4205,901,10.0,200,0,0,359.5671,1,1,01_04_2015 level23_spatial_F+V 14_59 Block9-8.txt,37,37,1203,47.0,-20.0,2015-04-01,False,colocated,right
36,365.4799,0,460,1105,2857,4205,601,10.0,200,0,0,366.6869,1,1,01_04_2015 level23_spatial_F+V 14_59 Block9-8.txt,37,37,1203,47.0,-20.0,2015-04-01,False,colocated,right
37,372.0292,0,460,1105,2857,4205,751,10.0,200,0,0,372.7425,1,3,01_04_2015 level23_spatial_F+V 14_59 Block9-8.txt,37,37,1203,47.0,-20.0,2015-04-01,False,separated,right
38,377.8456,0,730,2058,2857,4205,551,10.0,200,1,0,378.9781,0,1,01_04_2015 level23_spatial_F+V 14_59 Block9-8.txt,37,37,1203,47.0,-20.0,2015-04-01,False,colocated,right
40,403.4603,0,730,2058,2857,4205,801,10.0,200,1,0,405.6574,0,4,01_04_2015 level23_spatial_F+V 14_59 Block9-8.txt,37,37,1203,47.0,-20.0,2015-04-01,False,single_speaker,left
42,422.6531,0,730,2058,2857,4205,651,10.0,200,1,0,423.1844,0,2,01_04_2015 level23_spatial_F+V 14_59 Block9-8.txt,37,37,1203,47.0,-20.0,2015-04-01,False,separated,left
45,449.5324,0,730,2058,2857,4205,501,10.0,200,1,0,450.7483,0,3,01_04_2015 level23_spatial_F+V 14_59 Block9-8.txt,37,37,1203,47.0,-20.0,2015-04-01,False,separated,right
47,472.3156,0,730,2058,2857,4205,1001,10.0,200,1,1,474.4765,1,0,01_04_2015 level23_spatial_F+V 14_59 Block9-8.txt,37,37,1203,47.0,-20.0,2015-04-01,False,colocated,left
48,486.0058,0,460,1105,2857,4205,701,10.0,200,0,0,486.412,1,0,01_04_2015 level23_spatial_F+V 14_59 Block9-8.txt,37,37,1203,47.0,-20.0,2015-04-01,False,colocated,left
49,495.9841,0,460,1105,2857,4205,951,10.0,200,0,0,496.3731,1,4,01_04_2015 level23_spatial_F+V 14_59 Block9-8.txt,37,37,1203,47.0,-20.0,2015-04-01,False,single_speaker,left
50,507.8397,0,730,2058,2857,4205,951,10.0,200,1,0,508.6971,0,2,01_04_2015 level23_spatial_F+V 14_59 Block9-8.txt,37,37,1203,47.0,-20.0,2015-04-01,False,separated,left
52,531.4007,0,460,1105,2857,4205,751,10.0,200,0,0,531.8755,1,4,01_04_2015 level23_spatial_F+V 14_59 Block9-8.txt,37,37,1203,47.0,-20.0,2015-04-01,False,single_speaker,left
53,537.1861,0,460,1105,2857,4205,601,10.0,200,0,0,538.2505,1,3,01_04_2015 level23_spatial_F+V 14_59 Block9-8.txt,37,37,1203,47.0,-20.0,2015-04-01,False,separated,right
54,543.6114,0,460,1105,2857,4205,551,10.0,200,0,0,544.0671,1,5,01_04_2015 level23_spatial_F+V 14_59 Block9-8.txt,37,37,1203,47.0,-20.0,2015-04-01,False,single_speaker,right
55,550.1572,0,460,1105,2857,4205,851,10.0,200,0,0,550.7882,1,2,01_04_2015 level23_spatial_F+V 14_59 Block9-8.txt,37,37,1203,47.0,-20.0,2015-04-01,False,separated,left
56,556.6806,0,460,1105,2857,4205,1001,10.0,200,0,0,557.3564,1,0,01_04_2015 level23_spatial_F+V 14_59 Block9-8.txt,37,37,1203,47.0,-20.0,2015-04-01,False,colocated,left
57,563.4273,0,460,1105,2857,4205,901,10.0,200,0,0,563.938,1,3,01_04_2015 level23_spatial_F+V 14_59 Block9-8.txt,37,37,1203,47.0,-20.0,2015-04-01,False,separated,right
58,571.4658,0,730,2058,2857,4205,651,10.0,200,1,1,572.9176,1,4,01_04_2015 level23_spatial_F+V 14_59 Block9-8.txt,37,37,1203,47.0,-20.0,2015-04-01,False,single_speaker,left
59,583.4824,1,730,2058,2857,4205,501,10.0,200,1,0,584.3375,0,0,01_04_2015 level23_spatial_F+V 14_59 Block9-8.txt,37,37,1203,47.0,-20.0,2015-04-01,False,colocated,left
61,609.9026,0,460,1105,2857,4205,801,10.0,200,0,0,610.3333,1,1,01_04_2015 level23_spatial_F+V 14_59 Block9-8.txt,37,37,1203,47.0,-20.0,2015-04-01,False,colocated,right
62,618.8332,0,460,1105,2857,4205,601,10.0,200,0,0,619.5388,1,2,01_04_2015 level23_spatial_F+V 14_59 Block9-8.txt,37,37,1203,47.0,-20.0,2015-04-01,False,separated,left
63,625.4297,0,730,2058,2857,4205,551,10.0,200,1,0,626.3433,0,5,01_04_2015 level23_spatial_F+V 14_59 Block9-8.txt,37,37,1203,47.0,-20.0,2015-04-01,False,single_speaker,right
66,653.436,0,460,1105,2857,4205,751,10.0,200,0,0,653.8849,1,4,01_04_2015 level23_spatial_F+V 14_59 Block9-8.txt,37,37,1203,47.0,-20.0,2015-04-01,False,single_speaker,left
67,662.921,0,460,1105,2857,4205,901,10.0,200,0,0,663.1468,1,1,01_04_2015 level23_spatial_F+V 14_59 Block9-8.txt,37,37,1203,47.0,-20.0,2015-04-01,False,colocated,right
68,668.2957,1,730,2058,2857,4205,701,10.0,200,1,0,669.0389,0,2,01_04_2015 level23_spatial_F+V 14_59 Block9-8.txt,37,37,1203,47.0,-20.0,2015-04-01,False,separated,left
70,678.284,0,730,2058,2857,4205,1001,10.0,200,1,1,679.4096,1,0,01_04_2015 level23_spatial_F+V 14_59 Block9-8.txt,37,37,1203,47.0,-20.0,2015-04-01,False,colocated,left
71,695.4989,0,730,2058,2857,4205,951,10.0,200,1,0,696.1465,0,4,01_04_2015 level23_spatial_F+V 14_59 Block9-8.txt,37,37,1203,47.0,-20.0,2015-04-01,False,single_speaker,left
73,717.561,0,460,1105,2857,4205,651,10.0,200,0,0,718.0445,1,0,01_04_2015 level23_spatial_F+V 14_59 Block9-8.txt,37,37,1203,47.0,-20.0,2015-04-01,False,colocated,left
74,723.4189,0,460,1105,2857,4205,501,10.0,200,0,0,724.2624,1,0,01_04_2015 level23_spatial_F+V 14_59 Block9-8.txt,37,37,1203,47.0,-20.0,2015-04-01,False,colocated,left
75,733.8276,0,460,1105,2857,4205,851,10.0,200,0,0,734.273,1,2,01_04_2015 level23_spatial_F+V 14_59 Block9-8.txt,37,37,1203,47.0,-20.0,2015-04-01,False,separated,left
76,739.9397,0,730,2058,2857,4205,601,10.0,200,1,0,740.567,0,2,01_04_2015 level23_spatial_F+V 14_59 Block9-8.txt,37,37,1203,47.0,-20.0,2015-04-01,False,separated,left
78,751.1715,1,460,1105,2857,4205,501,10.0,200,0,0,752.344,1,4,01_04_2015 level23_spatial_F+V 14_59 Block9-8.txt,37,37,1203,47.0,-20.0,2015-04-01,False,single_speaker,left
79,759.4938,0,730,2058,2857,4205,551,10.0,200,1,1,760.5592,1,2,01_04_2015 level23_spatial_F+V 14_59 Block9-8.txt,37,37,1203,47.0,-20.0,2015-04-01,False,separated,left
80,782.4022,1,460,1105,2857,4205,901,10.0,200,0,0,782.9248,1,1,01_04_2015 level23_spatial_F+V 14_59 Block9-8.txt,37,37,1203,47.0,-20.0,2015-04-01,False,colocated,right
81,790.8187,0,730,2058,2857,4205,951,10.0,200,1,0,791.3406,0,1,01_04_2015 level23_spatial_F+V 14_59 Block9-8.txt,37,37,1203,47.0,-20.0,2015-04-01,False,colocated,right
83,813.6847,0,460,1105,2857,4205,701,10.0,200,0,0,814.2005,1,5,01_04_2015 level23_spatial_F+V 14_59 Block9-8.txt,37,37,1203,47.0,-20.0,2015-04-01,False,single_speaker,right
84,819.3279,0,460,1105,2857,4205,751,10.0,200,0,0,819.9138,1,4,01_04_2015 level23_spatial_F+V 14_59 Block9-8.txt,37,37,1203,47.0,-20.0,2015-04-01,False,single_speaker,left
85,824.9219,0,730,2058,2857,4205,801,10.0,200,1,1,825.8897,1,5,01_04_2015 level23_spatial_F+V 14_59 Block9-8.txt,37,37,1203,47.0,-20.0,2015-04-01,False,single_speaker,right
86,839.0924,0,460,1105,2857,4205,651,10.0,200,0,0,839.5327,1,2,01_04_2015 level23_spatial_F+V 14_59 Block9-8.txt,37,37,1203,47.0,-20.0,2015-04-01,False,separated,left
87,844.7516,0,460,1105,2857,4205,851,10.0,200,0,0,845.1312,1,5,01_04_2015 level23_spatial_F+V 14_59 Block9-8.txt,37,37,1203,47.0,-20.0,2015-04-01,False,single_speaker,right
88,851.5101,0,730,2058,2857,4205,751,10.0,200,1,0,853.1066,0,3,01_04_2015 level23_spatial_F+V 14_59 Block9-8.txt,37,37,1203,47.0,-20.0,2015-04-01,False,separated,right
90,880.0746,0,460,1105,2857,4205,951,10.0,200,0,0,880.5295,1,5,01_04_2015 level23_spatial_F+V 14_59 Block9-8.txt,37,37,1203,47.0,-20.0,2015-04-01,False,single_speaker,right
91,885.4924,1,460,1105,2857,4205,601,10.0,200,0,0,885.9921,1,0,01_04_2015 level23_spatial_F+V 14_59 Block9-8.txt,37,37,1203,47.0,-20.0,2015-04-01,False,colocated,left
92,891.8376,0,730,2058,2857,4205,901,10.0,200,1,0,892.3625,0,5,01_04_2015 level23_spatial_F+V 14_59 Block9-8.txt,37,37,1203,47.0,-20.0,2015-04-01,False,single_speaker,right
94,914.4336,0,730,2058,2857,4205,1001,10.0,200,1,0,915.0779,0,1,01_04_2015 level23_spatial_F+V 14_59 Block9-8.txt,37,37,1203,47.0,-20.0,2015-04-01,False,colocated,right
97,947.1121,0,730,2058,2857,4205,501,10.0,200,1,1,948.2306,1,1,01_04_2015 level23_spatial_F+V 14_59 Block9-8.txt,37,37,1203,47.0,-20.0,2015-04-01,False,colocated,right
98,959.5703,0,460,1105,2857,4205,551,10.0,200,0,0,959.9769,1,3,01_04_2015 level23_spatial_F+V 14_59 Block9-8.txt,37,37,1203,47.0,-20.0,2015-04-01,False,separated,right
99,967.0343,0,730,2058,2857,4205,801,10.0,200,1,0,967.5647,0,3,01_04_2015 level23_spatial_F+V 14_59 Block9-8.txt,37,37,1203,47.0,-20.0,2015-04-01,False,separated,right
1,9.7746,0,730,2058,2857,4205,701,10.0,200,1,1,10.4443,1,4,30_09_2014 level23_spatial_F+V 10_33 Block6-90.txt,37,37,1203,47.0,-20.0,2014-09-30,False,single_speaker,left
2,13.6143,0,460,1105,2857,4205,1001,10.0,200,0,1,14.2996,0,2,30_09_2014 level23_spatial_F+V 10_33 Block6-90.txt,37,37,1203,47.0,-20.0,2014-09-30,False,separated,left
5,45.5073,0,460,1105,2857,4205,751,10.0,200,0,0,46.3423,1,2,30_09_2014 level23_spatial_F+V 10_33 Block6-90.txt,37,37,1203,47.0,-20.0,2014-09-30,False,separated,left
6,54.8681,0,460,1105,2857,4205,601,10.0,200,0,0,55.7958,1,5,30_09_2014 level23_spatial_F+V 10_33 Block6-90.txt,37,37,1203,47.0,-20.0,2014-09-30,False,single_speaker,right
7,67.4449,0,730,2058,2857,4205,901,10.0,200,1,1,67.8081,1,3,30_09_2014 level23_spatial_F+V 10_33 Block6-90.txt,37,37,1203,47.0,-20.0,2014-09-30,False,separated,right
8,71.065,0,730,2058,2857,4205,951,10.0,200,1,1,71.7122,1,1,30_09_2014 level23_spatial_F+V 10_33 Block6-90.txt,37,37,1203,47.0,-20.0,2014-09-30,False,colocated,right
9,73.2842,0,730,2058,2857,4205,801,10.0,200,1,0,74.2933,0,1,30_09_2014 level23_spatial_F+V 10_33 Block6-90.txt,37,37,1203,47.0,-20.0,2014-09-30,False,colocated,right
13,106.1458,0,730,2058,2857,4205,551,10.0,200,1,1,107.2485,1,4,30_09_2014 level23_spatial_F+V 10_33 Block6-90.txt,37,37,1203,47.0,-20.0,2014-09-30,False,single_speaker,left
14,113.0945,0,730,2058,2857,4205,501,10.0,200,1,1,114.2632,1,1,30_09_2014 level23_spatial_F+V 10_33 Block6-90.txt,37,37,1203,47.0,-20.0,2014-09-30,False,colocated,right
15,122.0975,0,460,1105,2857,4205,651,10.0,200,0,1,122.7112,0,1,30_09_2014 level23_spatial_F+V 10_33 Block6-90.txt,37,37,1203,47.0,-20.0,2014-09-30,False,colocated,right
17,136.8953,0,730,2058,2857,4205,701,10.0,200,1,1,137.4782,1,5,30_09_2014 level23_spatial_F+V 10_33 Block6-90.txt,37,37,1203,47.0,-20.0,2014-09-30,False,single_speaker,right
18,145.2108,0,730,2058,2857,4205,1001,10.0,200,1,1,145.8223,1,4,30_09_2014 level23_spatial_F+V 10_33 Block6-90.txt,37,37,1203,47.0,-20.0,2014-09-30,False,single_speaker,left
19,159.579,0,460,1105,2857,4205,851,10.0,200,0,0,160.1704,1,4,30_09_2014 level23_spatial_F+V 10_33 Block6-90.txt,37,37,1203,47.0,-20.0,2014-09-30,False,single_speaker,left
20,168.454,0,460,1105,2857,4205,601,10.0,200,0,1,169.1507,0,1,30_09_2014 level23_spatial_F+V 10_33 Block6-90.txt,37,37,1203,47.0,-20.0,2014-09-30,False,colocated,right
23,199.5219,0,460,1105,2857,4205,651,10.0,200,0,0,200.5701,1,0,30_09_2014 level23_spatial_F+V 10_33 Block6-90.txt,37,37,1203,47.0,-20.0,2014-09-30,False,colocated,left
24,210.9579,0,460,1105,2857,4205,901,10.0,200,0,0,211.7014,1,5,30_09_2014 level23_spatial_F+V 10_33 Block6-90.txt,37,37,1203,47.0,-20.0,2014-09-30,False,single_speaker,right
25,223.8178,0,730,2058,2857,4205,751,10.0,200,1,1,224.4225,1,2,30_09_2014 level23_spatial_F+V 10_33 Block6-90.txt,37,37,1203,47.0,-20.0,2014-09-30,False,separated,left
26,227.9994,0,730,2058,2857,4205,551,10.0,200,1,1,228.3891,1,0,30_09_2014 level23_spatial_F+V 10_33 Block6-90.txt,37,37,1203,47.0,-20.0,2014-09-30,False,colocated,left
27,238.0063,0,460,1105,2857,4205,801,10.0,200,0,0,239.0242,1,3,30_09_2014 level23_spatial_F+V 10_33 Block6-90.txt,37,37,1203,47.0,-20.0,2014-09-30,False,separated,right
28,249.4032,0,730,2058,2857,4205,951,10.0,200,1,1,250.1649,1,3,30_09_2014 level23_spatial_F+V 10_33 Block6-90.txt,37,37,1203,47.0,-20.0,2014-09-30,False,separated,right
29,258.9941,0,730,2058,2857,4205,901,10.0,200,1,1,259.8882,1,3,30_09_2014 level23_spatial_F+V 10_33 Block6-90.txt,37,37,1203,47.0,-20.0,2014-09-30,False,separated,right
30,268.5532,0,730,2058,2857,4205,501,10.0,200,1,1,269.5909,1,0,30_09_2014 level23_spatial_F+V 10_33 Block6-90.txt,37,37,1203,47.0,-20.0,2014-09-30,False,colocated,left
31,272.0163,0,730,2058,2857,4205,551,10.0,200,1,1,272.9325,1,0,30_09_2014 level23_spatial_F+V 10_33 Block6-90.txt,37,37,1203,47.0,-20.0,2014-09-30,False,colocated,left
32,281.7528,0,460,1105,2857,4205,951,10.0,200,0,0,282.2527,1,0,30_09_2014 level23_spatial_F+V 10_33 Block6-90.txt,37,37,1203,47.0,-20.0,2014-09-30,False,colocated,left
33,291.881,0,460,1105,2857,4205,651,10.0,200,0,1,292.9606,0,0,30_09_2014 level23_spatial_F+V 10_33 Block6-90.txt,37,37,1203,47.0,-20.0,2014-09-30,False,colocated,left
35,311.9637,0,730,2058,2857,4205,801,10.0,200,1,1,312.8059,1,5,30_09_2014 level23_spatial_F+V 10_33 Block6-90.txt,37,37,1203,47.0,-20.0,2014-09-30,False,single_speaker,right
36,317.5229,0,730,2058,2857,4205,1001,10.0,200,1,1,318.1751,1,5,30_09_2014 level23_spatial_F+V 10_33 Block6-90.txt,37,37,1203,47.0,-20.0,2014-09-30,False,single_speaker,right
37,325.948,0,460,1105,2857,4205,701,10.0,200,0,1,326.878,0,5,30_09_2014 level23_spatial_F+V 10_33 Block6-90.txt,37,37,1203,47.0,-20.0,2014-09-30,False,single_speaker,right
39,345.2609,0,730,2058,2857,4205,851,10.0,200,1,1,346.0391,1,2,30_09_2014 level23_spatial_F+V 10_33 Block6-90.txt,37,37,1203,47.0,-20.0,2014-09-30,False,separated,left
40,351.753,0,460,1105,2857,4205,751,10.0,200,0,1,352.6893,0,2,30_09_2014 level23_spatial_F+V 10_33 Block6-90.txt,37,37,1203,47.0,-20.0,2014-09-30,False,separated,left
42,373.6799,0,730,2058,2857,4205,1001,10.0,200,1,1,374.5112,1,2,30_09_2014 level23_spatial_F+V 10_33 Block6-90.txt,37,37,1203,47.0,-20.0,2014-09-30,False,separated,left
43,382.8963,0,460,1105,2857,4205,551,10.0,200,0,1,383.7045,0,3,30_09_2014 level23_spatial_F+V 10_33 Block6-90.txt,37,37,1203,47.0,-20.0,2014-09-30,False,separated,right
45,404.428,0,460,1105,2857,4205,751,10.0,200,0,1,405.3129,0,3,30_09_2014 level23_spatial_F+V 10_33 Block6-90.txt,37,37,1203,47.0,-20.0,2014-09-30,False,separated,right
48,430.9486,0,460,1105,2857,4205,951,10.0,200,0,0,431.7472,1,1,30_09_2014 level23_spatial_F+V 10_33 Block6-90.txt,37,37,1203,47.0,-20.0,2014-09-30,False,colocated,right
49,440.2084,0,460,1105,2857,4205,901,10.0,200,0,0,440.9652,1,4,30_09_2014 level23_spatial_F+V 10_33 Block6-90.txt,37,37,1203,47.0,-20.0,2014-09-30,False,single_speaker,left
50,452.3327,0,460,1105,2857,4205,651,10.0,200,0,0,452.9977,1,4,30_09_2014 level23_spatial_F+V 10_33 Block6-90.txt,37,37,1203,47.0,-20.0,2014-09-30,False,single_speaker,left
51,463.6459,0,460,1105,2857,4205,701,10.0,200,0,1,464.2805,0,0,30_09_2014 level23_spatial_F+V 10_33 Block6-90.txt,37,37,1203,47.0,-20.0,2014-09-30,False,colocated,left
54,494.8464,1,460,1105,2857,4205,801,10.0,200,0,0,496.353,1,4,30_09_2014 level23_spatial_F+V 10_33 Block6-90.txt,37,37,1203,47.0,-20.0,2014-09-30,False,single_speaker,left
55,499.0132,0,460,1105,2857,4205,501,10.0,200,0,1,500.7279,0,1,30_09_2014 level23_spatial_F+V 10_33 Block6-90.txt,37,37,1203,47.0,-20.0,2014-09-30,False,colocated,right
57,525.8382,0,460,1105,2857,4205,601,10.0,200,0,0,527.0328,1,3,30_09_2014 level23_spatial_F+V 10_33 Block6-90.txt,37,37,1203,47.0,-20.0,2014-09-30,False,separated,right
58,536.931,0,730,2058,2857,4205,501,10.0,200,1,1,537.6739,1,4,30_09_2014 level23_spatial_F+V 10_33 Block6-90.txt,37,37,1203,47.0,-20.0,2014-09-30,False,single_speaker,left
59,540.0188,0,730,2058,2857,4205,801,10.0,200,1,1,540.4006,1,0,30_09_2014 level23_spatial_F+V 10_33 Block6-90.txt,37,37,1203,47.0,-20.0,2014-09-30,False,colocated,left
60,548.593,0,460,1105,2857,4205,651,10.0,200,0,0,549.9002,1,2,30_09_2014 level23_spatial_F+V 10_33 Block6-90.txt,37,37,1203,47.0,-20.0,2014-09-30,False,separated,left
61,560.9251,0,460,1105,2857,4205,601,10.0,200,0,1,561.6698,0,2,30_09_2014 level23_spatial_F+V 10_33 Block6-90.txt,37,37,1203,47.0,-20.0,2014-09-30,False,separated,left
63,582.5288,0,460,1105,2857,4205,551,10.0,200,0,0,583.6306,1,5,30_09_2014 level23_spatial_F+V 10_33 Block6-90.txt,37,37,1203,47.0,-20.0,2014-09-30,False,single_speaker,right
64,588.7467,0,730,2058,2857,4205,751,10.0,200,1,1,589.4734,1,0,30_09_2014 level23_spatial_F+V 10_33 Block6-90.txt,37,37,1203,47.0,-20.0,2014-09-30,False,colocated,left
65,592.1676,0,730,2058,2857,4205,701,10.0,200,1,1,592.9634,1,3,30_09_2014 level23_spatial_F+V 10_33 Block6-90.txt,37,37,1203,47.0,-20.0,2014-09-30,False,separated,right
66,601.943,0,460,1105,2857,4205,1001,10.0,200,0,0,605.026,1,5,30_09_2014 level23_spatial_F+V 10_33 Block6-90.txt,37,37,1203,47.0,-20.0,2014-09-30,False,single_speaker,right
67,616.1993,0,460,1105,2857,4205,901,10.0,200,0,0,616.7654,1,4,30_09_2014 level23_spatial_F+V 10_33 Block6-90.txt,37,37,1203,47.0,-20.0,2014-09-30,False,single_speaker,left
68,627.8717,0,730,2058,2857,4205,851,10.0,200,1,1,628.4215,1,2,30_09_2014 level23_spatial_F+V 10_33 Block6-90.txt,37,37,1203,47.0,-20.0,2014-09-30,False,separated,left
69,631.2721,0,460,1105,2857,4205,501,10.0,200,0,1,632.1616,0,1,30_09_2014 level23_spatial_F+V 10_33 Block6-90.txt,37,37,1203,47.0,-20.0,2014-09-30,False,colocated,right
71,655.1661,0,460,1105,2857,4205,901,10.0,200,0,1,655.6956,0,0,30_09_2014 level23_spatial_F+V 10_33 Block6-90.txt,37,37,1203,47.0,-20.0,2014-09-30,False,colocated,left
74,681.1258,1,730,2058,2857,4205,1001,10.0,200,1,0,681.4996,0,3,30_09_2014 level23_spatial_F+V 10_33 Block6-90.txt,37,37,1203,47.0,-20.0,2014-09-30,False,separated,right
76,712.2969,0,730,2058,2857,4205,801,10.0,200,1,1,713.0538,1,1,30_09_2014 level23_spatial_F+V 10_33 Block6-90.txt,37,37,1203,47.0,-20.0,2014-09-30,False,colocated,right
77,718.4863,0,460,1105,2857,4205,751,10.0,200,0,1,718.8797,0,4,30_09_2014 level23_spatial_F+V 10_33 Block6-90.txt,37,37,1203,47.0,-20.0,2014-09-30,False,single_speaker,left
79,734.647,0,730,2058,2857,4205,851,10.0,200,1,0,735.321,0,0,30_09_2014 level23_spatial_F+V 10_33 Block6-90.txt,37,37,1203,47.0,-20.0,2014-09-30,False,colocated,left
82,757.6297,0,730,2058,2857,4205,651,10.0,200,1,1,758.3638,1,3,30_09_2014 level23_spatial_F+V 10_33 Block6-90.txt,37,37,1203,47.0,-20.0,2014-09-30,False,separated,right
83,766.8315,0,460,1105,2857,4205,601,10.0,200,0,1,768.0665,0,3,30_09_2014 level23_spatial_F+V 10_33 Block6-90.txt,37,37,1203,47.0,-20.0,2014-09-30,False,separated,right
85,782.5788,0,730,2058,2857,4205,701,10.0,200,1,1,783.4974,1,4,30_09_2014 level23_spatial_F+V 10_33 Block6-90.txt,37,37,1203,47.0,-20.0,2014-09-30,False,single_speaker,left
86,798.5461,0,460,1105,2857,4205,951,10.0,200,0,1,799.9118,0,0,30_09_2014 level23_spatial_F+V 10_33 Block6-90.txt,37,37,1203,47.0,-20.0,2014-09-30,False,colocated,left
89,841.2483,0,730,2058,2857,4205,601,10.0,200,1,1,842.2098,1,2,30_09_2014 level23_spatial_F+V 10_33 Block6-90.txt,37,37,1203,47.0,-20.0,2014-09-30,False,separated,left
90,848.3507,0,730,2058,2857,4205,1001,10.0,200,1,1,849.622,1,5,30_09_2014 level23_spatial_F+V 10_33 Block6-90.txt,37,37,1203,47.0,-20.0,2014-09-30,False,single_speaker,right
91,855.51,0,460,1105,2857,4205,801,10.0,200,0,1,856.3823,0,3,30_09_2014 level23_spatial_F+V 10_33 Block6-90.txt,37,37,1203,47.0,-20.0,2014-09-30,False,separated,right
1,49.3494,0,730,2058,2857,4205,1001,10.0,200,1,0,49.9707,0,3,20_03_2015 level23_spatial_F+V 14_05 Block9-2.txt,37,37,1203,47.0,-20.0,2015-03-20,False,separated,right
1,8.595,1,730,2058,2857,4205,801,10.0,200,1,1,9.6781,1,0,01_04_2015 level23_spatial_F+V 09_00 Block9-7.txt,37,37,1203,47.0,-20.0,2015-04-01,False,colocated,left
2,15.0239,1,730,2058,2857,4205,701,10.0,200,1,1,16.232,1,5,01_04_2015 level23_spatial_F+V 09_00 Block9-7.txt,37,37,1203,47.0,-20.0,2015-04-01,False,single_speaker,right
3,30.9338,0,460,1105,2857,4205,1001,10.0,200,0,0,31.9823,1,0,01_04_2015 level23_spatial_F+V 09_00 Block9-7.txt,37,37,1203,47.0,-20.0,2015-04-01,False,colocated,left
4,39.9712,0,730,2058,2857,4205,851,10.0,200,1,0,40.4686,0,1,01_04_2015 level23_spatial_F+V 09_00 Block9-7.txt,37,37,1203,47.0,-20.0,2015-04-01,False,colocated,right
6,72.3481,0,730,2058,2857,4205,651,10.0,200,1,1,73.137,1,2,01_04_2015 level23_spatial_F+V 09_00 Block9-7.txt,37,37,1203,47.0,-20.0,2015-04-01,False,separated,left
7,93.3157,0,730,2058,2857,4205,551,10.0,200,1,0,94.3241,0,3,01_04_2015 level23_spatial_F+V 09_00 Block9-7.txt,37,37,1203,47.0,-20.0,2015-04-01,False,separated,right
9,112.183,0,460,1105,2857,4205,601,10.0,200,0,0,113.0529,1,1,01_04_2015 level23_spatial_F+V 09_00 Block9-7.txt,37,37,1203,47.0,-20.0,2015-04-01,False,colocated,right
10,124.1386,0,460,1105,2857,4205,901,10.0,200,0,0,125.0488,1,4,01_04_2015 level23_spatial_F+V 09_00 Block9-7.txt,37,37,1203,47.0,-20.0,2015-04-01,False,single_speaker,left
11,131.1891,0,730,2058,2857,4205,501,10.0,200,1,1,132.3744,1,2,01_04_2015 level23_spatial_F+V 09_00 Block9-7.txt,37,37,1203,47.0,-20.0,2015-04-01,False,separated,left
12,147.5838,0,460,1105,2857,4205,951,10.0,200,0,0,148.2367,1,4,01_04_2015 level23_spatial_F+V 09_00 Block9-7.txt,37,37,1203,47.0,-20.0,2015-04-01,False,single_speaker,left
13,157.7151,0,730,2058,2857,4205,801,10.0,200,1,1,158.1959,1,0,01_04_2015 level23_spatial_F+V 09_00 Block9-7.txt,37,37,1203,47.0,-20.0,2015-04-01,False,colocated,left
14,170.9167,1,460,1105,2857,4205,951,10.0,200,0,0,171.8504,1,2,01_04_2015 level23_spatial_F+V 09_00 Block9-7.txt,37,37,1203,47.0,-20.0,2015-04-01,False,separated,left
15,181.4133,0,460,1105,2857,4205,551,10.0,200,0,0,181.8471,1,1,01_04_2015 level23_spatial_F+V 09_00 Block9-7.txt,37,37,1203,47.0,-20.0,2015-04-01,False,colocated,right
16,189.0225,0,730,2058,2857,4205,1001,10.0,200,1,0,189.7458,0,1,01_04_2015 level23_spatial_F+V 09_00 Block9-7.txt,37,37,1203,47.0,-20.0,2015-04-01,False,colocated,right
20,227.9523,0,460,1105,2857,4205,601,10.0,200,0,0,228.8189,1,2,01_04_2015 level23_spatial_F+V 09_00 Block9-7.txt,37,37,1203,47.0,-20.0,2015-04-01,False,separated,left
21,237.0875,0,730,2058,2857,4205,851,10.0,200,1,1,237.8615,1,5,01_04_2015 level23_spatial_F+V 09_00 Block9-7.txt,37,37,1203,47.0,-20.0,2015-04-01,False,single_speaker,right
22,246.3726,0,460,1105,2857,4205,651,10.0,200,0,0,246.9186,1,5,01_04_2015 level23_spatial_F+V 09_00 Block9-7.txt,37,37,1203,47.0,-20.0,2015-04-01,False,single_speaker,right
23,260.27,1,460,1105,2857,4205,901,10.0,200,0,0,260.8101,1,5,01_04_2015 level23_spatial_F+V 09_00 Block9-7.txt,37,37,1203,47.0,-20.0,2015-04-01,False,single_speaker,right
24,268.3784,1,460,1105,2857,4205,751,10.0,200,0,0,268.8074,1,5,01_04_2015 level23_spatial_F+V 09_00 Block9-7.txt,37,37,1203,47.0,-20.0,2015-04-01,False,single_speaker,right
25,274.8751,0,730,2058,2857,4205,701,10.0,200,1,0,276.0785,0,5,01_04_2015 level23_spatial_F+V 09_00 Block9-7.txt,37,37,1203,47.0,-20.0,2015-04-01,False,single_speaker,right
27,296.3937,0,730,2058,2857,4205,501,10.0,200,1,0,296.9126,0,4,01_04_2015 level23_spatial_F+V 09_00 Block9-7.txt,37,37,1203,47.0,-20.0,2015-04-01,False,single_speaker,left
29,313.3682,0,460,1105,2857,4205,551,10.0,200,0,0,313.7159,1,4,01_04_2015 level23_spatial_F+V 09_00 Block9-7.txt,37,37,1203,47.0,-20.0,2015-04-01,False,single_speaker,left
30,319.4016,1,730,2058,2857,4205,651,10.0,200,1,1,320.9691,1,4,01_04_2015 level23_spatial_F+V 09_00 Block9-7.txt,37,37,1203,47.0,-20.0,2015-04-01,False,single_speaker,left
31,337.9189,0,730,2058,2857,4205,751,10.0,200,1,0,338.4728,0,2,01_04_2015 level23_spatial_F+V 09_00 Block9-7.txt,37,37,1203,47.0,-20.0,2015-04-01,False,separated,left
34,376.339,0,460,1105,2857,4205,601,10.0,200,0,0,376.8961,1,3,01_04_2015 level23_spatial_F+V 09_00 Block9-7.txt,37,37,1203,47.0,-20.0,2015-04-01,False,separated,right
35,391.3508,0,460,1105,2857,4205,901,10.0,200,0,1,391.9654,0,3,01_04_2015 level23_spatial_F+V 09_00 Block9-7.txt,37,37,1203,47.0,-20.0,2015-04-01,False,separated,right
37,412.3672,0,460,1105,2857,4205,701,10.0,200,0,0,412.9756,1,2,01_04_2015 level23_spatial_F+V 09_00 Block9-7.txt,37,37,1203,47.0,-20.0,2015-04-01,False,separated,left
38,418.5819,0,730,2058,2857,4205,801,10.0,200,1,1,419.7741,1,4,01_04_2015 level23_spatial_F+V 09_00 Block9-7.txt,37,37,1203,47.0,-20.0,2015-04-01,False,single_speaker,left
39,434.0205,0,460,1105,2857,4205,1001,10.0,200,0,0,434.4298,1,0,01_04_2015 level23_spatial_F+V 09_00 Block9-7.txt,37,37,1203,47.0,-20.0,2015-04-01,False,colocated,left
40,439.9698,0,730,2058,2857,4205,951,10.0,200,1,0,440.3467,0,3,01_04_2015 level23_spatial_F+V 09_00 Block9-7.txt,37,37,1203,47.0,-20.0,2015-04-01,False,separated,right
43,479.3995,0,460,1105,2857,4205,501,10.0,200,0,0,479.9138,1,0,01_04_2015 level23_spatial_F+V 09_00 Block9-7.txt,37,37,1203,47.0,-20.0,2015-04-01,False,colocated,left
44,488.4173,0,460,1105,2857,4205,801,10.0,200,0,0,488.7621,1,3,01_04_2015 level23_spatial_F+V 09_00 Block9-7.txt,37,37,1203,47.0,-20.0,2015-04-01,False,separated,right
45,499.1743,1,730,2058,2857,4205,1001,10.0,200,1,1,499.9637,1,3,01_04_2015 level23_spatial_F+V 09_00 Block9-7.txt,37,37,1203,47.0,-20.0,2015-04-01,False,separated,right
46,511.535,0,730,2058,2857,4205,601,10.0,200,1,0,512.054,0,0,01_04_2015 level23_spatial_F+V 09_00 Block9-7.txt,37,37,1203,47.0,-20.0,2015-04-01,False,colocated,left
48,537.2837,1,460,1105,2857,4205,901,10.0,200,0,0,537.7184,1,1,01_04_2015 level23_spatial_F+V 09_00 Block9-7.txt,37,37,1203,47.0,-20.0,2015-04-01,False,colocated,right
49,550.6623,0,730,2058,2857,4205,951,10.0,200,1,1,551.7479,1,1,01_04_2015 level23_spatial_F+V 09_00 Block9-7.txt,37,37,1203,47.0,-20.0,2015-04-01,False,colocated,right
50,564.656,0,730,2058,2857,4205,551,10.0,200,1,0,565.2102,0,2,01_04_2015 level23_spatial_F+V 09_00 Block9-7.txt,37,37,1203,47.0,-20.0,2015-04-01,False,separated,left
52,587.0585,0,730,2058,2857,4205,851,10.0,200,1,0,587.6001,0,5,01_04_2015 level23_spatial_F+V 09_00 Block9-7.txt,37,37,1203,47.0,-20.0,2015-04-01,False,single_speaker,right
54,611.4439,0,730,2058,2857,4205,701,10.0,200,1,1,612.313,1,4,01_04_2015 level23_spatial_F+V 09_00 Block9-7.txt,37,37,1203,47.0,-20.0,2015-04-01,False,single_speaker,left
55,619.5862,0,460,1105,2857,4205,651,10.0,200,0,0,622.0303,1,2,01_04_2015 level23_spatial_F+V 09_00 Block9-7.txt,37,37,1203,47.0,-20.0,2015-04-01,False,separated,left
56,627.7914,0,460,1105,2857,4205,651,10.0,200,0,0,628.2442,1,5,01_04_2015 level23_spatial_F+V 09_00 Block9-7.txt,37,37,1203,47.0,-20.0,2015-04-01,False,single_speaker,right
57,633.4839,0,730,2058,2857,4205,801,10.0,200,1,1,634.407,1,0,01_04_2015 level23_spatial_F+V 09_00 Block9-7.txt,37,37,1203,47.0,-20.0,2015-04-01,False,colocated,left
58,647.8131,0,460,1105,2857,4205,701,10.0,200,0,0,648.1634,1,4,01_04_2015 level23_spatial_F+V 09_00 Block9-7.txt,37,37,1203,47.0,-20.0,2015-04-01,False,single_speaker,left
59,653.5273,0,460,1105,2857,4205,551,10.0,200,0,0,653.9695,1,2,01_04_2015 level23_spatial_F+V 09_00 Block9-7.txt,37,37,1203,47.0,-20.0,2015-04-01,False,separated,left
60,669.2322,1,730,2058,2857,4205,1001,10.0,200,1,0,670.5267,0,0,01_04_2015 level23_spatial_F+V 09_00 Block9-7.txt,37,37,1203,47.0,-20.0,2015-04-01,False,colocated,left
62,693.9811,0,730,2058,2857,4205,751,10.0,200,1,1,695.0377,1,5,01_04_2015 level23_spatial_F+V 09_00 Block9-7.txt,37,37,1203,47.0,-20.0,2015-04-01,False,single_speaker,right
63,706.1252,0,730,2058,2857,4205,951,10.0,200,1,0,706.6594,0,3,01_04_2015 level23_spatial_F+V 09_00 Block9-7.txt,37,37,1203,47.0,-20.0,2015-04-01,False,separated,right
1,16.347,1,460,1105,2857,4205,851,-5.0,200,0,0,19.9936,1,4,14_03_2014 level23_spatial_F+V 09_25 Block4-45.txt,37,37,1203,62.0,-5.0,2014-03-14,False,single_speaker,left
2,27.5091,0,730,2058,2857,4205,901,-5.0,200,1,1,27.7695,1,0,14_03_2014 level23_spatial_F+V 09_25 Block4-45.txt,37,37,1203,62.0,-5.0,2014-03-14,False,colocated,left
3,34.3457,0,460,1105,2857,4205,951,-5.0,200,0,0,35.3277,1,4,14_03_2014 level23_spatial_F+V 09_25 Block4-45.txt,37,37,1203,62.0,-5.0,2014-03-14,False,single_speaker,left
4,42.9892,0,730,2058,2857,4205,701,-5.0,200,1,1,43.4284,1,3,14_03_2014 level23_spatial_F+V 09_25 Block4-45.txt,37,37,1203,62.0,-5.0,2014-03-14,False,separated,right
5,47.6885,0,460,1105,2857,4205,601,-5.0,200,0,1,59.1403,0,5,14_03_2014 level23_spatial_F+V 09_25 Block4-45.txt,37,37,1203,62.0,-5.0,2014-03-14,False,single_speaker,right
9,93.5341,0,460,1105,2857,4205,551,-5.0,200,0,0,94.6688,1,0,14_03_2014 level23_spatial_F+V 09_25 Block4-45.txt,37,37,1203,62.0,-5.0,2014-03-14,False,colocated,left
10,101.7687,0,730,2058,2857,4205,801,-5.0,200,1,1,101.9143,1,1,14_03_2014 level23_spatial_F+V 09_25 Block4-45.txt,37,37,1203,62.0,-5.0,2014-03-14,False,colocated,right
11,106.8419,0,730,2058,2857,4205,651,-5.0,200,1,1,107.5912,1,5,14_03_2014 level23_spatial_F+V 09_25 Block4-45.txt,37,37,1203,62.0,-5.0,2014-03-14,False,single_speaker,right
12,113.8068,0,460,1105,2857,4205,751,-5.0,200,0,0,114.2797,1,2,14_03_2014 level23_spatial_F+V 09_25 Block4-45.txt,37,37,1203,62.0,-5.0,2014-03-14,False,separated,left
13,121.1551,0,460,1105,2857,4205,501,-5.0,200,0,0,121.8797,1,2,14_03_2014 level23_spatial_F+V 09_25 Block4-45.txt,37,37,1203,62.0,-5.0,2014-03-14,False,separated,left
14,128.7032,0,460,1105,2857,4205,951,-5.0,200,0,0,129.608,1,5,14_03_2014 level23_spatial_F+V 09_25 Block4-45.txt,37,37,1203,62.0,-5.0,2014-03-14,False,single_speaker,right
15,136.5554,0,730,2058,2857,4205,651,-5.0,200,1,1,136.9341,1,1,14_03_2014 level23_spatial_F+V 09_25 Block4-45.txt,37,37,1203,62.0,-5.0,2014-03-14,False,colocated,right
16,142.061,0,460,1105,2857,4205,851,-5.0,200,0,0,142.8089,1,1,14_03_2014 level23_spatial_F+V 09_25 Block4-45.txt,37,37,1203,62.0,-5.0,2014-03-14,False,colocated,right
17,152.2282,0,460,1105,2857,4205,801,-5.0,200,0,1,152.447,0,3,14_03_2014 level23_spatial_F+V 09_25 Block4-45.txt,37,37,1203,62.0,-5.0,2014-03-14,False,separated,right
19,169.3102,0,730,2058,2857,4205,501,-5.0,200,1,1,169.8773,1,3,14_03_2014 level23_spatial_F+V 09_25 Block4-45.txt,37,37,1203,62.0,-5.0,2014-03-14,False,separated,right
20,175.5981,1,730,2058,2857,4205,551,-5.0,200,1,1,176.2854,1,4,14_03_2014 level23_spatial_F+V 09_25 Block4-45.txt,37,37,1203,62.0,-5.0,2014-03-14,False,single_speaker,left
21,182.4844,0,460,1105,2857,4205,751,-5.0,200,0,1,185.7927,0,3,14_03_2014 level23_spatial_F+V 09_25 Block4-45.txt,37,37,1203,62.0,-5.0,2014-03-14,False,separated,right
24,213.2727,0,460,1105,2857,4205,1001,-5.0,200,0,1,213.4747,0,1,14_03_2014 level23_spatial_F+V 09_25 Block4-45.txt,37,37,1203,62.0,-5.0,2014-03-14,False,colocated,right
26,229.5324,0,730,2058,2857,4205,601,-5.0,200,1,1,229.8955,1,2,14_03_2014 level23_spatial_F+V 09_25 Block4-45.txt,37,37,1203,62.0,-5.0,2014-03-14,False,separated,left
27,235.3561,0,460,1105,2857,4205,901,-5.0,200,0,0,241.3812,1,4,14_03_2014 level23_spatial_F+V 09_25 Block4-45.txt,37,37,1203,62.0,-5.0,2014-03-14,False,single_speaker,left
28,248.352,0,460,1105,2857,4205,801,-5.0,200,0,1,248.5961,0,1,14_03_2014 level23_spatial_F+V 09_25 Block4-45.txt,37,37,1203,62.0,-5.0,2014-03-14,False,colocated,right
31,288.27,0,730,2058,2857,4205,551,-5.0,200,1,1,288.8727,1,5,14_03_2014 level23_spatial_F+V 09_25 Block4-45.txt,37,37,1203,62.0,-5.0,2014-03-14,False,single_speaker,right
32,294.6832,0,730,2058,2857,4205,951,-5.0,200,1,1,294.8514,1,3,14_03_2014 level23_spatial_F+V 09_25 Block4-45.txt,37,37,1203,62.0,-5.0,2014-03-14,False,separated,right
33,302.569,1,460,1105,2857,4205,751,-5.0,200,0,0,303.8593,1,5,14_03_2014 level23_spatial_F+V 09_25 Block4-45.txt,37,37,1203,62.0,-5.0,2014-03-14,False,single_speaker,right
34,311.3253,0,460,1105,2857,4205,501,-5.0,200,0,1,313.7907,0,2,14_03_2014 level23_spatial_F+V 09_25 Block4-45.txt,37,37,1203,62.0,-5.0,2014-03-14,False,separated,left
36,331.1539,0,730,2058,2857,4205,651,-5.0,200,1,1,331.778,1,0,14_03_2014 level23_spatial_F+V 09_25 Block4-45.txt,37,37,1203,62.0,-5.0,2014-03-14,False,colocated,left
37,337.1563,0,730,2058,2857,4205,851,-5.0,200,1,1,337.5056,1,2,14_03_2014 level23_spatial_F+V 09_25 Block4-45.txt,37,37,1203,62.0,-5.0,2014-03-14,False,separated,left
38,344.0481,0,730,2058,2857,4205,701,-5.0,200,1,1,344.1829,1,1,14_03_2014 level23_spatial_F+V 09_25 Block4-45.txt,37,37,1203,62.0,-5.0,2014-03-14,False,colocated,right
39,349.5857,0,730,2058,2857,4205,601,-5.0,200,1,1,350.0185,1,2,14_03_2014 level23_spatial_F+V 09_25 Block4-45.txt,37,37,1203,62.0,-5.0,2014-03-14,False,separated,left
40,356.7957,0,730,2058,2857,4205,1001,-5.0,200,1,0,357.3827,0,4,14_03_2014 level23_spatial_F+V 09_25 Block4-45.txt,37,37,1203,62.0,-5.0,2014-03-14,False,single_speaker,left
42,371.763,0,460,1105,2857,4205,701,-5.0,200,0,1,372.7732,0,0,14_03_2014 level23_spatial_F+V 09_25 Block4-45.txt,37,37,1203,62.0,-5.0,2014-03-14,False,colocated,left
44,387.2896,0,460,1105,2857,4205,851,-5.0,200,0,1,387.4571,0,0,14_03_2014 level23_spatial_F+V 09_25 Block4-45.txt,37,37,1203,62.0,-5.0,2014-03-14,False,colocated,left
46,405.4324,0,460,1105,2857,4205,951,-5.0,200,0,0,405.8644,1,3,14_03_2014 level23_spatial_F+V 09_25 Block4-45.txt,37,37,1203,62.0,-5.0,2014-03-14,False,separated,right
47,412.4261,0,730,2058,2857,4205,651,-5.0,200,1,1,413.0505,1,4,14_03_2014 level23_spatial_F+V 09_25 Block4-45.txt,37,37,1203,62.0,-5.0,2014-03-14,False,single_speaker,left
48,418.6252,0,730,2058,2857,4205,551,-5.0,200,1,1,419.2566,1,0,14_03_2014 level23_spatial_F+V 09_25 Block4-45.txt,37,37,1203,62.0,-5.0,2014-03-14,False,colocated,left
49,425.1093,0,730,2058,2857,4205,1001,-5.0,200,1,1,425.5682,1,5,14_03_2014 level23_spatial_F+V 09_25 Block4-45.txt,37,37,1203,62.0,-5.0,2014-03-14,False,single_speaker,right
50,433.1646,0,730,2058,2857,4205,601,-5.0,200,1,1,433.6844,1,1,14_03_2014 level23_spatial_F+V 09_25 Block4-45.txt,37,37,1203,62.0,-5.0,2014-03-14,False,colocated,right
51,444.9392,0,460,1105,2857,4205,501,-5.0,200,0,0,446.1556,1,3,14_03_2014 level23_spatial_F+V 09_25 Block4-45.txt,37,37,1203,62.0,-5.0,2014-03-14,False,separated,right
52,454.778,0,460,1105,2857,4205,901,-5.0,200,0,0,455.7975,1,3,14_03_2014 level23_spatial_F+V 09_25 Block4-45.txt,37,37,1203,62.0,-5.0,2014-03-14,False,separated,right
53,463.2655,0,730,2058,2857,4205,801,-5.0,200,1,1,463.7997,1,4,14_03_2014 level23_spatial_F+V 09_25 Block4-45.txt,37,37,1203,62.0,-5.0,2014-03-14,False,single_speaker,left
54,468.3363,0,730,2058,2857,4205,1001,-5.0,200,1,1,468.4549,1,0,14_03_2014 level23_spatial_F+V 09_25 Block4-45.txt,37,37,1203,62.0,-5.0,2014-03-14,False,colocated,left
55,474.4762,0,460,1105,2857,4205,651,-5.0,200,0,1,475.3795,0,3,14_03_2014 level23_spatial_F+V 09_25 Block4-45.txt,37,37,1203,62.0,-5.0,2014-03-14,False,separated,right
57,491.0292,0,460,1105,2857,4205,551,-5.0,200,0,1,494.7782,0,2,14_03_2014 level23_spatial_F+V 09_25 Block4-45.txt,37,37,1203,62.0,-5.0,2014-03-14,False,separated,left
59,509.9502,0,460,1105,2857,4205,751,-5.0,200,0,1,514.8964,0,1,14_03_2014 level23_spatial_F+V 09_25 Block4-45.txt,37,37,1203,62.0,-5.0,2014-03-14,False,colocated,right
61,531.7852,1,460,1105,2857,4205,701,-5.0,200,0,0,533.5199,1,1,14_03_2014 level23_spatial_F+V 09_25 Block4-45.txt,37,37,1203,62.0,-5.0,2014-03-14,False,colocated,right
62,542.208,0,730,2058,2857,4205,901,-5.0,200,1,1,545.128,1,2,14_03_2014 level23_spatial_F+V 09_25 Block4-45.txt,37,37,1203,62.0,-5.0,2014-03-14,False,separated,left
63,549.4753,0,460,1105,2857,4205,951,-5.0,200,0,1,549.7842,0,2,14_03_2014 level23_spatial_F+V 09_25 Block4-45.txt,37,37,1203,62.0,-5.0,2014-03-14,False,separated,left
65,563.2392,0,460,1105,2857,4205,501,-5.0,200,0,0,567.5272,1,2,14_03_2014 level23_spatial_F+V 09_25 Block4-45.txt,37,37,1203,62.0,-5.0,2014-03-14,False,separated,left
66,575.1317,0,730,2058,2857,4205,601,-5.0,200,1,1,575.8694,1,3,14_03_2014 level23_spatial_F+V 09_25 Block4-45.txt,37,37,1203,62.0,-5.0,2014-03-14,False,separated,right
67,581.4317,0,730,2058,2857,4205,851,-5.0,200,1,1,581.8542,1,1,14_03_2014 level23_spatial_F+V 09_25 Block4-45.txt,37,37,1203,62.0,-5.0,2014-03-14,False,colocated,right
68,596.2077,0,730,2058,2857,4205,851,-5.0,200,1,0,598.0787,0,2,14_03_2014 level23_spatial_F+V 09_25 Block4-45.txt,37,37,1203,62.0,-5.0,2014-03-14,False,separated,left
70,610.5899,0,460,1105,2857,4205,1001,-5.0,200,0,0,610.9356,1,0,14_03_2014 level23_spatial_F+V 09_25 Block4-45.txt,37,37,1203,62.0,-5.0,2014-03-14,False,colocated,left
71,618.0934,0,460,1105,2857,4205,701,-5.0,200,0,0,619.1388,1,5,14_03_2014 level23_spatial_F+V 09_25 Block4-45.txt,37,37,1203,62.0,-5.0,2014-03-14,False,single_speaker,right
72,624.7918,1,460,1105,2857,4205,751,-5.0,200,0,0,626.2514,1,0,14_03_2014 level23_spatial_F+V 09_25 Block4-45.txt,37,37,1203,62.0,-5.0,2014-03-14,False,colocated,left
73,634.096,0,460,1105,2857,4205,651,-5.0,200,0,1,638.7134,0,1,14_03_2014 level23_spatial_F+V 09_25 Block4-45.txt,37,37,1203,62.0,-5.0,2014-03-14,False,colocated,right
75,654.2841,0,730,2058,2857,4205,601,-5.0,200,1,1,654.9525,1,5,14_03_2014 level23_spatial_F+V 09_25 Block4-45.txt,37,37,1203,62.0,-5.0,2014-03-14,False,single_speaker,right
76,668.363,0,730,2058,2857,4205,901,-5.0,200,1,0,669.5635,0,0,14_03_2014 level23_spatial_F+V 09_25 Block4-45.txt,37,37,1203,62.0,-5.0,2014-03-14,False,colocated,left
78,680.7534,0,730,2058,2857,4205,801,-5.0,200,1,1,681.0637,1,3,14_03_2014 level23_spatial_F+V 09_25 Block4-45.txt,37,37,1203,62.0,-5.0,2014-03-14,False,separated,right
79,686.3275,0,730,2058,2857,4205,501,-5.0,200,1,1,687.2846,1,5,14_03_2014 level23_spatial_F+V 09_25 Block4-45.txt,37,37,1203,62.0,-5.0,2014-03-14,False,single_speaker,right
80,691.8126,0,730,2058,2857,4205,551,-5.0,200,1,1,692.3457,1,2,14_03_2014 level23_spatial_F+V 09_25 Block4-45.txt,37,37,1203,62.0,-5.0,2014-03-14,False,separated,left
81,697.7217,0,460,1105,2857,4205,801,-5.0,200,0,0,699.0108,1,5,14_03_2014 level23_spatial_F+V 09_25 Block4-45.txt,37,37,1203,62.0,-5.0,2014-03-14,False,single_speaker,right
82,705.6005,0,460,1105,2857,4205,951,-5.0,200,0,1,706.2391,0,4,14_03_2014 level23_spatial_F+V 09_25 Block4-45.txt,37,37,1203,62.0,-5.0,2014-03-14,False,single_speaker,left
84,722.3467,0,730,2058,2857,4205,601,-5.0,200,1,1,723.0024,1,1,14_03_2014 level23_spatial_F+V 09_25 Block4-45.txt,37,37,1203,62.0,-5.0,2014-03-14,False,colocated,right
85,727.4613,0,730,2058,2857,4205,901,-5.0,200,1,1,728.0019,1,3,14_03_2014 level23_spatial_F+V 09_25 Block4-45.txt,37,37,1203,62.0,-5.0,2014-03-14,False,separated,right
86,732.6569,0,730,2058,2857,4205,701,-5.0,200,1,1,733.3275,1,5,14_03_2014 level23_spatial_F+V 09_25 Block4-45.txt,37,37,1203,62.0,-5.0,2014-03-14,False,single_speaker,right
87,737.3397,0,460,1105,2857,4205,551,-5.0,200,0,0,739.1914,1,0,14_03_2014 level23_spatial_F+V 09_25 Block4-45.txt,37,37,1203,62.0,-5.0,2014-03-14,False,colocated,left
88,747.6598,0,460,1105,2857,4205,851,-5.0,200,0,1,748.2665,0,4,14_03_2014 level23_spatial_F+V 09_25 Block4-45.txt,37,37,1203,62.0,-5.0,2014-03-14,False,single_speaker,left
90,766.1638,0,460,1105,2857,4205,1001,-5.0,200,0,1,766.5453,0,4,14_03_2014 level23_spatial_F+V 09_25 Block4-45.txt,37,37,1203,62.0,-5.0,2014-03-14,False,single_speaker,left
92,782.9256,0,460,1105,2857,4205,651,-5.0,200,0,0,784.8696,1,5,14_03_2014 level23_spatial_F+V 09_25 Block4-45.txt,37,37,1203,62.0,-5.0,2014-03-14,False,single_speaker,right
93,792.6688,0,730,2058,2857,4205,751,-5.0,200,1,1,793.245,1,0,14_03_2014 level23_spatial_F+V 09_25 Block4-45.txt,37,37,1203,62.0,-5.0,2014-03-14,False,colocated,left
94,797.5185,0,730,2058,2857,4205,851,-5.0,200,1,1,797.7081,1,4,14_03_2014 level23_spatial_F+V 09_25 Block4-45.txt,37,37,1203,62.0,-5.0,2014-03-14,False,single_speaker,left
95,802.6754,0,730,2058,2857,4205,701,-5.0,200,1,1,803.1128,1,4,14_03_2014 level23_spatial_F+V 09_25 Block4-45.txt,37,37,1203,62.0,-5.0,2014-03-14,False,single_speaker,left
96,807.5254,0,460,1105,2857,4205,501,-5.0,200,0,0,809.3939,1,5,14_03_2014 level23_spatial_F+V 09_25 Block4-45.txt,37,37,1203,62.0,-5.0,2014-03-14,False,single_speaker,right
97,818.2745,0,730,2058,2857,4205,601,-5.0,200,1,1,818.8998,1,0,14_03_2014 level23_spatial_F+V 09_25 Block4-45.txt,37,37,1203,62.0,-5.0,2014-03-14,False,colocated,left
98,823.9342,0,460,1105,2857,4205,801,-5.0,200,0,1,824.3827,0,2,14_03_2014 level23_spatial_F+V 09_25 Block4-45.txt,37,37,1203,62.0,-5.0,2014-03-14,False,separated,left
100,838.5774,0,460,1105,2857,4205,751,-5.0,200,0,0,839.5605,1,1,14_03_2014 level23_spatial_F+V 09_25 Block4-45.txt,37,37,1203,62.0,-5.0,2014-03-14,False,colocated,right
101,847.1521,0,730,2058,2857,4205,651,-5.0,200,1,1,847.9056,1,1,14_03_2014 level23_spatial_F+V 09_25 Block4-45.txt,37,37,1203,62.0,-5.0,2014-03-14,False,colocated,right
102,852.1931,0,730,2058,2857,4205,551,-5.0,200,1,1,852.6043,1,0,14_03_2014 level23_spatial_F+V 09_25 Block4-45.txt,37,37,1203,62.0,-5.0,2014-03-14,False,colocated,left
103,857.8019,0,460,1105,2857,4205,901,-5.0,200,0,1,858.2673,0,3,14_03_2014 level23_spatial_F+V 09_25 Block4-45.txt,37,37,1203,62.0,-5.0,2014-03-14,False,separated,right
105,871.6723,0,730,2058,2857,4205,951,-5.0,200,1,1,871.881,1,0,14_03_2014 level23_spatial_F+V 09_25 Block4-45.txt,37,37,1203,62.0,-5.0,2014-03-14,False,colocated,left
106,877.0024,0,460,1105,2857,4205,751,-5.0,200,0,1,877.446,0,1,14_03_2014 level23_spatial_F+V 09_25 Block4-45.txt,37,37,1203,62.0,-5.0,2014-03-14,False,colocated,right
108,895.4686,0,730,2058,2857,4205,701,-5.0,200,1,1,895.8236,1,3,14_03_2014 level23_spatial_F+V 09_25 Block4-45.txt,37,37,1203,62.0,-5.0,2014-03-14,False,separated,right
109,900.5788,0,730,2058,2857,4205,801,-5.0,200,1,1,901.224,1,5,14_03_2014 level23_spatial_F+V 09_25 Block4-45.txt,37,37,1203,62.0,-5.0,2014-03-14,False,single_speaker,right
110,904.5085,0,460,1105,2857,4205,501,-5.0,200,0,1,904.8161,0,3,14_03_2014 level23_spatial_F+V 09_25 Block4-45.txt,37,37,1203,62.0,-5.0,2014-03-14,False,separated,right
112,921.0334,0,460,1105,2857,4205,551,-5.0,200,0,1,921.3976,0,0,14_03_2014 level23_spatial_F+V 09_25 Block4-45.txt,37,37,1203,62.0,-5.0,2014-03-14,False,colocated,left
114,940.7658,0,460,1105,2857,4205,601,-5.0,200,0,1,942.0313,0,2,14_03_2014 level23_spatial_F+V 09_25 Block4-45.txt,37,37,1203,62.0,-5.0,2014-03-14,False,separated,left
116,958.1922,0,460,1105,2857,4205,651,-5.0,200,0,1,959.181,0,0,14_03_2014 level23_spatial_F+V 09_25 Block4-45.txt,37,37,1203,62.0,-5.0,2014-03-14,False,colocated,left
119,990.2898,0,460,1105,2857,4205,851,-5.0,200,0,1,993.6304,0,4,14_03_2014 level23_spatial_F+V 09_25 Block4-45.txt,37,37,1203,62.0,-5.0,2014-03-14,False,single_speaker,left
121,1013.6104,0,730,2058,2857,4205,1001,-5.0,200,1,1,1014.3801,1,4,14_03_2014 level23_spatial_F+V 09_25 Block4-45.txt,37,37,1203,62.0,-5.0,2014-03-14,False,single_speaker,left
122,1018.2844,1,460,1105,2857,4205,901,-5.0,200,0,1,1018.6658,0,3,14_03_2014 level23_spatial_F+V 09_25 Block4-45.txt,37,37,1203,62.0,-5.0,2014-03-14,False,separated,right
124,1036.6076,0,460,1105,2857,4205,601,-5.0,200,0,1,1037.4901,0,2,14_03_2014 level23_spatial_F+V 09_25 Block4-45.txt,37,37,1203,62.0,-5.0,2014-03-14,False,separated,left
126,1051.757,0,730,2058,2857,4205,751,-5.0,200,1,0,1053.7986,0,3,14_03_2014 level23_spatial_F+V 09_25 Block4-45.txt,37,37,1203,62.0,-5.0,2014-03-14,False,separated,right
128,1068.248,1,730,2058,2857,4205,1001,-5.0,200,1,1,1068.5617,1,2,14_03_2014 level23_spatial_F+V 09_25 Block4-45.txt,37,37,1203,62.0,-5.0,2014-03-14,False,separated,left
129,1073.8027,0,460,1105,2857,4205,901,-5.0,200,0,1,1078.1274,0,0,14_03_2014 level23_spatial_F+V 09_25 Block4-45.txt,37,37,1203,62.0,-5.0,2014-03-14,False,colocated,left
131,1096.3234,0,730,2058,2857,4205,801,-5.0,200,1,1,1096.573,1,1,14_03_2014 level23_spatial_F+V 09_25 Block4-45.txt,37,37,1203,62.0,-5.0,2014-03-14,False,colocated,right
132,1101.8489,0,730,2058,2857,4205,701,-5.0,200,1,1,1102.6658,1,4,14_03_2014 level23_spatial_F+V 09_25 Block4-45.txt,37,37,1203,62.0,-5.0,2014-03-14,False,single_speaker,left
133,1107.5269,0,460,1105,2857,4205,951,-5.0,200,0,1,1108.3259,0,5,14_03_2014 level23_spatial_F+V 09_25 Block4-45.txt,37,37,1203,62.0,-5.0,2014-03-14,False,single_speaker,right
135,1125.611,0,460,1105,2857,4205,851,-5.0,200,0,0,1126.5006,1,1,14_03_2014 level23_spatial_F+V 09_25 Block4-45.txt,37,37,1203,62.0,-5.0,2014-03-14,False,colocated,right
136,1133.2402,0,730,2058,2857,4205,651,-5.0,200,1,1,1133.9292,1,4,14_03_2014 level23_spatial_F+V 09_25 Block4-45.txt,37,37,1203,62.0,-5.0,2014-03-14,False,single_speaker,left
137,1137.7724,0,730,2058,2857,4205,551,-5.0,200,1,1,1138.1606,1,1,14_03_2014 level23_spatial_F+V 09_25 Block4-45.txt,37,37,1203,62.0,-5.0,2014-03-14,False,colocated,right
138,1143.8994,0,460,1105,2857,4205,851,-5.0,200,0,0,1145.9551,1,4,14_03_2014 level23_spatial_F+V 09_25 Block4-45.txt,37,37,1203,62.0,-5.0,2014-03-14,False,single_speaker,left
139,1153.8175,1,730,2058,2857,4205,651,-5.0,200,1,1,1154.2385,1,2,14_03_2014 level23_spatial_F+V 09_25 Block4-45.txt,37,37,1203,62.0,-5.0,2014-03-14,False,separated,left
140,1159.5495,0,460,1105,2857,4205,751,-5.0,200,0,0,1165.5972,1,4,14_03_2014 level23_spatial_F+V 09_25 Block4-45.txt,37,37,1203,62.0,-5.0,2014-03-14,False,single_speaker,left
141,1173.5043,0,730,2058,2857,4205,1001,-5.0,200,1,1,1173.873,1,2,14_03_2014 level23_spatial_F+V 09_25 Block4-45.txt,37,37,1203,62.0,-5.0,2014-03-14,False,separated,left
142,1177.6845,0,730,2058,2857,4205,601,-5.0,200,1,1,1178.2138,1,5,14_03_2014 level23_spatial_F+V 09_25 Block4-45.txt,37,37,1203,62.0,-5.0,2014-03-14,False,single_speaker,right
143,1183.5635,0,730,2058,2857,4205,901,-5.0,200,1,1,1183.9757,1,3,14_03_2014 level23_spatial_F+V 09_25 Block4-45.txt,37,37,1203,62.0,-5.0,2014-03-14,False,separated,right
144,1189.1715,0,730,2058,2857,4205,951,-5.0,200,1,1,1189.7738,1,5,14_03_2014 level23_spatial_F+V 09_25 Block4-45.txt,37,37,1203,62.0,-5.0,2014-03-14,False,single_speaker,right
145,1198.6412,0,460,1105,2857,4205,501,-5.0,200,0,0,1199.7798,1,5,14_03_2014 level23_spatial_F+V 09_25 Block4-45.txt,37,37,1203,62.0,-5.0,2014-03-14,False,single_speaker,right
146,1205.6057,0,460,1105,2857,4205,701,-5.0,200,0,0,1208.593,1,1,14_03_2014 level23_spatial_F+V 09_25 Block4-45.txt,37,37,1203,62.0,-5.0,2014-03-14,False,colocated,right
147,1216.1189,0,460,1105,2857,4205,551,-5.0,200,0,0,1218.27,1,5,14_03_2014 level23_spatial_F+V 09_25 Block4-45.txt,37,37,1203,62.0,-5.0,2014-03-14,False,single_speaker,right
148,1223.6912,0,460,1105,2857,4205,1001,-5.0,200,0,0,1225.1694,1,4,14_03_2014 level23_spatial_F+V 09_25 Block4-45.txt,37,37,1203,62.0,-5.0,2014-03-14,False,single_speaker,left
149,1232.5238,0,730,2058,2857,4205,801,-5.0,200,1,1,1232.7635,1,1,14_03_2014 level23_spatial_F+V 09_25 Block4-45.txt,37,37,1203,62.0,-5.0,2014-03-14,False,colocated,right
150,1238.2336,0,460,1105,2857,4205,601,-5.0,200,0,1,1238.9519,0,0,14_03_2014 level23_spatial_F+V 09_25 Block4-45.txt,37,37,1203,62.0,-5.0,2014-03-14,False,colocated,left
152,1256.0673,0,730,2058,2857,4205,701,-5.0,200,1,1,1256.4002,1,3,14_03_2014 level23_spatial_F+V 09_25 Block4-45.txt,37,37,1203,62.0,-5.0,2014-03-14,False,separated,right
153,1260.4874,0,460,1105,2857,4205,651,-5.0,200,0,0,1262.4744,1,5,14_03_2014 level23_spatial_F+V 09_25 Block4-45.txt,37,37,1203,62.0,-5.0,2014-03-14,False,single_speaker,right
154,1268.9208,0,460,1105,2857,4205,551,-5.0,200,0,0,1270.9175,1,4,14_03_2014 level23_spatial_F+V 09_25 Block4-45.txt,37,37,1203,62.0,-5.0,2014-03-14,False,single_speaker,left
155,1277.326,0,730,2058,2857,4205,851,-5.0,200,1,1,1277.6046,1,3,14_03_2014 level23_spatial_F+V 09_25 Block4-45.txt,37,37,1203,62.0,-5.0,2014-03-14,False,separated,right
156,1281.936,0,460,1105,2857,4205,751,-5.0,200,0,1,1282.3401,0,1,14_03_2014 level23_spatial_F+V 09_25 Block4-45.txt,37,37,1203,62.0,-5.0,2014-03-14,False,colocated,right
158,1298.0378,0,730,2058,2857,4205,501,-5.0,200,1,1,1298.7421,1,4,14_03_2014 level23_spatial_F+V 09_25 Block4-45.txt,37,37,1203,62.0,-5.0,2014-03-14,False,single_speaker,left
159,1308.8639,0,730,2058,2857,4205,951,-5.0,200,1,0,1309.9267,0,3,14_03_2014 level23_spatial_F+V 09_25 Block4-45.txt,37,37,1203,62.0,-5.0,2014-03-14,False,separated,right
161,1324.2309,0,460,1105,2857,4205,501,-5.0,200,0,1,1324.9071,0,3,14_03_2014 level23_spatial_F+V 09_25 Block4-45.txt,37,37,1203,62.0,-5.0,2014-03-14,False,separated,right
163,1340.6926,0,730,2058,2857,4205,851,-5.0,200,1,1,1341.0197,1,0,14_03_2014 level23_spatial_F+V 09_25 Block4-45.txt,37,37,1203,62.0,-5.0,2014-03-14,False,colocated,left
164,1345.683,0,460,1105,2857,4205,951,-5.0,200,0,1,1346.0534,0,2,14_03_2014 level23_spatial_F+V 09_25 Block4-45.txt,37,37,1203,62.0,-5.0,2014-03-14,False,separated,left
166,1368.1362,0,460,1105,2857,4205,651,-5.0,200,0,1,1368.3453,0,0,14_03_2014 level23_spatial_F+V 09_25 Block4-45.txt,37,37,1203,62.0,-5.0,2014-03-14,False,colocated,left
1,6.8804,0,460,1105,2857,4205,601,10.0,200,0,0,7.3334,1,2,01_05_2015 level23_spatial_F+V 11_01 Block10-20.txt,37,37,1203,47.0,-20.0,2015-05-01,False,separated,left
2,12.3204,0,730,2058,2857,4205,901,10.0,200,1,0,12.8265,0,1,01_05_2015 level23_spatial_F+V 11_01 Block10-20.txt,37,37,1203,47.0,-20.0,2015-05-01,False,colocated,right
4,32.7466,0,730,2058,2857,4205,801,10.0,200,1,1,33.4086,1,4,01_05_2015 level23_spatial_F+V 11_01 Block10-20.txt,37,37,1203,47.0,-20.0,2015-05-01,False,single_speaker,left
5,45.3712,0,460,1105,2857,4205,551,10.0,200,0,0,46.0171,1,4,01_05_2015 level23_spatial_F+V 11_01 Block10-20.txt,37,37,1203,47.0,-20.0,2015-05-01,False,single_speaker,left
6,60.2444,0,460,1105,2857,4205,951,10.0,200,0,0,60.4556,1,4,01_05_2015 level23_spatial_F+V 11_01 Block10-20.txt,37,37,1203,47.0,-20.0,2015-05-01,False,single_speaker,left
7,73.9089,0,460,1105,2857,4205,851,10.0,200,0,1,74.6716,0,0,01_05_2015 level23_spatial_F+V 11_01 Block10-20.txt,37,37,1203,47.0,-20.0,2015-05-01,False,colocated,left
10,97.2849,0,460,1105,2857,4205,751,10.0,200,0,0,97.8039,1,1,01_05_2015 level23_spatial_F+V 11_01 Block10-20.txt,37,37,1203,47.0,-20.0,2015-05-01,False,colocated,right
11,102.7302,0,460,1105,2857,4205,701,10.0,200,0,0,103.1095,1,1,01_05_2015 level23_spatial_F+V 11_01 Block10-20.txt,37,37,1203,47.0,-20.0,2015-05-01,False,colocated,right
12,119.3626,0,730,2058,2857,4205,1001,10.0,200,1,0,119.822,0,2,01_05_2015 level23_spatial_F+V 11_01 Block10-20.txt,37,37,1203,47.0,-20.0,2015-05-01,False,separated,left
14,139.1807,0,730,2058,2857,4205,651,10.0,200,1,1,139.8871,1,0,01_05_2015 level23_spatial_F+V 11_01 Block10-20.txt,37,37,1203,47.0,-20.0,2015-05-01,False,colocated,left
15,165.3326,0,460,1105,2857,4205,901,10.0,200,0,0,165.7753,1,5,01_05_2015 level23_spatial_F+V 11_01 Block10-20.txt,37,37,1203,47.0,-20.0,2015-05-01,False,single_speaker,right
16,170.898,0,730,2058,2857,4205,1001,10.0,200,1,1,172.5354,1,0,01_05_2015 level23_spatial_F+V 11_01 Block10-20.txt,37,37,1203,47.0,-20.0,2015-05-01,False,colocated,left
17,181.5629,0,730,2058,2857,4205,551,10.0,200,1,0,182.0418,0,3,01_05_2015 level23_spatial_F+V 11_01 Block10-20.txt,37,37,1203,47.0,-20.0,2015-05-01,False,separated,right
19,204.5113,0,730,2058,2857,4205,951,10.0,200,1,1,205.0777,1,0,01_05_2015 level23_spatial_F+V 11_01 Block10-20.txt,37,37,1203,47.0,-20.0,2015-05-01,False,colocated,left
20,213.7423,0,460,1105,2857,4205,501,10.0,200,0,0,214.5277,1,3,01_05_2015 level23_spatial_F+V 11_01 Block10-20.txt,37,37,1203,47.0,-20.0,2015-05-01,False,separated,right
21,224.5985,0,460,1105,2857,4205,851,10.0,200,0,0,224.8888,1,1,01_05_2015 level23_spatial_F+V 11_01 Block10-20.txt,37,37,1203,47.0,-20.0,2015-05-01,False,colocated,right
22,233.0023,0,460,1105,2857,4205,651,10.0,200,0,0,233.5596,1,5,01_05_2015 level23_spatial_F+V 11_01 Block10-20.txt,37,37,1203,47.0,-20.0,2015-05-01,False,single_speaker,right
23,239.0997,0,460,1105,2857,4205,701,10.0,200,0,0,239.5014,1,4,01_05_2015 level23_spatial_F+V 11_01 Block10-20.txt,37,37,1203,47.0,-20.0,2015-05-01,False,single_speaker,left
24,244.8163,0,460,1105,2857,4205,801,10.0,200,0,0,245.1984,1,2,01_05_2015 level23_spatial_F+V 11_01 Block10-20.txt,37,37,1203,47.0,-20.0,2015-05-01,False,separated,left
25,250.2454,0,730,2058,2857,4205,601,10.0,200,1,0,250.6859,0,5,01_05_2015 level23_spatial_F+V 11_01 Block10-20.txt,37,37,1203,47.0,-20.0,2015-05-01,False,single_speaker,right
27,273.9807,0,730,2058,2857,4205,701,10.0,200,1,1,274.7181,1,2,01_05_2015 level23_spatial_F+V 11_01 Block10-20.txt,37,37,1203,47.0,-20.0,2015-05-01,False,separated,left
28,284.3191,0,730,2058,2857,4205,501,10.0,200,1,1,285.1937,1,5,01_05_2015 level23_spatial_F+V 11_01 Block10-20.txt,37,37,1203,47.0,-20.0,2015-05-01,False,single_speaker,right
29,302.6086,0,460,1105,2857,4205,751,10.0,200,0,0,303.0347,1,5,01_05_2015 level23_spatial_F+V 11_01 Block10-20.txt,37,37,1203,47.0,-20.0,2015-05-01,False,single_speaker,right
30,316.2568,0,730,2058,2857,4205,1001,10.0,200,1,0,316.8393,0,5,01_05_2015 level23_spatial_F+V 11_01 Block10-20.txt,37,37,1203,47.0,-20.0,2015-05-01,False,single_speaker,right
32,336.5567,0,730,2058,2857,4205,951,10.0,200,1,1,337.8234,1,3,01_05_2015 level23_spatial_F+V 11_01 Block10-20.txt,37,37,1203,47.0,-20.0,2015-05-01,False,separated,right
33,348.7841,0,730,2058,2857,4205,601,10.0,200,1,1,349.7336,1,1,01_05_2015 level23_spatial_F+V 11_01 Block10-20.txt,37,37,1203,47.0,-20.0,2015-05-01,False,colocated,right
34,368.431,0,460,1105,2857,4205,801,10.0,200,0,0,368.8424,1,2,01_05_2015 level23_spatial_F+V 11_01 Block10-20.txt,37,37,1203,47.0,-20.0,2015-05-01,False,separated,left
35,373.9958,0,730,2058,2857,4205,851,10.0,200,1,0,374.454,0,2,01_05_2015 level23_spatial_F+V 11_01 Block10-20.txt,37,37,1203,47.0,-20.0,2015-05-01,False,separated,left
37,406.7414,0,460,1105,2857,4205,901,10.0,200,0,0,407.151,1,3,01_05_2015 level23_spatial_F+V 11_01 Block10-20.txt,37,37,1203,47.0,-20.0,2015-05-01,False,separated,right
38,412.5396,0,460,1105,2857,4205,551,10.0,200,0,0,412.9685,1,0,01_05_2015 level23_spatial_F+V 11_01 Block10-20.txt,37,37,1203,47.0,-20.0,2015-05-01,False,colocated,left
39,421.1244,0,730,2058,2857,4205,851,10.0,200,1,0,421.5603,0,4,01_05_2015 level23_spatial_F+V 11_01 Block10-20.txt,37,37,1203,47.0,-20.0,2015-05-01,False,single_speaker,left
41,444.6735,0,460,1105,2857,4205,551,10.0,200,0,0,445.3336,1,0,01_05_2015 level23_spatial_F+V 11_01 Block10-20.txt,37,37,1203,47.0,-20.0,2015-05-01,False,colocated,left
42,458.3522,0,730,2058,2857,4205,901,10.0,200,1,0,458.9886,0,1,01_05_2015 level23_spatial_F+V 11_01 Block10-20.txt,37,37,1203,47.0,-20.0,2015-05-01,False,colocated,right
44,484.768,0,730,2058,2857,4205,801,10.0,200,1,0,485.2663,0,3,01_05_2015 level23_spatial_F+V 11_01 Block10-20.txt,37,37,1203,47.0,-20.0,2015-05-01,False,separated,right
46,517.6148,0,730,2058,2857,4205,1001,10.0,200,1,1,518.2718,1,4,01_05_2015 level23_spatial_F+V 11_01 Block10-20.txt,37,37,1203,47.0,-20.0,2015-05-01,False,single_speaker,left
47,533.0115,1,460,1105,2857,4205,701,10.0,200,0,0,533.4715,1,3,01_05_2015 level23_spatial_F+V 11_01 Block10-20.txt,37,37,1203,47.0,-20.0,2015-05-01,False,separated,right
48,553.5298,0,460,1105,2857,4205,951,10.0,200,0,0,554.7782,1,1,01_05_2015 level23_spatial_F+V 11_01 Block10-20.txt,37,37,1203,47.0,-20.0,2015-05-01,False,colocated,right
49,560.6519,0,460,1105,2857,4205,751,10.0,200,0,0,561.3102,1,5,01_05_2015 level23_spatial_F+V 11_01 Block10-20.txt,37,37,1203,47.0,-20.0,2015-05-01,False,single_speaker,right
50,566.2034,0,730,2058,2857,4205,651,10.0,200,1,0,567.0176,0,1,01_05_2015 level23_spatial_F+V 11_01 Block10-20.txt,37,37,1203,47.0,-20.0,2015-05-01,False,colocated,right
52,585.2346,0,730,2058,2857,4205,501,10.0,200,1,0,586.332,0,4,01_05_2015 level23_spatial_F+V 11_01 Block10-20.txt,37,37,1203,47.0,-20.0,2015-05-01,False,single_speaker,left
54,613.1177,0,730,2058,2857,4205,801,10.0,200,1,0,613.5392,0,3,01_05_2015 level23_spatial_F+V 11_01 Block10-20.txt,37,37,1203,47.0,-20.0,2015-05-01,False,separated,right
56,634.7728,0,730,2058,2857,4205,501,10.0,200,1,0,635.583,0,3,01_05_2015 level23_spatial_F+V 11_01 Block10-20.txt,37,37,1203,47.0,-20.0,2015-05-01,False,separated,right
59,668.0034,0,460,1105,2857,4205,851,10.0,200,0,0,668.3758,1,3,01_05_2015 level23_spatial_F+V 11_01 Block10-20.txt,37,37,1203,47.0,-20.0,2015-05-01,False,separated,right
60,676.07,0,730,2058,2857,4205,751,10.0,200,1,0,676.4459,0,3,01_05_2015 level23_spatial_F+V 11_01 Block10-20.txt,37,37,1203,47.0,-20.0,2015-05-01,False,separated,right
63,719.7779,0,460,1105,2857,4205,1001,10.0,200,0,0,720.1771,1,3,01_05_2015 level23_spatial_F+V 11_01 Block10-20.txt,37,37,1203,47.0,-20.0,2015-05-01,False,separated,right
64,725.6204,0,460,1105,2857,4205,601,10.0,200,0,0,726.3308,1,1,01_05_2015 level23_spatial_F+V 11_01 Block10-20.txt,37,37,1203,47.0,-20.0,2015-05-01,False,colocated,right
65,732.4304,0,460,1105,2857,4205,701,10.0,200,0,0,732.9756,1,2,01_05_2015 level23_spatial_F+V 11_01 Block10-20.txt,37,37,1203,47.0,-20.0,2015-05-01,False,separated,left
66,739.463,0,730,2058,2857,4205,651,10.0,200,1,0,740.1294,0,2,01_05_2015 level23_spatial_F+V 11_01 Block10-20.txt,37,37,1203,47.0,-20.0,2015-05-01,False,separated,left
68,772.6489,0,460,1105,2857,4205,951,10.0,200,0,0,772.8962,1,5,01_05_2015 level23_spatial_F+V 11_01 Block10-20.txt,37,37,1203,47.0,-20.0,2015-05-01,False,single_speaker,right
69,778.5692,0,460,1105,2857,4205,551,10.0,200,0,0,779.384,1,1,01_05_2015 level23_spatial_F+V 11_01 Block10-20.txt,37,37,1203,47.0,-20.0,2015-05-01,False,colocated,right
70,784.9284,0,730,2058,2857,4205,801,10.0,200,1,0,785.4362,0,2,01_05_2015 level23_spatial_F+V 11_01 Block10-20.txt,37,37,1203,47.0,-20.0,2015-05-01,False,separated,left
72,808.6974,0,460,1105,2857,4205,701,10.0,200,0,0,816.3144,1,5,01_05_2015 level23_spatial_F+V 11_01 Block10-20.txt,37,37,1203,47.0,-20.0,2015-05-01,False,single_speaker,right
73,821.5858,0,730,2058,2857,4205,501,10.0,200,1,0,822.2243,0,5,01_05_2015 level23_spatial_F+V 11_01 Block10-20.txt,37,37,1203,47.0,-20.0,2015-05-01,False,single_speaker,right
75,843.745,1,730,2058,2857,4205,551,10.0,200,1,1,855.1307,1,2,01_05_2015 level23_spatial_F+V 11_01 Block10-20.txt,37,37,1203,47.0,-20.0,2015-05-01,False,separated,left
76,864.6335,0,730,2058,2857,4205,601,10.0,200,1,0,865.5127,0,4,01_05_2015 level23_spatial_F+V 11_01 Block10-20.txt,37,37,1203,47.0,-20.0,2015-05-01,False,single_speaker,left
78,883.3998,0,730,2058,2857,4205,751,10.0,200,1,1,884.2992,1,0,01_05_2015 level23_spatial_F+V 11_01 Block10-20.txt,37,37,1203,47.0,-20.0,2015-05-01,False,colocated,left
79,909.8691,0,730,2058,2857,4205,1001,10.0,200,1,0,910.2547,0,1,01_05_2015 level23_spatial_F+V 11_01 Block10-20.txt,37,37,1203,47.0,-20.0,2015-05-01,False,colocated,right
81,941.106,0,460,1105,2857,4205,951,10.0,200,0,0,941.609,1,4,01_05_2015 level23_spatial_F+V 11_01 Block10-20.txt,37,37,1203,47.0,-20.0,2015-05-01,False,single_speaker,left
82,947.1246,0,730,2058,2857,4205,901,10.0,200,1,0,947.5845,0,0,01_05_2015 level23_spatial_F+V 11_01 Block10-20.txt,37,37,1203,47.0,-20.0,2015-05-01,False,colocated,left
86,1194.8149,0,730,2058,2857,4205,851,10.0,200,1,1,1195.7272,1,5,01_05_2015 level23_spatial_F+V 11_01 Block10-20.txt,37,37,1203,47.0,-20.0,2015-05-01,False,single_speaker,right
87,1213.9455,0,460,1105,2857,4205,651,10.0,200,0,1,1215.6459,0,2,01_05_2015 level23_spatial_F+V 11_01 Block10-20.txt,37,37,1203,47.0,-20.0,2015-05-01,False,separated,left
89,1244.9451,0,460,1105,2857,4205,551,10.0,200,0,0,1245.7274,1,2,01_05_2015 level23_spatial_F+V 11_01 Block10-20.txt,37,37,1203,47.0,-20.0,2015-05-01,False,separated,left
90,1250.9129,0,460,1105,2857,4205,501,10.0,200,0,0,1251.6082,1,0,01_05_2015 level23_spatial_F+V 11_01 Block10-20.txt,37,37,1203,47.0,-20.0,2015-05-01,False,colocated,left
91,1257.8632,0,460,1105,2857,4205,601,10.0,200,0,0,1258.5637,1,4,01_05_2015 level23_spatial_F+V 11_01 Block10-20.txt,37,37,1203,47.0,-20.0,2015-05-01,False,single_speaker,left
92,1273.9555,0,730,2058,2857,4205,1001,10.0,200,1,1,1274.6627,1,5,01_05_2015 level23_spatial_F+V 11_01 Block10-20.txt,37,37,1203,47.0,-20.0,2015-05-01,False,single_speaker,right
93,1287.9132,0,460,1105,2857,4205,951,10.0,200,0,0,1288.3203,1,3,01_05_2015 level23_spatial_F+V 11_01 Block10-20.txt,37,37,1203,47.0,-20.0,2015-05-01,False,separated,right
94,1293.742,0,730,2058,2857,4205,751,10.0,200,1,0,1294.3305,0,4,01_05_2015 level23_spatial_F+V 11_01 Block10-20.txt,37,37,1203,47.0,-20.0,2015-05-01,False,single_speaker,left
96,1319.4478,0,730,2058,2857,4205,851,10.0,200,1,1,1320.4819,1,0,01_05_2015 level23_spatial_F+V 11_01 Block10-20.txt,37,37,1203,47.0,-20.0,2015-05-01,False,colocated,left
97,1332.9623,0,460,1105,2857,4205,701,10.0,200,0,0,1333.379,1,4,01_05_2015 level23_spatial_F+V 11_01 Block10-20.txt,37,37,1203,47.0,-20.0,2015-05-01,False,single_speaker,left
98,1342.4962,0,460,1105,2857,4205,901,10.0,200,0,1,1343.2211,0,0,01_05_2015 level23_spatial_F+V 11_01 Block10-20.txt,37,37,1203,47.0,-20.0,2015-05-01,False,colocated,left
101,1366.2377,0,460,1105,2857,4205,901,10.0,200,0,0,1366.7289,1,0,01_05_2015 level23_spatial_F+V 11_01 Block10-20.txt,37,37,1203,47.0,-20.0,2015-05-01,False,colocated,left
102,1371.9835,0,730,2058,2857,4205,501,10.0,200,1,1,1374.1145,1,1,01_05_2015 level23_spatial_F+V 11_01 Block10-20.txt,37,37,1203,47.0,-20.0,2015-05-01,False,colocated,right
103,1383.7233,0,730,2058,2857,4205,551,10.0,200,1,1,1384.7862,1,2,01_05_2015 level23_spatial_F+V 11_01 Block10-20.txt,37,37,1203,47.0,-20.0,2015-05-01,False,separated,left
104,1408.4663,0,460,1105,2857,4205,1001,10.0,200,0,0,1408.791,1,1,01_05_2015 level23_spatial_F+V 11_01 Block10-20.txt,37,37,1203,47.0,-20.0,2015-05-01,False,colocated,right
105,1415.0982,0,730,2058,2857,4205,651,10.0,200,1,0,1415.8132,0,0,01_05_2015 level23_spatial_F+V 11_01 Block10-20.txt,37,37,1203,47.0,-20.0,2015-05-01,False,colocated,left
107,1435.3403,0,730,2058,2857,4205,601,10.0,200,1,0,1435.9493,0,1,01_05_2015 level23_spatial_F+V 11_01 Block10-20.txt,37,37,1203,47.0,-20.0,2015-05-01,False,colocated,right
109,1454.9271,0,460,1105,2857,4205,701,10.0,200,0,1,1461.7631,0,2,01_05_2015 level23_spatial_F+V 11_01 Block10-20.txt,37,37,1203,47.0,-20.0,2015-05-01,False,separated,left
111,1476.6652,0,730,2058,2857,4205,951,10.0,200,1,1,1480.421,1,4,01_05_2015 level23_spatial_F+V 11_01 Block10-20.txt,37,37,1203,47.0,-20.0,2015-05-01,False,single_speaker,left
112,1490.1461,0,730,2058,2857,4205,851,10.0,200,1,0,1491.6382,0,5,01_05_2015 level23_spatial_F+V 11_01 Block10-20.txt,37,37,1203,47.0,-20.0,2015-05-01,False,single_speaker,right
117,1541.6361,0,460,1105,2857,4205,801,10.0,200,0,0,1542.0508,1,3,01_05_2015 level23_spatial_F+V 11_01 Block10-20.txt,37,37,1203,47.0,-20.0,2015-05-01,False,separated,right
118,1547.0943,0,730,2058,2857,4205,751,10.0,200,1,1,1548.0468,1,4,01_05_2015 level23_spatial_F+V 11_01 Block10-20.txt,37,37,1203,47.0,-20.0,2015-05-01,False,single_speaker,left
119,1564.9104,0,730,2058,2857,4205,801,10.0,200,1,0,1565.2743,0,4,01_05_2015 level23_spatial_F+V 11_01 Block10-20.txt,37,37,1203,47.0,-20.0,2015-05-01,False,single_speaker,left
121,1611.2941,0,460,1105,2857,4205,901,10.0,200,0,0,1611.6277,1,2,01_05_2015 level23_spatial_F+V 11_01 Block10-20.txt,37,37,1203,47.0,-20.0,2015-05-01,False,separated,left
122,1616.7882,0,730,2058,2857,4205,601,10.0,200,1,0,1617.3913,0,5,01_05_2015 level23_spatial_F+V 11_01 Block10-20.txt,37,37,1203,47.0,-20.0,2015-05-01,False,single_speaker,right
1,7.7341,0,460,1105,2857,4205,801,10.0,200,0,0,8.0745,1,3,09_01_2015 level23_spatial_F+V 10_03 Block7-73.txt,37,37,1203,47.0,-20.0,2015-01-09,False,separated,right
2,28.0723,0,460,1105,2857,4205,851,10.0,200,0,0,28.4621,1,2,09_01_2015 level23_spatial_F+V 10_03 Block7-73.txt,37,37,1203,47.0,-20.0,2015-01-09,False,separated,left
3,39.4951,0,460,1105,2857,4205,1001,10.0,200,0,0,39.7324,1,2,09_01_2015 level23_spatial_F+V 10_03 Block7-73.txt,37,37,1203,47.0,-20.0,2015-01-09,False,separated,left
4,48.7931,0,460,1105,2857,4205,651,10.0,200,0,0,49.2657,1,1,09_01_2015 level23_spatial_F+V 10_03 Block7-73.txt,37,37,1203,47.0,-20.0,2015-01-09,False,colocated,right
5,54.1776,0,730,2058,2857,4205,701,10.0,200,1,0,54.659,0,5,09_01_2015 level23_spatial_F+V 10_03 Block7-73.txt,37,37,1203,47.0,-20.0,2015-01-09,False,single_speaker,right
7,71.4798,0,730,2058,2857,4205,551,10.0,200,1,0,72.0441,0,4,09_01_2015 level23_spatial_F+V 10_03 Block7-73.txt,37,37,1203,47.0,-20.0,2015-01-09,False,single_speaker,left
10,93.9509,0,730,2058,2857,4205,601,10.0,200,1,0,94.2777,0,3,09_01_2015 level23_spatial_F+V 10_03 Block7-73.txt,37,37,1203,47.0,-20.0,2015-01-09,False,separated,right
13,124.0893,0,730,2058,2857,4205,951,10.0,200,1,1,124.5801,1,2,09_01_2015 level23_spatial_F+V 10_03 Block7-73.txt,37,37,1203,47.0,-20.0,2015-01-09,False,separated,left
14,136.0263,0,460,1105,2857,4205,751,10.0,200,0,0,136.1783,1,3,09_01_2015 level23_spatial_F+V 10_03 Block7-73.txt,37,37,1203,47.0,-20.0,2015-01-09,False,separated,right
15,141.9148,1,460,1105,2857,4205,501,10.0,200,0,0,142.7528,1,5,09_01_2015 level23_spatial_F+V 10_03 Block7-73.txt,37,37,1203,47.0,-20.0,2015-01-09,False,single_speaker,right
16,148.5865,0,730,2058,2857,4205,751,10.0,200,1,0,148.8489,0,5,09_01_2015 level23_spatial_F+V 10_03 Block7-73.txt,37,37,1203,47.0,-20.0,2015-01-09,False,single_speaker,right
19,175.8208,0,730,2058,2857,4205,701,10.0,200,1,0,176.3152,0,1,09_01_2015 level23_spatial_F+V 10_03 Block7-73.txt,37,37,1203,47.0,-20.0,2015-01-09,False,colocated,right
21,197.8687,0,730,2058,2857,4205,801,10.0,200,1,0,198.4373,0,1,09_01_2015 level23_spatial_F+V 10_03 Block7-73.txt,37,37,1203,47.0,-20.0,2015-01-09,False,colocated,right
23,212.7077,0,730,2058,2857,4205,951,10.0,200,1,1,213.1313,1,2,09_01_2015 level23_spatial_F+V 10_03 Block7-73.txt,37,37,1203,47.0,-20.0,2015-01-09,False,separated,left
24,223.6724,1,730,2058,2857,4205,601,10.0,200,1,0,224.4148,0,0,09_01_2015 level23_spatial_F+V 10_03 Block7-73.txt,37,37,1203,47.0,-20.0,2015-01-09,False,colocated,left
26,259.0597,0,460,1105,2857,4205,1001,10.0,200,0,0,259.2916,1,0,09_01_2015 level23_spatial_F+V 10_03 Block7-73.txt,37,37,1203,47.0,-20.0,2015-01-09,False,colocated,left
27,265.2689,0,460,1105,2857,4205,851,10.0,200,0,0,265.821,1,4,09_01_2015 level23_spatial_F+V 10_03 Block7-73.txt,37,37,1203,47.0,-20.0,2015-01-09,False,single_speaker,left
28,270.6641,1,730,2058,2857,4205,651,10.0,200,1,0,275.6877,0,3,09_01_2015 level23_spatial_F+V 10_03 Block7-73.txt,37,37,1203,47.0,-20.0,2015-01-09,False,separated,right
30,291.5574,0,460,1105,2857,4205,501,10.0,200,0,0,292.0779,1,1,09_01_2015 level23_spatial_F+V 10_03 Block7-73.txt,37,37,1203,47.0,-20.0,2015-01-09,False,colocated,right
31,297.6202,0,730,2058,2857,4205,901,10.0,200,1,1,298.5666,1,4,09_01_2015 level23_spatial_F+V 10_03 Block7-73.txt,37,37,1203,47.0,-20.0,2015-01-09,False,single_speaker,left
32,301.8472,0,460,1105,2857,4205,501,10.0,200,0,0,302.231,1,3,09_01_2015 level23_spatial_F+V 10_03 Block7-73.txt,37,37,1203,47.0,-20.0,2015-01-09,False,separated,right
33,313.1608,0,730,2058,2857,4205,951,10.0,200,1,0,313.3932,0,5,09_01_2015 level23_spatial_F+V 10_03 Block7-73.txt,37,37,1203,47.0,-20.0,2015-01-09,False,single_speaker,right
35,345.1087,0,460,1105,2857,4205,651,10.0,200,0,0,345.4659,1,1,09_01_2015 level23_spatial_F+V 10_03 Block7-73.txt,37,37,1203,47.0,-20.0,2015-01-09,False,colocated,right
36,351.0624,0,460,1105,2857,4205,701,10.0,200,0,0,351.8528,1,5,09_01_2015 level23_spatial_F+V 10_03 Block7-73.txt,37,37,1203,47.0,-20.0,2015-01-09,False,single_speaker,right
37,357.118,0,730,2058,2857,4205,1001,10.0,200,1,0,357.6583,0,0,09_01_2015 level23_spatial_F+V 10_03 Block7-73.txt,37,37,1203,47.0,-20.0,2015-01-09,False,colocated,left
39,395.931,0,730,2058,2857,4205,801,10.0,200,1,1,396.3587,1,1,09_01_2015 level23_spatial_F+V 10_03 Block7-73.txt,37,37,1203,47.0,-20.0,2015-01-09,False,colocated,right
40,411.9336,0,730,2058,2857,4205,851,10.0,200,1,0,412.2015,0,2,09_01_2015 level23_spatial_F+V 10_03 Block7-73.txt,37,37,1203,47.0,-20.0,2015-01-09,False,separated,left
45,473.7743,0,460,1105,2857,4205,601,10.0,200,0,0,474.4812,1,4,09_01_2015 level23_spatial_F+V 10_03 Block7-73.txt,37,37,1203,47.0,-20.0,2015-01-09,False,single_speaker,left
46,477.2853,0,730,2058,2857,4205,551,10.0,200,1,0,477.6675,0,3,09_01_2015 level23_spatial_F+V 10_03 Block7-73.txt,37,37,1203,47.0,-20.0,2015-01-09,False,separated,right
49,513.4635,0,460,1105,2857,4205,751,10.0,200,0,0,513.9591,1,2,09_01_2015 level23_spatial_F+V 10_03 Block7-73.txt,37,37,1203,47.0,-20.0,2015-01-09,False,separated,left
50,519.3196,1,460,1105,2857,4205,851,10.0,200,0,0,519.9942,1,0,09_01_2015 level23_spatial_F+V 10_03 Block7-73.txt,37,37,1203,47.0,-20.0,2015-01-09,False,colocated,left
51,526.5213,0,460,1105,2857,4205,601,10.0,200,0,0,529.4123,1,0,09_01_2015 level23_spatial_F+V 10_03 Block7-73.txt,37,37,1203,47.0,-20.0,2015-01-09,False,colocated,left
52,536.0266,1,460,1105,2857,4205,1001,10.0,200,0,0,536.6551,1,4,09_01_2015 level23_spatial_F+V 10_03 Block7-73.txt,37,37,1203,47.0,-20.0,2015-01-09,False,single_speaker,left
53,541.1244,0,730,2058,2857,4205,651,10.0,200,1,0,546.1764,0,0,09_01_2015 level23_spatial_F+V 10_03 Block7-73.txt,37,37,1203,47.0,-20.0,2015-01-09,False,colocated,left
55,561.1898,1,730,2058,2857,4205,751,10.0,200,1,1,566.2265,1,4,09_01_2015 level23_spatial_F+V 10_03 Block7-73.txt,37,37,1203,47.0,-20.0,2015-01-09,False,single_speaker,left
56,570.3962,0,460,1105,2857,4205,501,10.0,200,0,0,571.8369,1,5,09_01_2015 level23_spatial_F+V 10_03 Block7-73.txt,37,37,1203,47.0,-20.0,2015-01-09,False,single_speaker,right
57,576.9065,1,730,2058,2857,4205,901,10.0,200,1,0,577.2089,0,1,09_01_2015 level23_spatial_F+V 10_03 Block7-73.txt,37,37,1203,47.0,-20.0,2015-01-09,False,colocated,right
60,611.7272,0,730,2058,2857,4205,551,10.0,200,1,1,612.498,1,0,09_01_2015 level23_spatial_F+V 10_03 Block7-73.txt,37,37,1203,47.0,-20.0,2015-01-09,False,colocated,left
61,622.8431,0,730,2058,2857,4205,801,10.0,200,1,0,623.5852,0,0,09_01_2015 level23_spatial_F+V 10_03 Block7-73.txt,37,37,1203,47.0,-20.0,2015-01-09,False,colocated,left
63,641.2374,0,730,2058,2857,4205,951,10.0,200,1,0,641.9703,0,3,09_01_2015 level23_spatial_F+V 10_03 Block7-73.txt,37,37,1203,47.0,-20.0,2015-01-09,False,separated,right
66,676.2492,1,460,1105,2857,4205,801,10.0,200,0,0,676.8171,1,4,09_01_2015 level23_spatial_F+V 10_03 Block7-73.txt,37,37,1203,47.0,-20.0,2015-01-09,False,single_speaker,left
67,684.8989,0,460,1105,2857,4205,951,10.0,200,0,0,687.0322,1,1,09_01_2015 level23_spatial_F+V 10_03 Block7-73.txt,37,37,1203,47.0,-20.0,2015-01-09,False,colocated,right
68,692.6735,0,460,1105,2857,4205,701,10.0,200,0,0,693.5314,1,0,09_01_2015 level23_spatial_F+V 10_03 Block7-73.txt,37,37,1203,47.0,-20.0,2015-01-09,False,colocated,left
69,699.103,0,730,2058,2857,4205,651,10.0,200,1,0,699.5404,0,0,09_01_2015 level23_spatial_F+V 10_03 Block7-73.txt,37,37,1203,47.0,-20.0,2015-01-09,False,colocated,left
71,714.6928,0,730,2058,2857,4205,501,10.0,200,1,1,715.725,1,4,09_01_2015 level23_spatial_F+V 10_03 Block7-73.txt,37,37,1203,47.0,-20.0,2015-01-09,False,single_speaker,left
72,722.2396,0,460,1105,2857,4205,551,10.0,200,0,0,722.9487,1,5,09_01_2015 level23_spatial_F+V 10_03 Block7-73.txt,37,37,1203,47.0,-20.0,2015-01-09,False,single_speaker,right
73,728.9363,0,460,1105,2857,4205,1001,10.0,200,0,0,729.1465,1,5,09_01_2015 level23_spatial_F+V 10_03 Block7-73.txt,37,37,1203,47.0,-20.0,2015-01-09,False,single_speaker,right
74,739.8556,1,460,1105,2857,4205,901,10.0,200,0,0,740.3328,1,1,09_01_2015 level23_spatial_F+V 10_03 Block7-73.txt,37,37,1203,47.0,-20.0,2015-01-09,False,colocated,right
75,745.3594,0,460,1105,2857,4205,751,10.0,200,0,0,749.8749,1,4,09_01_2015 level23_spatial_F+V 10_03 Block7-73.txt,37,37,1203,47.0,-20.0,2015-01-09,False,single_speaker,left
76,755.3833,0,460,1105,2857,4205,601,10.0,200,0,0,755.8599,1,3,09_01_2015 level23_spatial_F+V 10_03 Block7-73.txt,37,37,1203,47.0,-20.0,2015-01-09,False,separated,right
77,759.8594,0,730,2058,2857,4205,651,10.0,200,1,0,760.9727,0,5,09_01_2015 level23_spatial_F+V 10_03 Block7-73.txt,37,37,1203,47.0,-20.0,2015-01-09,False,single_speaker,right
81,806.4123,0,730,2058,2857,4205,951,10.0,200,1,0,807.3315,0,1,09_01_2015 level23_spatial_F+V 10_03 Block7-73.txt,37,37,1203,47.0,-20.0,2015-01-09,False,colocated,right
83,823.0624,0,460,1105,2857,4205,701,10.0,200,0,0,823.4994,1,3,09_01_2015 level23_spatial_F+V 10_03 Block7-73.txt,37,37,1203,47.0,-20.0,2015-01-09,False,separated,right
84,830.6123,1,730,2058,2857,4205,501,10.0,200,1,1,832.9732,1,4,09_01_2015 level23_spatial_F+V 10_03 Block7-73.txt,37,37,1203,47.0,-20.0,2015-01-09,False,single_speaker,left
85,842.9371,0,730,2058,2857,4205,601,10.0,200,1,0,843.9241,0,2,09_01_2015 level23_spatial_F+V 10_03 Block7-73.txt,37,37,1203,47.0,-20.0,2015-01-09,False,separated,left
87,858.8752,0,730,2058,2857,4205,1001,10.0,200,1,0,860.2615,0,4,09_01_2015 level23_spatial_F+V 10_03 Block7-73.txt,37,37,1203,47.0,-20.0,2015-01-09,False,single_speaker,left
89,876.7009,0,460,1105,2857,4205,551,10.0,200,0,0,877.4054,1,2,09_01_2015 level23_spatial_F+V 10_03 Block7-73.txt,37,37,1203,47.0,-20.0,2015-01-09,False,separated,left
90,883.7175,0,460,1105,2857,4205,901,10.0,200,0,0,884.5744,1,2,09_01_2015 level23_spatial_F+V 10_03 Block7-73.txt,37,37,1203,47.0,-20.0,2015-01-09,False,separated,left
91,890.1197,0,460,1105,2857,4205,801,10.0,200,0,0,890.2964,1,0,09_01_2015 level23_spatial_F+V 10_03 Block7-73.txt,37,37,1203,47.0,-20.0,2015-01-09,False,colocated,left
92,900.8837,0,730,2058,2857,4205,751,10.0,200,1,0,907.024,0,2,09_01_2015 level23_spatial_F+V 10_03 Block7-73.txt,37,37,1203,47.0,-20.0,2015-01-09,False,separated,left
96,941.626,0,460,1105,2857,4205,901,10.0,200,0,0,942.1362,1,2,09_01_2015 level23_spatial_F+V 10_03 Block7-73.txt,37,37,1203,47.0,-20.0,2015-01-09,False,separated,left
97,947.5709,0,460,1105,2857,4205,801,10.0,200,0,0,948.0363,1,5,09_01_2015 level23_spatial_F+V 10_03 Block7-73.txt,37,37,1203,47.0,-20.0,2015-01-09,False,single_speaker,right
98,951.6008,0,730,2058,2857,4205,551,10.0,200,1,0,952.1624,0,5,09_01_2015 level23_spatial_F+V 10_03 Block7-73.txt,37,37,1203,47.0,-20.0,2015-01-09,False,single_speaker,right
101,975.8002,0,460,1105,2857,4205,751,10.0,200,0,0,976.2759,1,4,09_01_2015 level23_spatial_F+V 10_03 Block7-73.txt,37,37,1203,47.0,-20.0,2015-01-09,False,single_speaker,left
102,981.0271,0,460,1105,2857,4205,851,10.0,200,0,0,981.4082,1,3,09_01_2015 level23_spatial_F+V 10_03 Block7-73.txt,37,37,1203,47.0,-20.0,2015-01-09,False,separated,right
103,998.3654,0,730,2058,2857,4205,951,10.0,200,1,0,998.8525,0,1,09_01_2015 level23_spatial_F+V 10_03 Block7-73.txt,37,37,1203,47.0,-20.0,2015-01-09,False,colocated,right
105,1016.5062,0,460,1105,2857,4205,701,10.0,200,0,0,1016.9523,1,0,09_01_2015 level23_spatial_F+V 10_03 Block7-73.txt,37,37,1203,47.0,-20.0,2015-01-09,False,colocated,left
106,1022.3865,0,730,2058,2857,4205,501,10.0,200,1,0,1022.9651,0,2,09_01_2015 level23_spatial_F+V 10_03 Block7-73.txt,37,37,1203,47.0,-20.0,2015-01-09,False,separated,left
109,1045.2816,0,730,2058,2857,4205,1001,10.0,200,1,1,1045.7656,1,3,09_01_2015 level23_spatial_F+V 10_03 Block7-73.txt,37,37,1203,47.0,-20.0,2015-01-09,False,separated,right
110,1053.7397,1,730,2058,2857,4205,601,10.0,200,1,0,1054.3659,0,5,09_01_2015 level23_spatial_F+V 10_03 Block7-73.txt,37,37,1203,47.0,-20.0,2015-01-09,False,single_speaker,right
112,1072.2108,0,730,2058,2857,4205,651,10.0,200,1,0,1072.6965,0,3,09_01_2015 level23_spatial_F+V 10_03 Block7-73.txt,37,37,1203,47.0,-20.0,2015-01-09,False,separated,right
115,1165.7208,1,460,1105,2857,4205,751,10.0,200,0,0,1166.2094,1,1,09_01_2015 level23_spatial_F+V 10_03 Block7-73.txt,37,37,1203,47.0,-20.0,2015-01-09,False,colocated,right
116,1170.6658,0,460,1105,2857,4205,601,10.0,200,0,0,1173.53,1,2,09_01_2015 level23_spatial_F+V 10_03 Block7-73.txt,37,37,1203,47.0,-20.0,2015-01-09,False,separated,left
117,1178.1429,1,460,1105,2857,4205,501,10.0,200,0,0,1182.3183,1,5,09_01_2015 level23_spatial_F+V 10_03 Block7-73.txt,37,37,1203,47.0,-20.0,2015-01-09,False,single_speaker,right
118,1187.7251,0,460,1105,2857,4205,901,10.0,200,0,0,1188.5553,1,4,09_01_2015 level23_spatial_F+V 10_03 Block7-73.txt,37,37,1203,47.0,-20.0,2015-01-09,False,single_speaker,left
119,1197.5329,0,730,2058,2857,4205,701,10.0,200,1,0,1197.9676,0,2,09_01_2015 level23_spatial_F+V 10_03 Block7-73.txt,37,37,1203,47.0,-20.0,2015-01-09,False,separated,left
123,1224.8855,0,730,2058,2857,4205,1001,10.0,200,1,1,1225.9171,1,4,09_01_2015 level23_spatial_F+V 10_03 Block7-73.txt,37,37,1203,47.0,-20.0,2015-01-09,False,single_speaker,left
124,1243.2503,0,730,2058,2857,4205,801,10.0,200,1,0,1243.985,0,0,09_01_2015 level23_spatial_F+V 10_03 Block7-73.txt,37,37,1203,47.0,-20.0,2015-01-09,False,colocated,left
126,1267.0767,0,460,1105,2857,4205,851,10.0,200,0,0,1267.5179,1,4,09_01_2015 level23_spatial_F+V 10_03 Block7-73.txt,37,37,1203,47.0,-20.0,2015-01-09,False,single_speaker,left
127,1272.2193,0,460,1105,2857,4205,551,10.0,200,0,0,1273.2295,1,4,09_01_2015 level23_spatial_F+V 10_03 Block7-73.txt,37,37,1203,47.0,-20.0,2015-01-09,False,single_speaker,left
128,1277.7176,0,730,2058,2857,4205,801,10.0,200,1,0,1278.6585,0,5,09_01_2015 level23_spatial_F+V 10_03 Block7-73.txt,37,37,1203,47.0,-20.0,2015-01-09,False,single_speaker,right
130,1296.8516,0,730,2058,2857,4205,951,10.0,200,1,0,1297.0864,0,3,09_01_2015 level23_spatial_F+V 10_03 Block7-73.txt,37,37,1203,47.0,-20.0,2015-01-09,False,separated,right
1,18.7713,0,730,2058,2857,4205,851,10.0,200,1,0,25.7259,0,2,30_10_2014 level23_spatial_F+V 09_35 Block7-22.txt,37,37,1203,47.0,-20.0,2014-10-30,False,separated,left
14,260.6085,0,460,1105,2857,4205,651,10.0,200,0,0,261.261,1,1,30_10_2014 level23_spatial_F+V 09_35 Block7-22.txt,37,37,1203,47.0,-20.0,2014-10-30,False,colocated,right
15,275.3205,0,730,2058,2857,4205,951,10.0,200,1,0,275.9734,0,3,30_10_2014 level23_spatial_F+V 09_35 Block7-22.txt,37,37,1203,47.0,-20.0,2014-10-30,False,separated,right
17,285.9863,0,460,1105,2857,4205,501,10.0,200,0,0,287.191,1,5,30_10_2014 level23_spatial_F+V 09_35 Block7-22.txt,37,37,1203,47.0,-20.0,2014-10-30,False,single_speaker,right
18,296.3601,0,730,2058,2857,4205,751,10.0,200,1,1,297.6076,1,2,30_10_2014 level23_spatial_F+V 09_35 Block7-22.txt,37,37,1203,47.0,-20.0,2014-10-30,False,separated,left
19,300.6326,0,460,1105,2857,4205,901,10.0,200,0,0,301.3535,1,4,30_10_2014 level23_spatial_F+V 09_35 Block7-22.txt,37,37,1203,47.0,-20.0,2014-10-30,False,single_speaker,left
20,309.5277,0,730,2058,2857,4205,551,10.0,200,1,1,311.5228,1,5,30_10_2014 level23_spatial_F+V 09_35 Block7-22.txt,37,37,1203,47.0,-20.0,2014-10-30,False,single_speaker,right
21,315.0913,0,730,2058,2857,4205,701,10.0,200,1,1,316.8535,1,4,30_10_2014 level23_spatial_F+V 09_35 Block7-22.txt,37,37,1203,47.0,-20.0,2014-10-30,False,single_speaker,left
22,343.8409,0,730,2058,2857,4205,801,10.0,200,1,0,344.995,0,1,30_10_2014 level23_spatial_F+V 09_35 Block7-22.txt,37,37,1203,47.0,-20.0,2014-10-30,False,colocated,right
24,354.0422,0,460,1105,2857,4205,1001,10.0,200,0,1,355.5968,0,3,30_10_2014 level23_spatial_F+V 09_35 Block7-22.txt,37,37,1203,47.0,-20.0,2014-10-30,False,separated,right
26,379.7867,0,460,1105,2857,4205,851,10.0,200,0,0,380.7186,1,5,30_10_2014 level23_spatial_F+V 09_35 Block7-22.txt,37,37,1203,47.0,-20.0,2014-10-30,False,single_speaker,right
27,393.6693,0,730,2058,2857,4205,501,10.0,200,1,0,395.4911,0,3,30_10_2014 level23_spatial_F+V 09_35 Block7-22.txt,37,37,1203,47.0,-20.0,2014-10-30,False,separated,right
30,419.7829,0,460,1105,2857,4205,651,10.0,200,0,0,420.478,1,0,30_10_2014 level23_spatial_F+V 09_35 Block7-22.txt,37,37,1203,47.0,-20.0,2014-10-30,False,colocated,left
31,428.043,0,460,1105,2857,4205,951,10.0,200,0,0,428.7036,1,5,30_10_2014 level23_spatial_F+V 09_35 Block7-22.txt,37,37,1203,47.0,-20.0,2014-10-30,False,single_speaker,right
32,437.1913,0,460,1105,2857,4205,601,10.0,200,0,0,438.8063,1,0,30_10_2014 level23_spatial_F+V 09_35 Block7-22.txt,37,37,1203,47.0,-20.0,2014-10-30,False,colocated,left
33,450.3936,0,730,2058,2857,4205,701,10.0,200,1,1,451.8185,1,0,30_10_2014 level23_spatial_F+V 09_35 Block7-22.txt,37,37,1203,47.0,-20.0,2014-10-30,False,colocated,left
34,462.8761,0,730,2058,2857,4205,801,10.0,200,1,0,464.1882,0,1,30_10_2014 level23_spatial_F+V 09_35 Block7-22.txt,37,37,1203,47.0,-20.0,2014-10-30,False,colocated,right
37,492.2256,0,460,1105,2857,4205,551,10.0,200,0,0,493.6938,1,4,30_10_2014 level23_spatial_F+V 09_35 Block7-22.txt,37,37,1203,47.0,-20.0,2014-10-30,False,single_speaker,left
38,506.3558,0,460,1105,2857,4205,1001,10.0,200,0,0,506.9887,1,0,30_10_2014 level23_spatial_F+V 09_35 Block7-22.txt,37,37,1203,47.0,-20.0,2014-10-30,False,colocated,left
39,519.3467,1,730,2058,2857,4205,751,10.0,200,1,0,527.0821,0,5,30_10_2014 level23_spatial_F+V 09_35 Block7-22.txt,37,37,1203,47.0,-20.0,2014-10-30,False,single_speaker,right
41,548.1974,0,730,2058,2857,4205,901,10.0,200,1,0,549.6073,0,0,30_10_2014 level23_spatial_F+V 09_35 Block7-22.txt,37,37,1203,47.0,-20.0,2014-10-30,False,colocated,left
1,5.9417,0,460,1105,2857,4205,1001,-5.0,200,0,1,6.4925,0,3,21_03_2014 level23_spatial_F+V 14_04 Block4-55.txt,37,37,1203,62.0,-5.0,2014-03-21,False,separated,right
20,441.1959,0,730,2058,2857,4205,501,-5.0,200,1,1,458.9202,1,2,21_03_2014 level23_spatial_F+V 14_04 Block4-55.txt,37,37,1203,62.0,-5.0,2014-03-21,False,separated,left
21,468.7566,0,460,1105,2857,4205,801,-5.0,200,0,0,469.3758,1,4,21_03_2014 level23_spatial_F+V 14_04 Block4-55.txt,37,37,1203,62.0,-5.0,2014-03-21,False,single_speaker,left
22,478.4315,0,460,1105,2857,4205,901,-5.0,200,0,1,479.2635,0,5,21_03_2014 level23_spatial_F+V 14_04 Block4-55.txt,37,37,1203,62.0,-5.0,2014-03-21,False,single_speaker,right
24,495.9988,0,730,2058,2857,4205,601,-5.0,200,1,1,496.5082,1,0,21_03_2014 level23_spatial_F+V 14_04 Block4-55.txt,37,37,1203,62.0,-5.0,2014-03-21,False,colocated,left
25,504.1807,0,730,2058,2857,4205,951,-5.0,200,1,1,504.5665,1,4,21_03_2014 level23_spatial_F+V 14_04 Block4-55.txt,37,37,1203,62.0,-5.0,2014-03-21,False,single_speaker,left
26,510.1105,0,730,2058,2857,4205,651,-5.0,200,1,1,510.7855,1,5,21_03_2014 level23_spatial_F+V 14_04 Block4-55.txt,37,37,1203,62.0,-5.0,2014-03-21,False,single_speaker,right
27,516.0252,0,460,1105,2857,4205,551,-5.0,200,0,1,516.6329,0,4,21_03_2014 level23_spatial_F+V 14_04 Block4-55.txt,37,37,1203,62.0,-5.0,2014-03-21,False,single_speaker,left
29,534.3622,0,730,2058,2857,4205,701,-5.0,200,1,1,534.772,1,1,21_03_2014 level23_spatial_F+V 14_04 Block4-55.txt,37,37,1203,62.0,-5.0,2014-03-21,False,colocated,right
30,544.4789,0,730,2058,2857,4205,751,-5.0,200,1,1,544.8672,1,3,21_03_2014 level23_spatial_F+V 14_04 Block4-55.txt,37,37,1203,62.0,-5.0,2014-03-21,False,separated,right
31,551.9984,0,730,2058,2857,4205,651,-5.0,200,1,1,552.6299,1,2,21_03_2014 level23_spatial_F+V 14_04 Block4-55.txt,37,37,1203,62.0,-5.0,2014-03-21,False,separated,left
32,558.1424,0,460,1105,2857,4205,551,-5.0,200,0,0,559.8602,1,3,21_03_2014 level23_spatial_F+V 14_04 Block4-55.txt,37,37,1203,62.0,-5.0,2014-03-21,False,separated,right
33,567.2156,0,460,1105,2857,4205,501,-5.0,200,0,0,568.5803,1,5,21_03_2014 level23_spatial_F+V 14_04 Block4-55.txt,37,37,1203,62.0,-5.0,2014-03-21,False,single_speaker,right
34,579.6217,0,460,1105,2857,4205,951,-5.0,200,0,0,579.7889,1,5,21_03_2014 level23_spatial_F+V 14_04 Block4-55.txt,37,37,1203,62.0,-5.0,2014-03-21,False,single_speaker,right
35,597.3675,0,730,2058,2857,4205,751,-5.0,200,1,1,597.9408,1,4,21_03_2014 level23_spatial_F+V 14_04 Block4-55.txt,37,37,1203,62.0,-5.0,2014-03-21,False,single_speaker,left
36,603.9481,0,730,2058,2857,4205,701,-5.0,200,1,1,604.586,1,5,21_03_2014 level23_spatial_F+V 14_04 Block4-55.txt,37,37,1203,62.0,-5.0,2014-03-21,False,single_speaker,right
37,625.4678,0,460,1105,2857,4205,851,-5.0,200,0,0,626.0385,1,1,21_03_2014 level23_spatial_F+V 14_04 Block4-55.txt,37,37,1203,62.0,-5.0,2014-03-21,False,colocated,right
38,638.109,0,460,1105,2857,4205,801,-5.0,200,0,0,638.4246,1,2,21_03_2014 level23_spatial_F+V 14_04 Block4-55.txt,37,37,1203,62.0,-5.0,2014-03-21,False,separated,left
39,646.5284,1,460,1105,2857,4205,601,-5.0,200,0,0,648.0184,1,1,21_03_2014 level23_spatial_F+V 14_04 Block4-55.txt,37,37,1203,62.0,-5.0,2014-03-21,False,colocated,right
40,658.1533,0,460,1105,2857,4205,1001,-5.0,200,0,1,661.5029,0,0,21_03_2014 level23_spatial_F+V 14_04 Block4-55.txt,37,37,1203,62.0,-5.0,2014-03-21,False,colocated,left
43,712.0174,0,460,1105,2857,4205,1001,-5.0,200,0,0,712.9665,1,4,21_03_2014 level23_spatial_F+V 14_04 Block4-55.txt,37,37,1203,62.0,-5.0,2014-03-21,False,single_speaker,left
44,718.8635,1,730,2058,2857,4205,551,-5.0,200,1,1,719.7823,1,3,21_03_2014 level23_spatial_F+V 14_04 Block4-55.txt,37,37,1203,62.0,-5.0,2014-03-21,False,separated,right
45,725.0384,0,730,2058,2857,4205,901,-5.0,200,1,1,727.6108,1,1,21_03_2014 level23_spatial_F+V 14_04 Block4-55.txt,37,37,1203,62.0,-5.0,2014-03-21,False,colocated,right
46,733.2183,0,730,2058,2857,4205,751,-5.0,200,1,1,733.7958,1,1,21_03_2014 level23_spatial_F+V 14_04 Block4-55.txt,37,37,1203,62.0,-5.0,2014-03-21,False,colocated,right
47,739.2484,0,460,1105,2857,4205,801,-5.0,200,0,0,740.5928,1,3,21_03_2014 level23_spatial_F+V 14_04 Block4-55.txt,37,37,1203,62.0,-5.0,2014-03-21,False,separated,right
48,748.0563,0,730,2058,2857,4205,851,-5.0,200,1,1,748.715,1,5,21_03_2014 level23_spatial_F+V 14_04 Block4-55.txt,37,37,1203,62.0,-5.0,2014-03-21,False,single_speaker,right
49,762.4046,0,730,2058,2857,4205,701,-5.0,200,1,0,763.0018,0,3,21_03_2014 level23_spatial_F+V 14_04 Block4-55.txt,37,37,1203,62.0,-5.0,2014-03-21,False,separated,right
52,786.7194,0,460,1105,2857,4205,601,-5.0,200,0,1,787.3738,0,0,21_03_2014 level23_spatial_F+V 14_04 Block4-55.txt,37,37,1203,62.0,-5.0,2014-03-21,False,colocated,left
54,802.5208,0,730,2058,2857,4205,951,-5.0,200,1,1,803.2667,1,2,21_03_2014 level23_spatial_F+V 14_04 Block4-55.txt,37,37,1203,62.0,-5.0,2014-03-21,False,separated,left
55,809.0151,0,460,1105,2857,4205,501,-5.0,200,0,1,809.3935,0,2,21_03_2014 level23_spatial_F+V 14_04 Block4-55.txt,37,37,1203,62.0,-5.0,2014-03-21,False,separated,left
57,825.7547,0,730,2058,2857,4205,951,-5.0,200,1,1,826.41,1,0,21_03_2014 level23_spatial_F+V 14_04 Block4-55.txt,37,37,1203,62.0,-5.0,2014-03-21,False,colocated,left
58,836.3402,1,460,1105,2857,4205,851,-5.0,200,0,0,836.747,1,0,21_03_2014 level23_spatial_F+V 14_04 Block4-55.txt,37,37,1203,62.0,-5.0,2014-03-21,False,colocated,left
59,843.7663,0,460,1105,2857,4205,651,-5.0,200,0,1,848.4791,0,2,21_03_2014 level23_spatial_F+V 14_04 Block4-55.txt,37,37,1203,62.0,-5.0,2014-03-21,False,separated,left
61,866.3319,0,730,2058,2857,4205,901,-5.0,200,1,1,866.8543,1,4,21_03_2014 level23_spatial_F+V 14_04 Block4-55.txt,37,37,1203,62.0,-5.0,2014-03-21,False,single_speaker,left
62,872.0646,0,460,1105,2857,4205,551,-5.0,200,0,1,872.3329,0,1,21_03_2014 level23_spatial_F+V 14_04 Block4-55.txt,37,37,1203,62.0,-5.0,2014-03-21,False,colocated,right
66,908.682,0,730,2058,2857,4205,751,-5.0,200,1,1,909.0837,1,0,21_03_2014 level23_spatial_F+V 14_04 Block4-55.txt,37,37,1203,62.0,-5.0,2014-03-21,False,colocated,left
67,918.2214,0,730,2058,2857,4205,501,-5.0,200,1,1,919.2252,1,3,21_03_2014 level23_spatial_F+V 14_04 Block4-55.txt,37,37,1203,62.0,-5.0,2014-03-21,False,separated,right
68,924.0323,0,460,1105,2857,4205,801,-5.0,200,0,0,925.2017,1,5,21_03_2014 level23_spatial_F+V 14_04 Block4-55.txt,37,37,1203,62.0,-5.0,2014-03-21,False,single_speaker,right
69,932.8387,0,460,1105,2857,4205,601,-5.0,200,0,0,933.9139,1,0,21_03_2014 level23_spatial_F+V 14_04 Block4-55.txt,37,37,1203,62.0,-5.0,2014-03-21,False,colocated,left
70,948.2092,0,730,2058,2857,4205,1001,-5.0,200,1,0,948.7149,0,1,21_03_2014 level23_spatial_F+V 14_04 Block4-55.txt,37,37,1203,62.0,-5.0,2014-03-21,False,colocated,right
72,964.1872,0,460,1105,2857,4205,1001,-5.0,200,0,0,965.1325,1,4,21_03_2014 level23_spatial_F+V 14_04 Block4-55.txt,37,37,1203,62.0,-5.0,2014-03-21,False,single_speaker,left
73,972.3454,0,460,1105,2857,4205,751,-5.0,200,0,0,972.8486,1,1,21_03_2014 level23_spatial_F+V 14_04 Block4-55.txt,37,37,1203,62.0,-5.0,2014-03-21,False,colocated,right
74,978.388,0,460,1105,2857,4205,601,-5.0,200,0,0,980.4771,1,3,21_03_2014 level23_spatial_F+V 14_04 Block4-55.txt,37,37,1203,62.0,-5.0,2014-03-21,False,separated,right
75,988.9093,0,460,1105,2857,4205,501,-5.0,200,0,0,989.7509,1,4,21_03_2014 level23_spatial_F+V 14_04 Block4-55.txt,37,37,1203,62.0,-5.0,2014-03-21,False,single_speaker,left
76,1009.6883,0,460,1105,2857,4205,951,-5.0,200,0,0,1010.5697,1,4,21_03_2014 level23_spatial_F+V 14_04 Block4-55.txt,37,37,1203,62.0,-5.0,2014-03-21,False,single_speaker,left
77,1022.983,0,460,1105,2857,4205,851,-5.0,200,0,0,1023.9143,1,2,21_03_2014 level23_spatial_F+V 14_04 Block4-55.txt,37,37,1203,62.0,-5.0,2014-03-21,False,separated,left
78,1030.898,0,460,1105,2857,4205,651,-5.0,200,0,0,1031.5578,1,0,21_03_2014 level23_spatial_F+V 14_04 Block4-55.txt,37,37,1203,62.0,-5.0,2014-03-21,False,colocated,left
79,1039.5017,1,460,1105,2857,4205,701,-5.0,200,0,1,1043.2974,0,3,21_03_2014 level23_spatial_F+V 14_04 Block4-55.txt,37,37,1203,62.0,-5.0,2014-03-21,False,separated,right
81,1058.692,0,730,2058,2857,4205,801,-5.0,200,1,1,1059.2739,1,3,21_03_2014 level23_spatial_F+V 14_04 Block4-55.txt,37,37,1203,62.0,-5.0,2014-03-21,False,separated,right
82,1063.9296,0,460,1105,2857,4205,551,-5.0,200,0,0,1066.1851,1,5,21_03_2014 level23_spatial_F+V 14_04 Block4-55.txt,37,37,1203,62.0,-5.0,2014-03-21,False,single_speaker,right
83,1072.956,0,730,2058,2857,4205,701,-5.0,200,1,1,1073.5384,1,4,21_03_2014 level23_spatial_F+V 14_04 Block4-55.txt,37,37,1203,62.0,-5.0,2014-03-21,False,single_speaker,left
84,1085.9208,1,730,2058,2857,4205,751,-5.0,200,1,0,1091.3083,0,0,21_03_2014 level23_spatial_F+V 14_04 Block4-55.txt,37,37,1203,62.0,-5.0,2014-03-21,False,colocated,left
86,1105.0874,0,730,2058,2857,4205,851,-5.0,200,1,1,1105.427,1,1,21_03_2014 level23_spatial_F+V 14_04 Block4-55.txt,37,37,1203,62.0,-5.0,2014-03-21,False,colocated,right
87,1110.1863,0,730,2058,2857,4205,501,-5.0,200,1,0,1111.0233,0,0,21_03_2014 level23_spatial_F+V 14_04 Block4-55.txt,37,37,1203,62.0,-5.0,2014-03-21,False,colocated,left
90,1131.9697,0,730,2058,2857,4205,801,-5.0,200,1,1,1132.314,1,3,21_03_2014 level23_spatial_F+V 14_04 Block4-55.txt,37,37,1203,62.0,-5.0,2014-03-21,False,separated,right
91,1137.8423,0,730,2058,2857,4205,551,-5.0,200,1,1,1138.9394,1,0,21_03_2014 level23_spatial_F+V 14_04 Block4-55.txt,37,37,1203,62.0,-5.0,2014-03-21,False,colocated,left
92,1143.7375,0,730,2058,2857,4205,601,-5.0,200,1,1,1144.9029,1,5,21_03_2014 level23_spatial_F+V 14_04 Block4-55.txt,37,37,1203,62.0,-5.0,2014-03-21,False,single_speaker,right
93,1160.8175,0,460,1105,2857,4205,1001,-5.0,200,0,0,1161.2289,1,5,21_03_2014 level23_spatial_F+V 14_04 Block4-55.txt,37,37,1203,62.0,-5.0,2014-03-21,False,single_speaker,right
94,1167.0799,0,460,1105,2857,4205,901,-5.0,200,0,0,1167.388,1,2,21_03_2014 level23_spatial_F+V 14_04 Block4-55.txt,37,37,1203,62.0,-5.0,2014-03-21,False,separated,left
95,1173.3806,1,730,2058,2857,4205,951,-5.0,200,1,1,1173.7756,1,1,21_03_2014 level23_spatial_F+V 14_04 Block4-55.txt,37,37,1203,62.0,-5.0,2014-03-21,False,colocated,right
96,1180.8791,0,460,1105,2857,4205,951,-5.0,200,0,1,1183.8866,0,1,21_03_2014 level23_spatial_F+V 14_04 Block4-55.txt,37,37,1203,62.0,-5.0,2014-03-21,False,colocated,right
98,1198.7626,0,730,2058,2857,4205,801,-5.0,200,1,1,1199.4617,1,5,21_03_2014 level23_spatial_F+V 14_04 Block4-55.txt,37,37,1203,62.0,-5.0,2014-03-21,False,single_speaker,right
99,1204.8504,0,460,1105,2857,4205,651,-5.0,200,0,0,1206.3116,1,3,21_03_2014 level23_spatial_F+V 14_04 Block4-55.txt,37,37,1203,62.0,-5.0,2014-03-21,False,separated,right
100,1214.6763,0,730,2058,2857,4205,851,-5.0,200,1,1,1215.236,1,5,21_03_2014 level23_spatial_F+V 14_04 Block4-55.txt,37,37,1203,62.0,-5.0,2014-03-21,False,single_speaker,right
101,1219.9108,0,730,2058,2857,4205,601,-5.0,200,1,1,1220.4605,1,2,21_03_2014 level23_spatial_F+V 14_04 Block4-55.txt,37,37,1203,62.0,-5.0,2014-03-21,False,separated,left
102,1227.646,1,460,1105,2857,4205,751,-5.0,200,0,1,1228.469,0,1,21_03_2014 level23_spatial_F+V 14_04 Block4-55.txt,37,37,1203,62.0,-5.0,2014-03-21,False,colocated,right
104,1245.5139,0,730,2058,2857,4205,901,-5.0,200,1,1,1246.0098,1,4,21_03_2014 level23_spatial_F+V 14_04 Block4-55.txt,37,37,1203,62.0,-5.0,2014-03-21,False,single_speaker,left
105,1250.5357,0,460,1105,2857,4205,701,-5.0,200,0,0,1251.5629,1,0,21_03_2014 level23_spatial_F+V 14_04 Block4-55.txt,37,37,1203,62.0,-5.0,2014-03-21,False,colocated,left
106,1261.8836,0,460,1105,2857,4205,551,-5.0,200,0,0,1263.4207,1,2,21_03_2014 level23_spatial_F+V 14_04 Block4-55.txt,37,37,1203,62.0,-5.0,2014-03-21,False,separated,left
107,1271.6802,0,730,2058,2857,4205,501,-5.0,200,1,1,1272.3502,1,4,21_03_2014 level23_spatial_F+V 14_04 Block4-55.txt,37,37,1203,62.0,-5.0,2014-03-21,False,single_speaker,left
108,1280.4114,0,730,2058,2857,4205,901,-5.0,200,1,1,1280.8053,1,2,21_03_2014 level23_spatial_F+V 14_04 Block4-55.txt,37,37,1203,62.0,-5.0,2014-03-21,False,separated,left
109,1285.8647,0,730,2058,2857,4205,551,-5.0,200,1,1,1286.4111,1,2,21_03_2014 level23_spatial_F+V 14_04 Block4-55.txt,37,37,1203,62.0,-5.0,2014-03-21,False,separated,left
110,1291.3686,0,460,1105,2857,4205,801,-5.0,200,0,0,1292.089,1,4,21_03_2014 level23_spatial_F+V 14_04 Block4-55.txt,37,37,1203,62.0,-5.0,2014-03-21,False,single_speaker,left
111,1298.154,0,730,2058,2857,4205,701,-5.0,200,1,1,1298.9799,1,3,21_03_2014 level23_spatial_F+V 14_04 Block4-55.txt,37,37,1203,62.0,-5.0,2014-03-21,False,separated,right
112,1303.2274,0,460,1105,2857,4205,501,-5.0,200,0,0,1303.8751,1,4,21_03_2014 level23_spatial_F+V 14_04 Block4-55.txt,37,37,1203,62.0,-5.0,2014-03-21,False,single_speaker,left
113,1309.8784,0,460,1105,2857,4205,951,-5.0,200,0,0,1310.7733,1,0,21_03_2014 level23_spatial_F+V 14_04 Block4-55.txt,37,37,1203,62.0,-5.0,2014-03-21,False,colocated,left
114,1316.1363,0,730,2058,2857,4205,851,-5.0,200,1,0,1316.4667,0,1,21_03_2014 level23_spatial_F+V 14_04 Block4-55.txt,37,37,1203,62.0,-5.0,2014-03-21,False,colocated,right
116,1328.6321,0,730,2058,2857,4205,1001,-5.0,200,1,1,1328.9174,1,5,21_03_2014 level23_spatial_F+V 14_04 Block4-55.txt,37,37,1203,62.0,-5.0,2014-03-21,False,single_speaker,right
117,1334.8735,0,460,1105,2857,4205,651,-5.0,200,0,0,1335.9629,1,1,21_03_2014 level23_spatial_F+V 14_04 Block4-55.txt,37,37,1203,62.0,-5.0,2014-03-21,False,colocated,right
118,1342.9917,0,730,2058,2857,4205,601,-5.0,200,1,1,1343.4678,1,0,21_03_2014 level23_spatial_F+V 14_04 Block4-55.txt,37,37,1203,62.0,-5.0,2014-03-21,False,colocated,left
119,1347.4481,0,460,1105,2857,4205,501,-5.0,200,0,0,1348.2282,1,2,21_03_2014 level23_spatial_F+V 14_04 Block4-55.txt,37,37,1203,62.0,-5.0,2014-03-21,False,separated,left
120,1353.0288,0,460,1105,2857,4205,601,-5.0,200,0,0,1354.0122,1,3,21_03_2014 level23_spatial_F+V 14_04 Block4-55.txt,37,37,1203,62.0,-5.0,2014-03-21,False,separated,right
121,1360.4127,0,730,2058,2857,4205,751,-5.0,200,1,1,1361.3099,1,5,21_03_2014 level23_spatial_F+V 14_04 Block4-55.txt,37,37,1203,62.0,-5.0,2014-03-21,False,single_speaker,right
122,1365.5826,0,730,2058,2857,4205,651,-5.0,200,1,0,1366.4638,0,4,21_03_2014 level23_spatial_F+V 14_04 Block4-55.txt,37,37,1203,62.0,-5.0,2014-03-21,False,single_speaker,left
124,1395.8241,0,730,2058,2857,4205,851,-5.0,200,1,1,1396.263,1,5,21_03_2014 level23_spatial_F+V 14_04 Block4-55.txt,37,37,1203,62.0,-5.0,2014-03-21,False,single_speaker,right
125,1462.4347,0,730,2058,2857,4205,1001,-5.0,200,1,1,1462.8246,1,2,21_03_2014 level23_spatial_F+V 14_04 Block4-55.txt,37,37,1203,62.0,-5.0,2014-03-21,False,separated,left
126,1467.5563,0,460,1105,2857,4205,551,-5.0,200,0,1,1467.9527,0,0,21_03_2014 level23_spatial_F+V 14_04 Block4-55.txt,37,37,1203,62.0,-5.0,2014-03-21,False,colocated,left
1,35.3515,1,460,1105,2857,4205,901,0.0,200,0,0,35.7409,1,4,10_07_2014 level23_spatial_F+V 10_40 Block6-23.txt,37,37,1203,57.0,-10.0,2014-07-10,False,single_speaker,left
2,42.8917,1,460,1105,2857,4205,951,0.0,200,0,1,43.5489,0,5,10_07_2014 level23_spatial_F+V 10_40 Block6-23.txt,37,37,1203,57.0,-10.0,2014-07-10,False,single_speaker,right
4,60.523,0,460,1105,2857,4205,601,0.0,200,0,0,61.3994,1,4,10_07_2014 level23_spatial_F+V 10_40 Block6-23.txt,37,37,1203,57.0,-10.0,2014-07-10,False,single_speaker,left
5,68.4479,0,730,2058,2857,4205,651,0.0,200,1,1,69.0055,1,3,10_07_2014 level23_spatial_F+V 10_40 Block6-23.txt,37,37,1203,57.0,-10.0,2014-07-10,False,separated,right
6,73.3524,1,730,2058,2857,4205,851,0.0,200,1,1,73.7461,1,2,10_07_2014 level23_spatial_F+V 10_40 Block6-23.txt,37,37,1203,57.0,-10.0,2014-07-10,False,separated,left
7,79.0374,0,460,1105,2857,4205,751,0.0,200,0,0,82.1366,1,5,10_07_2014 level23_spatial_F+V 10_40 Block6-23.txt,37,37,1203,57.0,-10.0,2014-07-10,False,single_speaker,right
8,88.4344,0,460,1105,2857,4205,801,0.0,200,0,0,89.3052,1,2,10_07_2014 level23_spatial_F+V 10_40 Block6-23.txt,37,37,1203,57.0,-10.0,2014-07-10,False,separated,left
9,98.9328,0,730,2058,2857,4205,1001,0.0,200,1,1,99.4828,1,0,10_07_2014 level23_spatial_F+V 10_40 Block6-23.txt,37,37,1203,57.0,-10.0,2014-07-10,False,colocated,left
10,103.3909,0,460,1105,2857,4205,701,0.0,200,0,0,104.2265,1,1,10_07_2014 level23_spatial_F+V 10_40 Block6-23.txt,37,37,1203,57.0,-10.0,2014-07-10,False,colocated,right
11,112.3619,0,460,1105,2857,4205,501,0.0,200,0,1,113.0028,0,0,10_07_2014 level23_spatial_F+V 10_40 Block6-23.txt,37,37,1203,57.0,-10.0,2014-07-10,False,colocated,left
