Trial,StartTime,CenterReward,F1,F2,F3,F4,HoldTime,Atten,Pitch,Side,Response,RespTime,Correct,SpatialMask,originalFile,LeftTemperature,RightTemperature,fNum,vowel_level,SNR,day,treatment,SpatialCondition,VowelLocation
1,8.3086,0,460,1105,2857,4205,701,-15.0,200,1,0,17.1538,0,0,17_07_2014 level23_spatial_Clio 14_56 log.txt,37,37,1217,72.0,5.0,2014-07-17,False,colocated,left
3,38.9245,0,730,2058,2857,4205,601,-15.0,200,0,0,39.6077,1,0,17_07_2014 level23_spatial_Clio 14_56 log.txt,37,37,1217,72.0,5.0,2014-07-17,False,colocated,left
4,47.5368,0,730,2058,2857,4205,651,-15.0,200,0,0,48.2321,1,4,17_07_2014 level23_spatial_Clio 14_56 log.txt,37,37,1217,72.0,5.0,2014-07-17,False,single_speaker,left
5,57.3617,0,730,2058,2857,4205,551,-15.0,200,0,0,58.8833,1,3,17_07_2014 level23_spatial_Clio 14_56 log.txt,37,37,1217,72.0,5.0,2014-07-17,False,separated,right
6,69.679,0,460,1105,2857,4205,1001,-15.0,200,1,1,70.0262,1,5,17_07_2014 level23_spatial_Clio 14_56 log.txt,37,37,1217,72.0,5.0,2014-07-17,False,single_speaker,right
7,84.4448,1,460,1105,2857,4205,901,-15.0,200,1,0,85.4922,0,2,17_07_2014 level23_spatial_Clio 14_56 log.txt,37,37,1217,72.0,5.0,2014-07-17,False,separated,left
10,122.3063,0,460,1105,2857,4205,851,-15.0,200,1,0,124.1795,0,0,17_07_2014 level23_spatial_Clio 14_56 log.txt,37,37,1217,72.0,5.0,2014-07-17,False,colocated,left
13,159.0599,0,730,2058,2857,4205,751,-15.0,200,0,1,161.8921,0,1,17_07_2014 level23_spatial_Clio 14_56 log.txt,37,37,1217,72.0,5.0,2014-07-17,False,colocated,right
16,189.21,0,460,1105,2857,4205,951,-15.0,200,1,0,190.8959,0,4,17_07_2014 level23_spatial_Clio 14_56 log.txt,37,37,1217,72.0,5.0,2014-07-17,False,single_speaker,left
19,215.447,0,460,1105,2857,4205,501,-15.0,200,1,0,217.5828,0,4,17_07_2014 level23_spatial_Clio 14_56 log.txt,37,37,1217,72.0,5.0,2014-07-17,False,single_speaker,left
21,238.3752,0,460,1105,2857,4205,901,-15.0,200,1,1,238.6426,1,3,17_07_2014 level23_spatial_Clio 14_56 log.txt,37,37,1217,72.0,5.0,2014-07-17,False,separated,right
22,255.5795,1,730,2058,2857,4205,751,-15.0,200,0,0,256.9035,1,2,17_07_2014 level23_spatial_Clio 14_56 log.txt,37,37,1217,72.0,5.0,2014-07-17,False,separated,left
23,263.5679,0,460,1105,2857,4205,851,-15.0,200,1,0,266.2251,0,3,17_07_2014 level23_spatial_Clio 14_56 log.txt,37,37,1217,72.0,5.0,2014-07-17,False,separated,right
25,292.5423,0,460,1105,2857,4205,651,-15.0,200,1,0,294.6271,0,5,17_07_2014 level23_spatial_Clio 14_56 log.txt,37,37,1217,72.0,5.0,2014-07-17,False,single_speaker,right
27,321.7389,0,730,2058,2857,4205,801,-15.0,200,0,0,322.677,1,4,17_07_2014 level23_spatial_Clio 14_56 log.txt,37,37,1217,72.0,5.0,2014-07-17,False,single_speaker,left
28,327.5918,0,730,2058,2857,4205,551,-15.0,200,0,0,328.7801,1,5,17_07_2014 level23_spatial_Clio 14_56 log.txt,37,37,1217,72.0,5.0,2014-07-17,False,single_speaker,right
29,337.675,1,460,1105,2857,4205,601,-15.0,200,1,1,338.2582,1,3,17_07_2014 level23_spatial_Clio 14_56 log.txt,37,37,1217,72.0,5.0,2014-07-17,False,separated,right
30,349.4591,0,460,1105,2857,4205,1001,-15.0,200,1,1,351.541,1,2,17_07_2014 level23_spatial_Clio 14_56 log.txt,37,37,1217,72.0,5.0,2014-07-17,False,separated,left
31,367.3903,0,730,2058,2857,4205,951,-15.0,200,0,0,368.6122,1,1,17_07_2014 level23_spatial_Clio 14_56 log.txt,37,37,1217,72.0,5.0,2014-07-17,False,colocated,right
32,375.0405,0,730,2058,2857,4205,701,-15.0,200,0,0,375.9326,1,5,17_07_2014 level23_spatial_Clio 14_56 log.txt,37,37,1217,72.0,5.0,2014-07-17,False,single_speaker,right
33,384.5129,0,730,2058,2857,4205,501,-15.0,200,0,0,386.0225,1,4,17_07_2014 level23_spatial_Clio 14_56 log.txt,37,37,1217,72.0,5.0,2014-07-17,False,single_speaker,left
34,394.2285,0,730,2058,2857,4205,951,-15.0,200,0,0,395.2722,1,3,17_07_2014 level23_spatial_Clio 14_56 log.txt,37,37,1217,72.0,5.0,2014-07-17,False,separated,right
35,403.0556,0,460,1105,2857,4205,701,-15.0,200,1,1,403.4019,1,1,17_07_2014 level23_spatial_Clio 14_56 log.txt,37,37,1217,72.0,5.0,2014-07-17,False,colocated,right
36,413.5373,0,460,1105,2857,4205,1001,-15.0,200,1,0,415.8143,0,4,17_07_2014 level23_spatial_Clio 14_56 log.txt,37,37,1217,72.0,5.0,2014-07-17,False,single_speaker,left
38,435.3565,1,460,1105,2857,4205,651,-15.0,200,1,0,436.509,0,1,17_07_2014 level23_spatial_Clio 14_56 log.txt,37,37,1217,72.0,5.0,2014-07-17,False,colocated,right
40,459.5296,0,730,2058,2857,4205,801,-15.0,200,0,0,460.4197,1,0,17_07_2014 level23_spatial_Clio 14_56 log.txt,37,37,1217,72.0,5.0,2014-07-17,False,colocated,left
41,470.8028,0,730,2058,2857,4205,751,-15.0,200,0,0,474.7146,1,2,17_07_2014 level23_spatial_Clio 14_56 log.txt,37,37,1217,72.0,5.0,2014-07-17,False,separated,left
42,486.3345,0,730,2058,2857,4205,601,-15.0,200,0,0,487.4143,1,2,17_07_2014 level23_spatial_Clio 14_56 log.txt,37,37,1217,72.0,5.0,2014-07-17,False,separated,left
43,493.0301,0,460,1105,2857,4205,851,-15.0,200,1,1,493.8608,1,1,17_07_2014 level23_spatial_Clio 14_56 log.txt,37,37,1217,72.0,5.0,2014-07-17,False,colocated,right
44,510.116,0,460,1105,2857,4205,901,-15.0,200,1,0,510.8686,0,2,17_07_2014 level23_spatial_Clio 14_56 log.txt,37,37,1217,72.0,5.0,2014-07-17,False,separated,left
46,545.2125,0,730,2058,2857,4205,951,-15.0,200,0,0,549.1914,1,1,17_07_2014 level23_spatial_Clio 14_56 log.txt,37,37,1217,72.0,5.0,2014-07-17,False,colocated,right
47,554.9374,0,460,1105,2857,4205,1001,-15.0,200,1,1,555.3952,1,5,17_07_2014 level23_spatial_Clio 14_56 log.txt,37,37,1217,72.0,5.0,2014-07-17,False,single_speaker,right
48,559.1905,0,730,2058,2857,4205,651,-15.0,200,0,0,559.9697,1,3,17_07_2014 level23_spatial_Clio 14_56 log.txt,37,37,1217,72.0,5.0,2014-07-17,False,separated,right
49,568.5894,0,730,2058,2857,4205,801,-15.0,200,0,0,570.0672,1,0,17_07_2014 level23_spatial_Clio 14_56 log.txt,37,37,1217,72.0,5.0,2014-07-17,False,colocated,left
50,577.6313,0,460,1105,2857,4205,701,-15.0,200,1,0,578.724,0,0,17_07_2014 level23_spatial_Clio 14_56 log.txt,37,37,1217,72.0,5.0,2014-07-17,False,colocated,left
52,588.7471,0,730,2058,2857,4205,601,-15.0,200,0,0,590.3223,1,5,17_07_2014 level23_spatial_Clio 14_56 log.txt,37,37,1217,72.0,5.0,2014-07-17,False,single_speaker,right
53,595.9659,1,460,1105,2857,4205,851,-15.0,200,1,0,596.8588,0,3,17_07_2014 level23_spatial_Clio 14_56 log.txt,37,37,1217,72.0,5.0,2014-07-17,False,separated,right
57,635.6575,0,460,1105,2857,4205,751,-15.0,200,1,0,636.7643,0,1,17_07_2014 level23_spatial_Clio 14_56 log.txt,37,37,1217,72.0,5.0,2014-07-17,False,colocated,right
59,645.9211,0,460,1105,2857,4205,501,-15.0,200,1,1,646.4714,1,2,17_07_2014 level23_spatial_Clio 14_56 log.txt,37,37,1217,72.0,5.0,2014-07-17,False,separated,left
60,649.8165,0,460,1105,2857,4205,901,-15.0,200,1,1,650.2016,1,4,17_07_2014 level23_spatial_Clio 14_56 log.txt,37,37,1217,72.0,5.0,2014-07-17,False,single_speaker,left
61,653.8981,0,730,2058,2857,4205,551,-15.0,200,0,0,654.9919,1,5,17_07_2014 level23_spatial_Clio 14_56 log.txt,37,37,1217,72.0,5.0,2014-07-17,False,single_speaker,right
62,659.6504,0,730,2058,2857,4205,501,-15.0,200,0,1,660.1285,0,1,17_07_2014 level23_spatial_Clio 14_56 log.txt,37,37,1217,72.0,5.0,2014-07-17,False,colocated,right
65,680.2238,0,460,1105,2857,4205,601,-15.0,200,1,0,681.1006,0,1,17_07_2014 level23_spatial_Clio 14_56 log.txt,37,37,1217,72.0,5.0,2014-07-17,False,colocated,right
67,692.7132,0,460,1105,2857,4205,851,-15.0,200,1,1,693.9931,1,4,17_07_2014 level23_spatial_Clio 14_56 log.txt,37,37,1217,72.0,5.0,2014-07-17,False,single_speaker,left
68,697.6682,0,730,2058,2857,4205,651,-15.0,200,0,0,698.438,1,0,17_07_2014 level23_spatial_Clio 14_56 log.txt,37,37,1217,72.0,5.0,2014-07-17,False,colocated,left
69,703.0884,0,460,1105,2857,4205,751,-15.0,200,1,0,704.3364,0,0,17_07_2014 level23_spatial_Clio 14_56 log.txt,37,37,1217,72.0,5.0,2014-07-17,False,colocated,left
71,729.0408,0,730,2058,2857,4205,901,-15.0,200,0,1,733.9692,0,0,17_07_2014 level23_spatial_Clio 14_56 log.txt,37,37,1217,72.0,5.0,2014-07-17,False,colocated,left
73,755.7761,0,460,1105,2857,4205,951,-15.0,200,1,1,756.1076,1,5,17_07_2014 level23_spatial_Clio 14_56 log.txt,37,37,1217,72.0,5.0,2014-07-17,False,single_speaker,right
74,778.8751,0,730,2058,2857,4205,1001,-15.0,200,0,1,779.1671,0,2,17_07_2014 level23_spatial_Clio 14_56 log.txt,37,37,1217,72.0,5.0,2014-07-17,False,separated,left
76,792.7366,0,460,1105,2857,4205,801,-15.0,200,1,1,793.0858,1,0,17_07_2014 level23_spatial_Clio 14_56 log.txt,37,37,1217,72.0,5.0,2014-07-17,False,colocated,left
77,818.0905,1,730,2058,2857,4205,1001,-15.0,200,0,1,819.1229,0,3,17_07_2014 level23_spatial_Clio 14_56 log.txt,37,37,1217,72.0,5.0,2014-07-17,False,separated,right
80,856.8976,0,730,2058,2857,4205,751,-15.0,200,0,0,857.9763,1,0,17_07_2014 level23_spatial_Clio 14_56 log.txt,37,37,1217,72.0,5.0,2014-07-17,False,colocated,left
81,867.7118,0,730,2058,2857,4205,601,-15.0,200,0,0,868.9295,1,3,17_07_2014 level23_spatial_Clio 14_56 log.txt,37,37,1217,72.0,5.0,2014-07-17,False,separated,right
82,873.9863,0,460,1105,2857,4205,801,-15.0,200,1,1,874.7503,1,3,17_07_2014 level23_spatial_Clio 14_56 log.txt,37,37,1217,72.0,5.0,2014-07-17,False,separated,right
83,881.1426,0,460,1105,2857,4205,701,-15.0,200,1,1,881.7019,1,1,17_07_2014 level23_spatial_Clio 14_56 log.txt,37,37,1217,72.0,5.0,2014-07-17,False,colocated,right
84,892.3529,0,460,1105,2857,4205,951,-15.0,200,1,1,892.9012,1,4,17_07_2014 level23_spatial_Clio 14_56 log.txt,37,37,1217,72.0,5.0,2014-07-17,False,single_speaker,left
85,899.951,0,730,2058,2857,4205,851,-15.0,200,0,0,900.7257,1,4,17_07_2014 level23_spatial_Clio 14_56 log.txt,37,37,1217,72.0,5.0,2014-07-17,False,single_speaker,left
86,905.6705,0,730,2058,2857,4205,551,-15.0,200,0,0,906.6196,1,2,17_07_2014 level23_spatial_Clio 14_56 log.txt,37,37,1217,72.0,5.0,2014-07-17,False,separated,left
87,916.8471,0,460,1105,2857,4205,901,-15.0,200,1,1,917.2571,1,0,17_07_2014 level23_spatial_Clio 14_56 log.txt,37,37,1217,72.0,5.0,2014-07-17,False,colocated,left
88,920.8056,0,730,2058,2857,4205,501,-15.0,200,0,0,922.0095,1,4,17_07_2014 level23_spatial_Clio 14_56 log.txt,37,37,1217,72.0,5.0,2014-07-17,False,single_speaker,left
89,927.0156,0,730,2058,2857,4205,801,-15.0,200,0,1,927.4317,0,1,17_07_2014 level23_spatial_Clio 14_56 log.txt,37,37,1217,72.0,5.0,2014-07-17,False,colocated,right
91,945.2074,0,460,1105,2857,4205,901,-15.0,200,1,1,945.7435,1,5,17_07_2014 level23_spatial_Clio 14_56 log.txt,37,37,1217,72.0,5.0,2014-07-17,False,single_speaker,right
92,957.2711,0,460,1105,2857,4205,851,-15.0,200,1,1,957.7497,1,2,17_07_2014 level23_spatial_Clio 14_56 log.txt,37,37,1217,72.0,5.0,2014-07-17,False,separated,left
93,961.4298,0,730,2058,2857,4205,651,-15.0,200,0,0,962.645,1,1,17_07_2014 level23_spatial_Clio 14_56 log.txt,37,37,1217,72.0,5.0,2014-07-17,False,colocated,right
94,968.7092,0,730,2058,2857,4205,601,-15.0,200,0,0,970.2819,1,3,17_07_2014 level23_spatial_Clio 14_56 log.txt,37,37,1217,72.0,5.0,2014-07-17,False,separated,right
95,975.3416,0,730,2058,2857,4205,701,-15.0,200,0,0,975.7974,1,2,17_07_2014 level23_spatial_Clio 14_56 log.txt,37,37,1217,72.0,5.0,2014-07-17,False,separated,left
96,981.2392,0,730,2058,2857,4205,751,-15.0,200,0,0,982.754,1,5,17_07_2014 level23_spatial_Clio 14_56 log.txt,37,37,1217,72.0,5.0,2014-07-17,False,single_speaker,right
97,988.1389,0,460,1105,2857,4205,551,-15.0,200,1,1,988.631,1,2,17_07_2014 level23_spatial_Clio 14_56 log.txt,37,37,1217,72.0,5.0,2014-07-17,False,separated,left
98,992.4792,0,730,2058,2857,4205,1001,-15.0,200,0,0,993.1667,1,4,17_07_2014 level23_spatial_Clio 14_56 log.txt,37,37,1217,72.0,5.0,2014-07-17,False,single_speaker,left
99,998.3746,0,460,1105,2857,4205,501,-15.0,200,1,1,998.9639,1,5,17_07_2014 level23_spatial_Clio 14_56 log.txt,37,37,1217,72.0,5.0,2014-07-17,False,single_speaker,right
100,1002.9851,0,460,1105,2857,4205,851,-15.0,200,1,1,1003.4151,1,3,17_07_2014 level23_spatial_Clio 14_56 log.txt,37,37,1217,72.0,5.0,2014-07-17,False,separated,right
101,1011.2352,0,730,2058,2857,4205,901,-15.0,200,0,0,1012.8238,1,5,17_07_2014 level23_spatial_Clio 14_56 log.txt,37,37,1217,72.0,5.0,2014-07-17,False,single_speaker,right
102,1018.0393,0,460,1105,2857,4205,751,-15.0,200,1,1,1018.9308,1,4,17_07_2014 level23_spatial_Clio 14_56 log.txt,37,37,1217,72.0,5.0,2014-07-17,False,single_speaker,left
103,1022.6651,0,730,2058,2857,4205,1001,-15.0,200,0,0,1023.4576,1,4,17_07_2014 level23_spatial_Clio 14_56 log.txt,37,37,1217,72.0,5.0,2014-07-17,False,single_speaker,left
104,1028.4501,1,730,2058,2857,4205,601,-15.0,200,0,0,1031.7245,1,1,17_07_2014 level23_spatial_Clio 14_56 log.txt,37,37,1217,72.0,5.0,2014-07-17,False,colocated,right
105,1037.3313,0,460,1105,2857,4205,501,-15.0,200,1,1,1038.1955,1,4,17_07_2014 level23_spatial_Clio 14_56 log.txt,37,37,1217,72.0,5.0,2014-07-17,False,single_speaker,left
106,1041.9047,0,730,2058,2857,4205,701,-15.0,200,0,0,1043.1986,1,3,17_07_2014 level23_spatial_Clio 14_56 log.txt,37,37,1217,72.0,5.0,2014-07-17,False,separated,right
107,1048.0603,0,730,2058,2857,4205,551,-15.0,200,0,0,1049.5227,1,2,17_07_2014 level23_spatial_Clio 14_56 log.txt,37,37,1217,72.0,5.0,2014-07-17,False,separated,left
108,1055.5139,0,730,2058,2857,4205,651,-15.0,200,0,0,1056.799,1,5,17_07_2014 level23_spatial_Clio 14_56 log.txt,37,37,1217,72.0,5.0,2014-07-17,False,single_speaker,right
109,1062.0895,0,460,1105,2857,4205,801,-15.0,200,1,1,1062.4714,1,0,17_07_2014 level23_spatial_Clio 14_56 log.txt,37,37,1217,72.0,5.0,2014-07-17,False,colocated,left
110,1066.9653,0,460,1105,2857,4205,751,-15.0,200,1,1,1067.3353,1,5,17_07_2014 level23_spatial_Clio 14_56 log.txt,37,37,1217,72.0,5.0,2014-07-17,False,single_speaker,right
111,1076.2636,0,460,1105,2857,4205,801,-15.0,200,1,0,1077.0783,0,1,17_07_2014 level23_spatial_Clio 14_56 log.txt,37,37,1217,72.0,5.0,2014-07-17,False,colocated,right
113,1101.6951,0,460,1105,2857,4205,901,-15.0,200,1,1,1102.1495,1,3,17_07_2014 level23_spatial_Clio 14_56 log.txt,37,37,1217,72.0,5.0,2014-07-17,False,separated,right
114,1118.1807,0,460,1105,2857,4205,1001,-15.0,200,1,1,1118.7211,1,0,17_07_2014 level23_spatial_Clio 14_56 log.txt,37,37,1217,72.0,5.0,2014-07-17,False,colocated,left
115,1126.3241,0,460,1105,2857,4205,951,-15.0,200,1,1,1126.6589,1,2,17_07_2014 level23_spatial_Clio 14_56 log.txt,37,37,1217,72.0,5.0,2014-07-17,False,separated,left
116,1131.7021,0,460,1105,2857,4205,601,-15.0,200,1,1,1132.2705,1,1,17_07_2014 level23_spatial_Clio 14_56 log.txt,37,37,1217,72.0,5.0,2014-07-17,False,colocated,right
117,1136.0919,1,730,2058,2857,4205,501,-15.0,200,0,0,1137.4436,1,0,17_07_2014 level23_spatial_Clio 14_56 log.txt,37,37,1217,72.0,5.0,2014-07-17,False,colocated,left
118,1141.8181,0,730,2058,2857,4205,701,-15.0,200,0,0,1144.5714,1,0,17_07_2014 level23_spatial_Clio 14_56 log.txt,37,37,1217,72.0,5.0,2014-07-17,False,colocated,left
119,1150.1213,0,460,1105,2857,4205,851,-15.0,200,1,1,1151.1507,1,3,17_07_2014 level23_spatial_Clio 14_56 log.txt,37,37,1217,72.0,5.0,2014-07-17,False,separated,right
120,1155.0801,0,730,2058,2857,4205,551,-15.0,200,0,1,1155.6885,0,1,17_07_2014 level23_spatial_Clio 14_56 log.txt,37,37,1217,72.0,5.0,2014-07-17,False,colocated,right
123,1170.5328,0,730,2058,2857,4205,1001,-15.0,200,0,0,1171.2419,1,4,17_07_2014 level23_spatial_Clio 14_56 log.txt,37,37,1217,72.0,5.0,2014-07-17,False,single_speaker,left
124,1176.0956,0,730,2058,2857,4205,801,-15.0,200,0,1,1176.5771,0,3,17_07_2014 level23_spatial_Clio 14_56 log.txt,37,37,1217,72.0,5.0,2014-07-17,False,separated,right
126,1194.6441,0,460,1105,2857,4205,751,-15.0,200,1,1,1195.2791,1,3,17_07_2014 level23_spatial_Clio 14_56 log.txt,37,37,1217,72.0,5.0,2014-07-17,False,separated,right
127,1206.1963,0,460,1105,2857,4205,701,-15.0,200,1,1,1206.5722,1,4,17_07_2014 level23_spatial_Clio 14_56 log.txt,37,37,1217,72.0,5.0,2014-07-17,False,single_speaker,left
128,1215.6333,0,730,2058,2857,4205,851,-15.0,200,0,0,1217.1508,1,5,17_07_2014 level23_spatial_Clio 14_56 log.txt,37,37,1217,72.0,5.0,2014-07-17,False,single_speaker,right
129,1221.2568,1,730,2058,2857,4205,551,-15.0,200,0,0,1222.0248,1,0,17_07_2014 level23_spatial_Clio 14_56 log.txt,37,37,1217,72.0,5.0,2014-07-17,False,colocated,left
130,1227.1297,0,730,2058,2857,4205,951,-15.0,200,0,1,1229.463,0,3,17_07_2014 level23_spatial_Clio 14_56 log.txt,37,37,1217,72.0,5.0,2014-07-17,False,separated,right
132,1252.0577,0,460,1105,2857,4205,901,-15.0,200,1,1,1252.5153,1,5,17_07_2014 level23_spatial_Clio 14_56 log.txt,37,37,1217,72.0,5.0,2014-07-17,False,single_speaker,right
133,1258.4229,0,460,1105,2857,4205,601,-15.0,200,1,1,1258.8696,1,5,17_07_2014 level23_spatial_Clio 14_56 log.txt,37,37,1217,72.0,5.0,2014-07-17,False,single_speaker,right
134,1262.7605,1,730,2058,2857,4205,501,-15.0,200,0,0,1263.7697,1,2,17_07_2014 level23_spatial_Clio 14_56 log.txt,37,37,1217,72.0,5.0,2014-07-17,False,separated,left
135,1268.4851,0,730,2058,2857,4205,801,-15.0,200,0,0,1271.2345,1,2,17_07_2014 level23_spatial_Clio 14_56 log.txt,37,37,1217,72.0,5.0,2014-07-17,False,separated,left
136,1295.151,0,730,2058,2857,4205,901,-15.0,200,0,0,1296.5704,1,4,17_07_2014 level23_spatial_Clio 14_56 log.txt,37,37,1217,72.0,5.0,2014-07-17,False,single_speaker,left
137,1301.5304,0,730,2058,2857,4205,651,-15.0,200,0,1,1302.1874,0,1,17_07_2014 level23_spatial_Clio 14_56 log.txt,37,37,1217,72.0,5.0,2014-07-17,False,colocated,right
139,1312.9085,0,730,2058,2857,4205,751,-15.0,200,0,0,1315.871,1,5,17_07_2014 level23_spatial_Clio 14_56 log.txt,37,37,1217,72.0,5.0,2014-07-17,False,single_speaker,right
140,1320.6949,0,460,1105,2857,4205,701,-15.0,200,1,1,1321.6145,1,0,17_07_2014 level23_spatial_Clio 14_56 log.txt,37,37,1217,72.0,5.0,2014-07-17,False,colocated,left
141,1327.2895,0,460,1105,2857,4205,501,-15.0,200,1,1,1327.6301,1,2,17_07_2014 level23_spatial_Clio 14_56 log.txt,37,37,1217,72.0,5.0,2014-07-17,False,separated,left
142,1330.5654,0,460,1105,2857,4205,551,-15.0,200,1,1,1330.9984,1,2,17_07_2014 level23_spatial_Clio 14_56 log.txt,37,37,1217,72.0,5.0,2014-07-17,False,separated,left
143,1334.3001,0,460,1105,2857,4205,601,-15.0,200,1,1,1334.7548,1,1,17_07_2014 level23_spatial_Clio 14_56 log.txt,37,37,1217,72.0,5.0,2014-07-17,False,colocated,right
144,1338.8958,0,730,2058,2857,4205,951,-15.0,200,0,1,1339.421,0,0,17_07_2014 level23_spatial_Clio 14_56 log.txt,37,37,1217,72.0,5.0,2014-07-17,False,colocated,left
146,1391.9951,0,460,1105,2857,4205,1001,-15.0,200,1,0,1392.7737,0,2,17_07_2014 level23_spatial_Clio 14_56 log.txt,37,37,1217,72.0,5.0,2014-07-17,False,separated,left
148,1405.761,0,730,2058,2857,4205,851,-15.0,200,0,0,1407.4633,1,2,17_07_2014 level23_spatial_Clio 14_56 log.txt,37,37,1217,72.0,5.0,2014-07-17,False,separated,left
149,1411.7316,1,460,1105,2857,4205,701,-15.0,200,1,1,1412.1699,1,4,17_07_2014 level23_spatial_Clio 14_56 log.txt,37,37,1217,72.0,5.0,2014-07-17,False,single_speaker,left
150,1415.1238,1,460,1105,2857,4205,551,-15.0,200,1,1,1418.4068,1,2,17_07_2014 level23_spatial_Clio 14_56 log.txt,37,37,1217,72.0,5.0,2014-07-17,False,separated,left
151,1429.8577,0,460,1105,2857,4205,901,-15.0,200,1,1,1430.5701,1,0,17_07_2014 level23_spatial_Clio 14_56 log.txt,37,37,1217,72.0,5.0,2014-07-17,False,colocated,left
152,1434.1353,0,460,1105,2857,4205,951,-15.0,200,1,0,1435.698,0,2,17_07_2014 level23_spatial_Clio 14_56 log.txt,37,37,1217,72.0,5.0,2014-07-17,False,separated,left
155,1483.3839,1,730,2058,2857,4205,501,-15.0,200,0,1,1487.213,0,2,17_07_2014 level23_spatial_Clio 14_56 log.txt,37,37,1217,72.0,5.0,2014-07-17,False,separated,left
157,1498.4544,0,460,1105,2857,4205,651,-15.0,200,1,1,1499.1596,1,3,17_07_2014 level23_spatial_Clio 14_56 log.txt,37,37,1217,72.0,5.0,2014-07-17,False,separated,right
158,1502.7038,0,730,2058,2857,4205,601,-15.0,200,0,0,1503.8364,1,4,17_07_2014 level23_spatial_Clio 14_56 log.txt,37,37,1217,72.0,5.0,2014-07-17,False,single_speaker,left
159,1509.2475,1,460,1105,2857,4205,751,-15.0,200,1,1,1509.9684,1,3,17_07_2014 level23_spatial_Clio 14_56 log.txt,37,37,1217,72.0,5.0,2014-07-17,False,separated,right
160,1513.3997,0,730,2058,2857,4205,801,-15.0,200,0,0,1515.6827,1,4,17_07_2014 level23_spatial_Clio 14_56 log.txt,37,37,1217,72.0,5.0,2014-07-17,False,single_speaker,left
161,1520.4896,0,730,2058,2857,4205,601,-15.0,200,0,0,1522.0952,1,0,17_07_2014 level23_spatial_Clio 14_56 log.txt,37,37,1217,72.0,5.0,2014-07-17,False,colocated,left
162,1528.4437,0,460,1105,2857,4205,901,-15.0,200,1,1,1529.327,1,4,17_07_2014 level23_spatial_Clio 14_56 log.txt,37,37,1217,72.0,5.0,2014-07-17,False,single_speaker,left
163,1532.7556,0,730,2058,2857,4205,701,-15.0,200,0,0,1533.8249,1,3,17_07_2014 level23_spatial_Clio 14_56 log.txt,37,37,1217,72.0,5.0,2014-07-17,False,separated,right
164,1537.7793,0,730,2058,2857,4205,801,-15.0,200,0,0,1540.0442,1,0,17_07_2014 level23_spatial_Clio 14_56 log.txt,37,37,1217,72.0,5.0,2014-07-17,False,colocated,left
165,1545.1202,0,730,2058,2857,4205,501,-15.0,200,0,0,1546.9663,1,5,17_07_2014 level23_spatial_Clio 14_56 log.txt,37,37,1217,72.0,5.0,2014-07-17,False,single_speaker,right
166,1551.469,0,730,2058,2857,4205,951,-15.0,200,0,0,1552.4767,1,5,17_07_2014 level23_spatial_Clio 14_56 log.txt,37,37,1217,72.0,5.0,2014-07-17,False,single_speaker,right
167,1555.6241,0,730,2058,2857,4205,551,-15.0,200,0,1,1556.5508,0,1,17_07_2014 level23_spatial_Clio 14_56 log.txt,37,37,1217,72.0,5.0,2014-07-17,False,colocated,right
1,18.0675,0,730,2058,2857,4205,951,-15.0,200,0,1,18.8556,0,0,07_02_2014 level23_spatial_Clio 09_53 Block4-22.txt,37,37,1217,72.0,5.0,2014-02-07,False,colocated,left
3,38.9892,0,460,1105,2857,4205,901,-15.0,200,1,0,39.8973,0,2,07_02_2014 level23_spatial_Clio 09_53 Block4-22.txt,37,37,1217,72.0,5.0,2014-02-07,False,separated,left
5,62.6193,0,730,2058,2857,4205,751,-15.0,200,0,0,64.988,1,2,07_02_2014 level23_spatial_Clio 09_53 Block4-22.txt,37,37,1217,72.0,5.0,2014-02-07,False,separated,left
6,75.6691,1,730,2058,2857,4205,851,-15.0,200,0,1,76.4544,0,3,07_02_2014 level23_spatial_Clio 09_53 Block4-22.txt,37,37,1217,72.0,5.0,2014-02-07,False,separated,right
9,129.0272,0,730,2058,2857,4205,1001,-15.0,200,0,1,129.5373,0,0,07_02_2014 level23_spatial_Clio 09_53 Block4-22.txt,37,37,1217,72.0,5.0,2014-02-07,False,colocated,left
11,147.0302,0,460,1105,2857,4205,601,-15.0,200,1,1,147.4929,1,1,07_02_2014 level23_spatial_Clio 09_53 Block4-22.txt,37,37,1217,72.0,5.0,2014-02-07,False,colocated,right
12,152.8162,0,460,1105,2857,4205,701,-15.0,200,1,1,153.2392,1,3,07_02_2014 level23_spatial_Clio 09_53 Block4-22.txt,37,37,1217,72.0,5.0,2014-02-07,False,separated,right
13,158.7908,0,730,2058,2857,4205,551,-15.0,200,0,1,159.4588,0,3,07_02_2014 level23_spatial_Clio 09_53 Block4-22.txt,37,37,1217,72.0,5.0,2014-02-07,False,separated,right
15,171.0521,0,730,2058,2857,4205,501,-15.0,200,0,0,171.9325,1,0,07_02_2014 level23_spatial_Clio 09_53 Block4-22.txt,37,37,1217,72.0,5.0,2014-02-07,False,colocated,left
16,188.2422,0,730,2058,2857,4205,801,-15.0,200,0,0,189.997,1,1,07_02_2014 level23_spatial_Clio 09_53 Block4-22.txt,37,37,1217,72.0,5.0,2014-02-07,False,colocated,right
17,200.5251,0,460,1105,2857,4205,601,-15.0,200,1,1,201.0387,1,3,07_02_2014 level23_spatial_Clio 09_53 Block4-22.txt,37,37,1217,72.0,5.0,2014-02-07,False,separated,right
18,206.2698,0,460,1105,2857,4205,651,-15.0,200,1,1,206.8144,1,1,07_02_2014 level23_spatial_Clio 09_53 Block4-22.txt,37,37,1217,72.0,5.0,2014-02-07,False,colocated,right
19,211.0021,0,730,2058,2857,4205,851,-15.0,200,0,0,212.8456,1,2,07_02_2014 level23_spatial_Clio 09_53 Block4-22.txt,37,37,1217,72.0,5.0,2014-02-07,False,separated,left
20,220.5372,0,460,1105,2857,4205,901,-15.0,200,1,1,220.9427,1,3,07_02_2014 level23_spatial_Clio 09_53 Block4-22.txt,37,37,1217,72.0,5.0,2014-02-07,False,separated,right
21,224.8635,0,730,2058,2857,4205,751,-15.0,200,0,1,225.4243,0,2,07_02_2014 level23_spatial_Clio 09_53 Block4-22.txt,37,37,1217,72.0,5.0,2014-02-07,False,separated,left
23,248.9743,0,460,1105,2857,4205,951,-15.0,200,1,1,249.4601,1,2,07_02_2014 level23_spatial_Clio 09_53 Block4-22.txt,37,37,1217,72.0,5.0,2014-02-07,False,separated,left
24,253.8821,0,460,1105,2857,4205,551,-15.0,200,1,1,254.4691,1,0,07_02_2014 level23_spatial_Clio 09_53 Block4-22.txt,37,37,1217,72.0,5.0,2014-02-07,False,colocated,left
25,258.1446,0,460,1105,2857,4205,501,-15.0,200,1,1,258.9061,1,2,07_02_2014 level23_spatial_Clio 09_53 Block4-22.txt,37,37,1217,72.0,5.0,2014-02-07,False,separated,left
26,275.3519,1,730,2058,2857,4205,801,-15.0,200,0,0,276.0305,1,1,07_02_2014 level23_spatial_Clio 09_53 Block4-22.txt,37,37,1217,72.0,5.0,2014-02-07,False,colocated,right
27,281.5037,0,730,2058,2857,4205,1001,-15.0,200,0,0,287.1917,1,1,07_02_2014 level23_spatial_Clio 09_53 Block4-22.txt,37,37,1217,72.0,5.0,2014-02-07,False,colocated,right
28,292.6199,0,730,2058,2857,4205,901,-15.0,200,0,1,293.4285,0,3,07_02_2014 level23_spatial_Clio 09_53 Block4-22.txt,37,37,1217,72.0,5.0,2014-02-07,False,separated,right
31,312.5359,0,460,1105,2857,4205,501,-15.0,200,1,0,316.2032,0,0,07_02_2014 level23_spatial_Clio 09_53 Block4-22.txt,37,37,1217,72.0,5.0,2014-02-07,False,colocated,left
34,335.6345,0,460,1105,2857,4205,851,-15.0,200,1,1,336.1251,1,0,07_02_2014 level23_spatial_Clio 09_53 Block4-22.txt,37,37,1217,72.0,5.0,2014-02-07,False,colocated,left
35,345.2272,1,460,1105,2857,4205,1001,-15.0,200,1,0,346.3848,0,1,07_02_2014 level23_spatial_Clio 09_53 Block4-22.txt,37,37,1217,72.0,5.0,2014-02-07,False,colocated,right
37,364.2465,0,730,2058,2857,4205,601,-15.0,200,0,0,366.7996,1,2,07_02_2014 level23_spatial_Clio 09_53 Block4-22.txt,37,37,1217,72.0,5.0,2014-02-07,False,separated,left
38,373.519,0,460,1105,2857,4205,651,-15.0,200,1,1,374.0166,1,3,07_02_2014 level23_spatial_Clio 09_53 Block4-22.txt,37,37,1217,72.0,5.0,2014-02-07,False,separated,right
39,384.4134,0,730,2058,2857,4205,701,-15.0,200,0,0,385.4364,1,1,07_02_2014 level23_spatial_Clio 09_53 Block4-22.txt,37,37,1217,72.0,5.0,2014-02-07,False,colocated,right
40,415.6621,0,460,1105,2857,4205,951,-15.0,200,1,0,416.8602,0,3,07_02_2014 level23_spatial_Clio 09_53 Block4-22.txt,37,37,1217,72.0,5.0,2014-02-07,False,separated,right
42,428.4146,0,730,2058,2857,4205,551,-15.0,200,0,0,430.1511,1,3,07_02_2014 level23_spatial_Clio 09_53 Block4-22.txt,37,37,1217,72.0,5.0,2014-02-07,False,separated,right
43,435.6994,0,460,1105,2857,4205,801,-15.0,200,1,0,436.6806,0,2,07_02_2014 level23_spatial_Clio 09_53 Block4-22.txt,37,37,1217,72.0,5.0,2014-02-07,False,separated,left
45,450.1063,0,460,1105,2857,4205,801,-15.0,200,1,0,452.1066,0,0,07_02_2014 level23_spatial_Clio 09_53 Block4-22.txt,37,37,1217,72.0,5.0,2014-02-07,False,colocated,left
48,473.458,0,460,1105,2857,4205,851,-15.0,200,1,1,473.9482,1,1,07_02_2014 level23_spatial_Clio 09_53 Block4-22.txt,37,37,1217,72.0,5.0,2014-02-07,False,colocated,right
49,481.6635,0,730,2058,2857,4205,751,-15.0,200,0,0,483.3206,1,3,07_02_2014 level23_spatial_Clio 09_53 Block4-22.txt,37,37,1217,72.0,5.0,2014-02-07,False,separated,right
50,488.4666,0,730,2058,2857,4205,551,-15.0,200,0,0,489.7597,1,1,07_02_2014 level23_spatial_Clio 09_53 Block4-22.txt,37,37,1217,72.0,5.0,2014-02-07,False,colocated,right
51,499.7304,0,730,2058,2857,4205,501,-15.0,200,0,1,500.2805,0,3,07_02_2014 level23_spatial_Clio 09_53 Block4-22.txt,37,37,1217,72.0,5.0,2014-02-07,False,separated,right
55,524.1334,0,730,2058,2857,4205,651,-15.0,200,0,0,525.6938,1,2,07_02_2014 level23_spatial_Clio 09_53 Block4-22.txt,37,37,1217,72.0,5.0,2014-02-07,False,separated,left
56,541.6797,0,460,1105,2857,4205,1001,-15.0,200,1,1,542.236,1,3,07_02_2014 level23_spatial_Clio 09_53 Block4-22.txt,37,37,1217,72.0,5.0,2014-02-07,False,separated,right
57,548.1155,0,460,1105,2857,4205,701,-15.0,200,1,0,548.8074,0,0,07_02_2014 level23_spatial_Clio 09_53 Block4-22.txt,37,37,1217,72.0,5.0,2014-02-07,False,colocated,left
60,577.0953,0,460,1105,2857,4205,951,-15.0,200,1,0,578.3485,0,1,07_02_2014 level23_spatial_Clio 09_53 Block4-22.txt,37,37,1217,72.0,5.0,2014-02-07,False,colocated,right
62,602.9738,0,730,2058,2857,4205,901,-15.0,200,0,0,603.9287,1,0,07_02_2014 level23_spatial_Clio 09_53 Block4-22.txt,37,37,1217,72.0,5.0,2014-02-07,False,colocated,left
63,614.6612,0,460,1105,2857,4205,951,-15.0,200,1,1,615.107,1,1,07_02_2014 level23_spatial_Clio 09_53 Block4-22.txt,37,37,1217,72.0,5.0,2014-02-07,False,colocated,right
64,620.1348,1,460,1105,2857,4205,701,-15.0,200,1,1,620.8019,1,0,07_02_2014 level23_spatial_Clio 09_53 Block4-22.txt,37,37,1217,72.0,5.0,2014-02-07,False,colocated,left
65,624.4009,0,730,2058,2857,4205,501,-15.0,200,0,1,626.712,0,2,07_02_2014 level23_spatial_Clio 09_53 Block4-22.txt,37,37,1217,72.0,5.0,2014-02-07,False,separated,left
67,645.1068,0,730,2058,2857,4205,1001,-15.0,200,0,0,646.6481,1,1,07_02_2014 level23_spatial_Clio 09_53 Block4-22.txt,37,37,1217,72.0,5.0,2014-02-07,False,colocated,right
68,651.9041,0,460,1105,2857,4205,851,-15.0,200,1,0,652.5899,0,2,07_02_2014 level23_spatial_Clio 09_53 Block4-22.txt,37,37,1217,72.0,5.0,2014-02-07,False,separated,left
70,671.419,0,730,2058,2857,4205,601,-15.0,200,0,0,672.5029,1,0,07_02_2014 level23_spatial_Clio 09_53 Block4-22.txt,37,37,1217,72.0,5.0,2014-02-07,False,colocated,left
71,677.2607,0,730,2058,2857,4205,551,-15.0,200,0,0,677.8653,1,0,07_02_2014 level23_spatial_Clio 09_53 Block4-22.txt,37,37,1217,72.0,5.0,2014-02-07,False,colocated,left
72,684.9097,1,460,1105,2857,4205,801,-15.0,200,1,0,686.0842,0,2,07_02_2014 level23_spatial_Clio 09_53 Block4-22.txt,37,37,1217,72.0,5.0,2014-02-07,False,separated,left
74,705.7049,1,460,1105,2857,4205,651,-15.0,200,1,1,706.3396,1,3,07_02_2014 level23_spatial_Clio 09_53 Block4-22.txt,37,37,1217,72.0,5.0,2014-02-07,False,separated,right
75,711.8753,0,460,1105,2857,4205,901,-15.0,200,1,1,713.9471,1,0,07_02_2014 level23_spatial_Clio 09_53 Block4-22.txt,37,37,1217,72.0,5.0,2014-02-07,False,colocated,left
76,732.112,0,730,2058,2857,4205,901,-15.0,200,0,0,733.0116,1,3,07_02_2014 level23_spatial_Clio 09_53 Block4-22.txt,37,37,1217,72.0,5.0,2014-02-07,False,separated,right
77,742.2687,0,460,1105,2857,4205,801,-15.0,200,1,1,742.6611,1,1,07_02_2014 level23_spatial_Clio 09_53 Block4-22.txt,37,37,1217,72.0,5.0,2014-02-07,False,colocated,right
78,747.6547,0,460,1105,2857,4205,951,-15.0,200,1,1,748.0884,1,0,07_02_2014 level23_spatial_Clio 09_53 Block4-22.txt,37,37,1217,72.0,5.0,2014-02-07,False,colocated,left
79,752.6547,0,460,1105,2857,4205,601,-15.0,200,1,1,753.2036,1,2,07_02_2014 level23_spatial_Clio 09_53 Block4-22.txt,37,37,1217,72.0,5.0,2014-02-07,False,separated,left
80,756.8518,0,730,2058,2857,4205,501,-15.0,200,0,0,759.0058,1,1,07_02_2014 level23_spatial_Clio 09_53 Block4-22.txt,37,37,1217,72.0,5.0,2014-02-07,False,colocated,right
81,763.3496,0,730,2058,2857,4205,551,-15.0,200,0,0,765.0033,1,1,07_02_2014 level23_spatial_Clio 09_53 Block4-22.txt,37,37,1217,72.0,5.0,2014-02-07,False,colocated,right
82,779.5703,0,460,1105,2857,4205,751,-15.0,200,1,1,780.0214,1,2,07_02_2014 level23_spatial_Clio 09_53 Block4-22.txt,37,37,1217,72.0,5.0,2014-02-07,False,separated,left
83,805.6351,0,460,1105,2857,4205,1001,-15.0,200,1,1,806.1466,1,1,07_02_2014 level23_spatial_Clio 09_53 Block4-22.txt,37,37,1217,72.0,5.0,2014-02-07,False,colocated,right
84,812.5217,0,730,2058,2857,4205,851,-15.0,200,0,1,813.2251,0,2,07_02_2014 level23_spatial_Clio 09_53 Block4-22.txt,37,37,1217,72.0,5.0,2014-02-07,False,separated,left
86,836.0289,0,460,1105,2857,4205,651,-15.0,200,1,1,836.562,1,0,07_02_2014 level23_spatial_Clio 09_53 Block4-22.txt,37,37,1217,72.0,5.0,2014-02-07,False,colocated,left
87,854.8884,1,730,2058,2857,4205,801,-15.0,200,0,0,855.6187,1,0,07_02_2014 level23_spatial_Clio 09_53 Block4-22.txt,37,37,1217,72.0,5.0,2014-02-07,False,colocated,left
88,860.3257,0,460,1105,2857,4205,751,-15.0,200,1,0,864.4515,0,3,07_02_2014 level23_spatial_Clio 09_53 Block4-22.txt,37,37,1217,72.0,5.0,2014-02-07,False,separated,right
90,880.0572,0,460,1105,2857,4205,651,-15.0,200,1,1,880.482,1,1,07_02_2014 level23_spatial_Clio 09_53 Block4-22.txt,37,37,1217,72.0,5.0,2014-02-07,False,colocated,right
91,889.6365,0,730,2058,2857,4205,901,-15.0,200,0,0,890.5169,1,0,07_02_2014 level23_spatial_Clio 09_53 Block4-22.txt,37,37,1217,72.0,5.0,2014-02-07,False,colocated,left
92,901.1029,0,730,2058,2857,4205,701,-15.0,200,0,0,903.0651,1,3,07_02_2014 level23_spatial_Clio 09_53 Block4-22.txt,37,37,1217,72.0,5.0,2014-02-07,False,separated,right
93,904.7799,0,730,2058,2857,4205,951,-15.0,200,0,0,907.2771,1,3,07_02_2014 level23_spatial_Clio 09_53 Block4-22.txt,37,37,1217,72.0,5.0,2014-02-07,False,separated,right
94,912.4118,0,730,2058,2857,4205,501,-15.0,200,0,0,914.5317,1,1,07_02_2014 level23_spatial_Clio 09_53 Block4-22.txt,37,37,1217,72.0,5.0,2014-02-07,False,colocated,right
95,933.9918,0,730,2058,2857,4205,851,-15.0,200,0,0,935.1667,1,2,07_02_2014 level23_spatial_Clio 09_53 Block4-22.txt,37,37,1217,72.0,5.0,2014-02-07,False,separated,left
96,940.668,0,460,1105,2857,4205,1001,-15.0,200,1,1,941.3331,1,2,07_02_2014 level23_spatial_Clio 09_53 Block4-22.txt,37,37,1217,72.0,5.0,2014-02-07,False,separated,left
97,944.6048,0,730,2058,2857,4205,551,-15.0,200,0,1,945.3827,0,0,07_02_2014 level23_spatial_Clio 09_53 Block4-22.txt,37,37,1217,72.0,5.0,2014-02-07,False,colocated,left
99,955.8702,0,730,2058,2857,4205,501,-15.0,200,0,0,957.1725,1,2,07_02_2014 level23_spatial_Clio 09_53 Block4-22.txt,37,37,1217,72.0,5.0,2014-02-07,False,separated,left
100,962.4456,0,460,1105,2857,4205,551,-15.0,200,1,1,962.9525,1,3,07_02_2014 level23_spatial_Clio 09_53 Block4-22.txt,37,37,1217,72.0,5.0,2014-02-07,False,separated,right
101,971.4618,0,730,2058,2857,4205,801,-15.0,200,0,0,972.7282,1,0,07_02_2014 level23_spatial_Clio 09_53 Block4-22.txt,37,37,1217,72.0,5.0,2014-02-07,False,colocated,left
102,995.0314,0,730,2058,2857,4205,951,-15.0,200,0,1,995.7242,0,1,07_02_2014 level23_spatial_Clio 09_53 Block4-22.txt,37,37,1217,72.0,5.0,2014-02-07,False,colocated,right
105,1044.474,1,460,1105,2857,4205,851,-15.0,200,1,0,1045.1649,0,0,07_02_2014 level23_spatial_Clio 09_53 Block4-22.txt,37,37,1217,72.0,5.0,2014-02-07,False,colocated,left
108,1066.295,0,730,2058,2857,4205,601,-15.0,200,0,0,1067.4593,1,0,07_02_2014 level23_spatial_Clio 09_53 Block4-22.txt,37,37,1217,72.0,5.0,2014-02-07,False,colocated,left
109,1079.165,0,730,2058,2857,4205,901,-15.0,200,0,0,1079.8987,1,2,07_02_2014 level23_spatial_Clio 09_53 Block4-22.txt,37,37,1217,72.0,5.0,2014-02-07,False,separated,left
110,1085.4189,1,460,1105,2857,4205,751,-15.0,200,1,0,1086.6677,0,0,07_02_2014 level23_spatial_Clio 09_53 Block4-22.txt,37,37,1217,72.0,5.0,2014-02-07,False,colocated,left
112,1108.933,0,460,1105,2857,4205,651,-15.0,200,1,1,1109.4905,1,1,07_02_2014 level23_spatial_Clio 09_53 Block4-22.txt,37,37,1217,72.0,5.0,2014-02-07,False,colocated,right
113,1113.0184,1,730,2058,2857,4205,701,-15.0,200,0,1,1113.6002,0,3,07_02_2014 level23_spatial_Clio 09_53 Block4-22.txt,37,37,1217,72.0,5.0,2014-02-07,False,separated,right
115,1131.2452,1,730,2058,2857,4205,551,-15.0,200,0,0,1132.6408,1,0,07_02_2014 level23_spatial_Clio 09_53 Block4-22.txt,37,37,1217,72.0,5.0,2014-02-07,False,colocated,left
116,1137.8987,0,730,2058,2857,4205,901,-15.0,200,0,0,1142.1394,1,1,07_02_2014 level23_spatial_Clio 09_53 Block4-22.txt,37,37,1217,72.0,5.0,2014-02-07,False,colocated,right
117,1152.0534,0,730,2058,2857,4205,651,-15.0,200,0,1,1152.4864,0,3,07_02_2014 level23_spatial_Clio 09_53 Block4-22.txt,37,37,1217,72.0,5.0,2014-02-07,False,separated,right
120,1177.6199,0,730,2058,2857,4205,851,-15.0,200,0,0,1178.8727,1,2,07_02_2014 level23_spatial_Clio 09_53 Block4-22.txt,37,37,1217,72.0,5.0,2014-02-07,False,separated,left
121,1231.0378,0,460,1105,2857,4205,751,-15.0,200,1,1,1234.598,1,1,07_02_2014 level23_spatial_Clio 09_53 Block4-22.txt,37,37,1217,72.0,5.0,2014-02-07,False,colocated,right
1,26.8107,0,730,2058,2857,4205,601,-15.0,200,0,1,30.207,0,2,18_07_2014 level23_spatial_Clio 15_56 log.txt,37,37,1217,72.0,5.0,2014-07-18,False,separated,left
4,51.7723,0,460,1105,2857,4205,801,-15.0,200,1,0,54.3283,0,3,18_07_2014 level23_spatial_Clio 15_56 log.txt,37,37,1217,72.0,5.0,2014-07-18,False,separated,right
6,71.1936,0,460,1105,2857,4205,851,-15.0,200,1,0,72.7944,0,2,18_07_2014 level23_spatial_Clio 15_56 log.txt,37,37,1217,72.0,5.0,2014-07-18,False,separated,left
9,101.6675,0,460,1105,2857,4205,1001,-15.0,200,1,0,103.0118,0,0,18_07_2014 level23_spatial_Clio 15_56 log.txt,37,37,1217,72.0,5.0,2014-07-18,False,colocated,left
11,130.5439,0,460,1105,2857,4205,651,-15.0,200,1,1,131.027,1,2,18_07_2014 level23_spatial_Clio 15_56 log.txt,37,37,1217,72.0,5.0,2014-07-18,False,separated,left
12,142.281,0,460,1105,2857,4205,551,-15.0,200,1,1,143.0948,1,5,18_07_2014 level23_spatial_Clio 15_56 log.txt,37,37,1217,72.0,5.0,2014-07-18,False,single_speaker,right
13,151.5353,0,460,1105,2857,4205,901,-15.0,200,1,0,152.6004,0,0,18_07_2014 level23_spatial_Clio 15_56 log.txt,37,37,1217,72.0,5.0,2014-07-18,False,colocated,left
15,191.9632,0,730,2058,2857,4205,951,-15.0,200,0,1,192.2481,0,3,18_07_2014 level23_spatial_Clio 15_56 log.txt,37,37,1217,72.0,5.0,2014-07-18,False,separated,right
17,210.2002,0,460,1105,2857,4205,751,-15.0,200,1,0,213.3513,0,1,18_07_2014 level23_spatial_Clio 15_56 log.txt,37,37,1217,72.0,5.0,2014-07-18,False,colocated,right
19,220.8508,0,460,1105,2857,4205,701,-15.0,200,1,1,221.3188,1,5,18_07_2014 level23_spatial_Clio 15_56 log.txt,37,37,1217,72.0,5.0,2014-07-18,False,single_speaker,right
20,244.9389,0,730,2058,2857,4205,651,-15.0,200,0,0,247.5801,1,4,18_07_2014 level23_spatial_Clio 15_56 log.txt,37,37,1217,72.0,5.0,2014-07-18,False,single_speaker,left
21,258.2613,0,730,2058,2857,4205,601,-15.0,200,0,0,259.0444,1,3,18_07_2014 level23_spatial_Clio 15_56 log.txt,37,37,1217,72.0,5.0,2014-07-18,False,separated,right
22,264.9422,0,730,2058,2857,4205,751,-15.0,200,0,0,265.8369,1,5,18_07_2014 level23_spatial_Clio 15_56 log.txt,37,37,1217,72.0,5.0,2014-07-18,False,single_speaker,right
23,271.9652,0,460,1105,2857,4205,801,-15.0,200,1,0,272.7518,0,4,18_07_2014 level23_spatial_Clio 15_56 log.txt,37,37,1217,72.0,5.0,2014-07-18,False,single_speaker,left
26,297.4009,0,460,1105,2857,4205,551,-15.0,200,1,0,299.1234,0,2,18_07_2014 level23_spatial_Clio 15_56 log.txt,37,37,1217,72.0,5.0,2014-07-18,False,separated,left
28,319.1762,0,730,2058,2857,4205,501,-15.0,200,0,0,324.5312,1,1,18_07_2014 level23_spatial_Clio 15_56 log.txt,37,37,1217,72.0,5.0,2014-07-18,False,colocated,right
29,367.0227,0,730,2058,2857,4205,1001,-15.0,200,0,1,371.3562,0,4,18_07_2014 level23_spatial_Clio 15_56 log.txt,37,37,1217,72.0,5.0,2014-07-18,False,single_speaker,left
31,386.7843,0,730,2058,2857,4205,851,-15.0,200,0,1,387.3889,0,0,18_07_2014 level23_spatial_Clio 15_56 log.txt,37,37,1217,72.0,5.0,2014-07-18,False,colocated,left
33,404.729,0,460,1105,2857,4205,901,-15.0,200,1,0,407.0083,0,1,18_07_2014 level23_spatial_Clio 15_56 log.txt,37,37,1217,72.0,5.0,2014-07-18,False,colocated,right
35,426.4679,1,460,1105,2857,4205,701,-15.0,200,1,1,429.6087,1,4,18_07_2014 level23_spatial_Clio 15_56 log.txt,37,37,1217,72.0,5.0,2014-07-18,False,single_speaker,left
36,439.2627,0,730,2058,2857,4205,651,-15.0,200,0,0,440.9348,1,5,18_07_2014 level23_spatial_Clio 15_56 log.txt,37,37,1217,72.0,5.0,2014-07-18,False,single_speaker,right
37,446.8603,0,460,1105,2857,4205,901,-15.0,200,1,0,448.4024,0,3,18_07_2014 level23_spatial_Clio 15_56 log.txt,37,37,1217,72.0,5.0,2014-07-18,False,separated,right
39,464.3241,0,460,1105,2857,4205,601,-15.0,200,1,1,465.396,1,4,18_07_2014 level23_spatial_Clio 15_56 log.txt,37,37,1217,72.0,5.0,2014-07-18,False,single_speaker,left
40,474.4507,1,730,2058,2857,4205,1001,-15.0,200,0,0,475.3842,1,3,18_07_2014 level23_spatial_Clio 15_56 log.txt,37,37,1217,72.0,5.0,2014-07-18,False,separated,right
41,480.3455,0,460,1105,2857,4205,551,-15.0,200,1,0,482.9848,0,3,18_07_2014 level23_spatial_Clio 15_56 log.txt,37,37,1217,72.0,5.0,2014-07-18,False,separated,right
43,495.8345,0,460,1105,2857,4205,701,-15.0,200,1,1,497.3013,1,1,18_07_2014 level23_spatial_Clio 15_56 log.txt,37,37,1217,72.0,5.0,2014-07-18,False,colocated,right
44,501.1922,0,730,2058,2857,4205,851,-15.0,200,0,0,502.4296,1,0,18_07_2014 level23_spatial_Clio 15_56 log.txt,37,37,1217,72.0,5.0,2014-07-18,False,colocated,left
45,510.7495,0,730,2058,2857,4205,801,-15.0,200,0,0,512.0268,1,4,18_07_2014 level23_spatial_Clio 15_56 log.txt,37,37,1217,72.0,5.0,2014-07-18,False,single_speaker,left
46,524.2598,0,730,2058,2857,4205,951,-15.0,200,0,0,526.3536,1,0,18_07_2014 level23_spatial_Clio 15_56 log.txt,37,37,1217,72.0,5.0,2014-07-18,False,colocated,left
47,540.6605,0,730,2058,2857,4205,751,-15.0,200,0,0,542.1474,1,2,18_07_2014 level23_spatial_Clio 15_56 log.txt,37,37,1217,72.0,5.0,2014-07-18,False,separated,left
48,552.3855,0,730,2058,2857,4205,851,-15.0,200,0,0,553.0936,1,5,18_07_2014 level23_spatial_Clio 15_56 log.txt,37,37,1217,72.0,5.0,2014-07-18,False,single_speaker,right
49,565.7774,0,730,2058,2857,4205,1001,-15.0,200,0,0,566.4106,1,1,18_07_2014 level23_spatial_Clio 15_56 log.txt,37,37,1217,72.0,5.0,2014-07-18,False,colocated,right
50,571.7179,1,730,2058,2857,4205,551,-15.0,200,0,1,572.2679,0,1,18_07_2014 level23_spatial_Clio 15_56 log.txt,37,37,1217,72.0,5.0,2014-07-18,False,colocated,right
54,606.9874,0,460,1105,2857,4205,901,-15.0,200,1,0,608.5872,0,0,18_07_2014 level23_spatial_Clio 15_56 log.txt,37,37,1217,72.0,5.0,2014-07-18,False,colocated,left
57,640.33,0,730,2058,2857,4205,701,-15.0,200,0,0,642.2931,1,2,18_07_2014 level23_spatial_Clio 15_56 log.txt,37,37,1217,72.0,5.0,2014-07-18,False,separated,left
58,646.987,0,460,1105,2857,4205,751,-15.0,200,1,1,647.7702,1,5,18_07_2014 level23_spatial_Clio 15_56 log.txt,37,37,1217,72.0,5.0,2014-07-18,False,single_speaker,right
59,650.9259,0,730,2058,2857,4205,501,-15.0,200,0,0,652.1151,1,4,18_07_2014 level23_spatial_Clio 15_56 log.txt,37,37,1217,72.0,5.0,2014-07-18,False,single_speaker,left
60,656.5675,0,730,2058,2857,4205,651,-15.0,200,0,1,657.524,0,1,18_07_2014 level23_spatial_Clio 15_56 log.txt,37,37,1217,72.0,5.0,2014-07-18,False,colocated,right
62,677.5793,0,730,2058,2857,4205,951,-15.0,200,0,0,679.1645,1,0,18_07_2014 level23_spatial_Clio 15_56 log.txt,37,37,1217,72.0,5.0,2014-07-18,False,colocated,left
63,684.4318,0,460,1105,2857,4205,601,-15.0,200,1,1,685.1953,1,3,18_07_2014 level23_spatial_Clio 15_56 log.txt,37,37,1217,72.0,5.0,2014-07-18,False,separated,right
64,691.5165,0,460,1105,2857,4205,1001,-15.0,200,1,1,691.8137,1,4,18_07_2014 level23_spatial_Clio 15_56 log.txt,37,37,1217,72.0,5.0,2014-07-18,False,single_speaker,left
65,704.2923,0,730,2058,2857,4205,901,-15.0,200,0,0,705.8891,1,2,18_07_2014 level23_spatial_Clio 15_56 log.txt,37,37,1217,72.0,5.0,2014-07-18,False,separated,left
66,715.1068,0,460,1105,2857,4205,701,-15.0,200,1,1,715.4845,1,2,18_07_2014 level23_spatial_Clio 15_56 log.txt,37,37,1217,72.0,5.0,2014-07-18,False,separated,left
67,720.5807,0,730,2058,2857,4205,551,-15.0,200,0,1,721.448,0,5,18_07_2014 level23_spatial_Clio 15_56 log.txt,37,37,1217,72.0,5.0,2014-07-18,False,single_speaker,right
70,744.1275,0,730,2058,2857,4205,651,-15.0,200,0,0,744.9646,1,4,18_07_2014 level23_spatial_Clio 15_56 log.txt,37,37,1217,72.0,5.0,2014-07-18,False,single_speaker,left
71,752.5,0,460,1105,2857,4205,851,-15.0,200,1,1,752.9973,1,1,18_07_2014 level23_spatial_Clio 15_56 log.txt,37,37,1217,72.0,5.0,2014-07-18,False,colocated,right
72,758.3735,0,730,2058,2857,4205,501,-15.0,200,0,0,759.9389,1,3,18_07_2014 level23_spatial_Clio 15_56 log.txt,37,37,1217,72.0,5.0,2014-07-18,False,separated,right
73,764.4195,0,730,2058,2857,4205,951,-15.0,200,0,0,765.0927,1,1,18_07_2014 level23_spatial_Clio 15_56 log.txt,37,37,1217,72.0,5.0,2014-07-18,False,colocated,right
74,774.2421,0,460,1105,2857,4205,601,-15.0,200,1,1,774.6083,1,1,18_07_2014 level23_spatial_Clio 15_56 log.txt,37,37,1217,72.0,5.0,2014-07-18,False,colocated,right
75,790.4942,1,730,2058,2857,4205,801,-15.0,200,0,0,791.6463,1,5,18_07_2014 level23_spatial_Clio 15_56 log.txt,37,37,1217,72.0,5.0,2014-07-18,False,single_speaker,right
76,796.0301,0,460,1105,2857,4205,701,-15.0,200,1,0,798.1846,0,5,18_07_2014 level23_spatial_Clio 15_56 log.txt,37,37,1217,72.0,5.0,2014-07-18,False,single_speaker,right
78,808.6725,0,460,1105,2857,4205,801,-15.0,200,1,0,809.9419,0,2,18_07_2014 level23_spatial_Clio 15_56 log.txt,37,37,1217,72.0,5.0,2014-07-18,False,separated,left
80,833.6993,0,730,2058,2857,4205,951,-15.0,200,0,1,834.1197,0,3,18_07_2014 level23_spatial_Clio 15_56 log.txt,37,37,1217,72.0,5.0,2014-07-18,False,separated,right
82,856.0342,0,460,1105,2857,4205,1001,-15.0,200,1,1,856.4713,1,0,18_07_2014 level23_spatial_Clio 15_56 log.txt,37,37,1217,72.0,5.0,2014-07-18,False,colocated,left
83,867.0973,0,460,1105,2857,4205,901,-15.0,200,1,0,868.3765,0,0,18_07_2014 level23_spatial_Clio 15_56 log.txt,37,37,1217,72.0,5.0,2014-07-18,False,colocated,left
87,904.6478,0,460,1105,2857,4205,601,-15.0,200,1,1,912.7044,1,0,18_07_2014 level23_spatial_Clio 15_56 log.txt,37,37,1217,72.0,5.0,2014-07-18,False,colocated,left
88,918.5942,0,730,2058,2857,4205,501,-15.0,200,0,0,919.9703,1,5,18_07_2014 level23_spatial_Clio 15_56 log.txt,37,37,1217,72.0,5.0,2014-07-18,False,single_speaker,right
89,924.7628,0,460,1105,2857,4205,751,-15.0,200,1,1,925.4488,1,4,18_07_2014 level23_spatial_Clio 15_56 log.txt,37,37,1217,72.0,5.0,2014-07-18,False,single_speaker,left
90,934.5009,0,730,2058,2857,4205,851,-15.0,200,0,0,935.6122,1,0,18_07_2014 level23_spatial_Clio 15_56 log.txt,37,37,1217,72.0,5.0,2014-07-18,False,colocated,left
91,940.4184,1,730,2058,2857,4205,651,-15.0,200,0,0,941.041,1,2,18_07_2014 level23_spatial_Clio 15_56 log.txt,37,37,1217,72.0,5.0,2014-07-18,False,separated,left
92,946.0011,0,460,1105,2857,4205,551,-15.0,200,1,0,948.2872,0,4,18_07_2014 level23_spatial_Clio 15_56 log.txt,37,37,1217,72.0,5.0,2014-07-18,False,single_speaker,left
94,957.5968,0,460,1105,2857,4205,651,-15.0,200,1,1,958.0273,1,3,18_07_2014 level23_spatial_Clio 15_56 log.txt,37,37,1217,72.0,5.0,2014-07-18,False,separated,right
95,964.2146,0,730,2058,2857,4205,601,-15.0,200,0,0,965.0738,1,0,18_07_2014 level23_spatial_Clio 15_56 log.txt,37,37,1217,72.0,5.0,2014-07-18,False,colocated,left
96,977.9164,0,730,2058,2857,4205,1001,-15.0,200,0,0,979.0892,1,1,18_07_2014 level23_spatial_Clio 15_56 log.txt,37,37,1217,72.0,5.0,2014-07-18,False,colocated,right
97,986.6032,0,460,1105,2857,4205,751,-15.0,200,1,1,986.9658,1,5,18_07_2014 level23_spatial_Clio 15_56 log.txt,37,37,1217,72.0,5.0,2014-07-18,False,single_speaker,right
98,994.8721,0,730,2058,2857,4205,801,-15.0,200,0,0,995.7577,1,4,18_07_2014 level23_spatial_Clio 15_56 log.txt,37,37,1217,72.0,5.0,2014-07-18,False,single_speaker,left
99,1014.1821,0,460,1105,2857,4205,901,-15.0,200,1,1,1014.4832,1,3,18_07_2014 level23_spatial_Clio 15_56 log.txt,37,37,1217,72.0,5.0,2014-07-18,False,separated,right
100,1021.5736,0,730,2058,2857,4205,701,-15.0,200,0,0,1023.2176,1,3,18_07_2014 level23_spatial_Clio 15_56 log.txt,37,37,1217,72.0,5.0,2014-07-18,False,separated,right
101,1027.7751,0,460,1105,2857,4205,501,-15.0,200,1,1,1028.1851,1,1,18_07_2014 level23_spatial_Clio 15_56 log.txt,37,37,1217,72.0,5.0,2014-07-18,False,colocated,right
102,1032.8317,0,730,2058,2857,4205,851,-15.0,200,0,1,1033.1758,0,2,18_07_2014 level23_spatial_Clio 15_56 log.txt,37,37,1217,72.0,5.0,2014-07-18,False,separated,left
104,1050.6229,0,460,1105,2857,4205,651,-15.0,200,1,1,1050.9728,1,5,18_07_2014 level23_spatial_Clio 15_56 log.txt,37,37,1217,72.0,5.0,2014-07-18,False,single_speaker,right
105,1077.3834,0,460,1105,2857,4205,951,-15.0,200,1,1,1079.8401,1,2,18_07_2014 level23_spatial_Clio 15_56 log.txt,37,37,1217,72.0,5.0,2014-07-18,False,separated,left
106,1083.7801,0,460,1105,2857,4205,551,-15.0,200,1,1,1084.2796,1,3,18_07_2014 level23_spatial_Clio 15_56 log.txt,37,37,1217,72.0,5.0,2014-07-18,False,separated,right
107,1094.1336,0,730,2058,2857,4205,851,-15.0,200,0,0,1095.6807,1,1,18_07_2014 level23_spatial_Clio 15_56 log.txt,37,37,1217,72.0,5.0,2014-07-18,False,colocated,right
108,1100.6959,0,730,2058,2857,4205,751,-15.0,200,0,0,1102.216,1,0,18_07_2014 level23_spatial_Clio 15_56 log.txt,37,37,1217,72.0,5.0,2014-07-18,False,colocated,left
109,1107.2777,0,460,1105,2857,4205,801,-15.0,200,1,1,1107.776,1,5,18_07_2014 level23_spatial_Clio 15_56 log.txt,37,37,1217,72.0,5.0,2014-07-18,False,single_speaker,right
110,1127.0523,0,460,1105,2857,4205,901,-15.0,200,1,0,1127.7991,0,2,18_07_2014 level23_spatial_Clio 15_56 log.txt,37,37,1217,72.0,5.0,2014-07-18,False,separated,left
112,1156.0301,0,730,2058,2857,4205,1001,-15.0,200,0,0,1156.8662,1,3,18_07_2014 level23_spatial_Clio 15_56 log.txt,37,37,1217,72.0,5.0,2014-07-18,False,separated,right
113,1162.0907,0,460,1105,2857,4205,701,-15.0,200,1,1,1162.6792,1,0,18_07_2014 level23_spatial_Clio 15_56 log.txt,37,37,1217,72.0,5.0,2014-07-18,False,colocated,left
114,1165.7691,0,730,2058,2857,4205,601,-15.0,200,0,0,1166.7948,1,1,18_07_2014 level23_spatial_Clio 15_56 log.txt,37,37,1217,72.0,5.0,2014-07-18,False,colocated,right
115,1171.5169,0,730,2058,2857,4205,651,-15.0,200,0,0,1172.4565,1,5,18_07_2014 level23_spatial_Clio 15_56 log.txt,37,37,1217,72.0,5.0,2014-07-18,False,single_speaker,right
116,1177.0814,0,730,2058,2857,4205,501,-15.0,200,0,0,1177.7824,1,4,18_07_2014 level23_spatial_Clio 15_56 log.txt,37,37,1217,72.0,5.0,2014-07-18,False,single_speaker,left
117,1194.4867,0,460,1105,2857,4205,951,-15.0,200,1,1,1194.8338,1,0,18_07_2014 level23_spatial_Clio 15_56 log.txt,37,37,1217,72.0,5.0,2014-07-18,False,colocated,left
118,1199.6434,0,460,1105,2857,4205,701,-15.0,200,1,1,1200.0868,1,2,18_07_2014 level23_spatial_Clio 15_56 log.txt,37,37,1217,72.0,5.0,2014-07-18,False,separated,left
119,1211.9762,0,730,2058,2857,4205,751,-15.0,200,0,0,1213.3901,1,4,18_07_2014 level23_spatial_Clio 15_56 log.txt,37,37,1217,72.0,5.0,2014-07-18,False,single_speaker,left
120,1217.969,0,460,1105,2857,4205,551,-15.0,200,1,1,1218.3332,1,5,18_07_2014 level23_spatial_Clio 15_56 log.txt,37,37,1217,72.0,5.0,2014-07-18,False,single_speaker,right
121,1222.4321,0,460,1105,2857,4205,901,-15.0,200,1,0,1223.9073,0,4,18_07_2014 level23_spatial_Clio 15_56 log.txt,37,37,1217,72.0,5.0,2014-07-18,False,single_speaker,left
123,1242.0452,0,460,1105,2857,4205,801,-15.0,200,1,1,1242.4744,1,0,18_07_2014 level23_spatial_Clio 15_56 log.txt,37,37,1217,72.0,5.0,2014-07-18,False,colocated,left
124,1265.5255,0,460,1105,2857,4205,1001,-15.0,200,1,1,1265.9343,1,2,18_07_2014 level23_spatial_Clio 15_56 log.txt,37,37,1217,72.0,5.0,2014-07-18,False,separated,left
125,1270.0335,0,460,1105,2857,4205,601,-15.0,200,1,1,1270.4167,1,1,18_07_2014 level23_spatial_Clio 15_56 log.txt,37,37,1217,72.0,5.0,2014-07-18,False,colocated,right
126,1275.3584,0,730,2058,2857,4205,601,-15.0,200,0,0,1276.0183,1,0,18_07_2014 level23_spatial_Clio 15_56 log.txt,37,37,1217,72.0,5.0,2014-07-18,False,colocated,left
127,1280.9023,0,730,2058,2857,4205,751,-15.0,200,0,0,1281.6187,1,0,18_07_2014 level23_spatial_Clio 15_56 log.txt,37,37,1217,72.0,5.0,2014-07-18,False,colocated,left
128,1286.8782,1,730,2058,2857,4205,651,-15.0,200,0,0,1287.4789,1,2,18_07_2014 level23_spatial_Clio 15_56 log.txt,37,37,1217,72.0,5.0,2014-07-18,False,separated,left
129,1292.5666,0,730,2058,2857,4205,551,-15.0,200,0,0,1295.3511,1,4,18_07_2014 level23_spatial_Clio 15_56 log.txt,37,37,1217,72.0,5.0,2014-07-18,False,single_speaker,left
130,1299.6898,1,730,2058,2857,4205,901,-15.0,200,0,0,1300.255,1,3,18_07_2014 level23_spatial_Clio 15_56 log.txt,37,37,1217,72.0,5.0,2014-07-18,False,separated,right
131,1306.3588,0,730,2058,2857,4205,501,-15.0,200,0,0,1309.263,1,5,18_07_2014 level23_spatial_Clio 15_56 log.txt,37,37,1217,72.0,5.0,2014-07-18,False,single_speaker,right
132,1314.9225,0,730,2058,2857,4205,951,-15.0,200,0,0,1315.7433,1,5,18_07_2014 level23_spatial_Clio 15_56 log.txt,37,37,1217,72.0,5.0,2014-07-18,False,single_speaker,right
133,1320.8314,0,460,1105,2857,4205,701,-15.0,200,1,1,1321.36,1,3,18_07_2014 level23_spatial_Clio 15_56 log.txt,37,37,1217,72.0,5.0,2014-07-18,False,separated,right
134,1325.7692,0,730,2058,2857,4205,801,-15.0,200,0,0,1326.698,1,1,18_07_2014 level23_spatial_Clio 15_56 log.txt,37,37,1217,72.0,5.0,2014-07-18,False,colocated,right
135,1339.6696,0,460,1105,2857,4205,1001,-15.0,200,1,1,1339.9875,1,5,18_07_2014 level23_spatial_Clio 15_56 log.txt,37,37,1217,72.0,5.0,2014-07-18,False,single_speaker,right
136,1343.7452,1,460,1105,2857,4205,501,-15.0,200,1,1,1347.1664,1,1,18_07_2014 level23_spatial_Clio 15_56 log.txt,37,37,1217,72.0,5.0,2014-07-18,False,colocated,right
137,1354.0363,0,730,2058,2857,4205,701,-15.0,200,0,0,1355.0743,1,2,18_07_2014 level23_spatial_Clio 15_56 log.txt,37,37,1217,72.0,5.0,2014-07-18,False,separated,left
138,1359.6788,0,460,1105,2857,4205,651,-15.0,200,1,1,1360.5041,1,4,18_07_2014 level23_spatial_Clio 15_56 log.txt,37,37,1217,72.0,5.0,2014-07-18,False,single_speaker,left
139,1364.3186,0,460,1105,2857,4205,901,-15.0,200,1,1,1364.8796,1,4,18_07_2014 level23_spatial_Clio 15_56 log.txt,37,37,1217,72.0,5.0,2014-07-18,False,single_speaker,left
140,1376.68,0,730,2058,2857,4205,851,-15.0,200,0,0,1377.6413,1,3,18_07_2014 level23_spatial_Clio 15_56 log.txt,37,37,1217,72.0,5.0,2014-07-18,False,separated,right
141,1382.1346,0,460,1105,2857,4205,551,-15.0,200,1,1,1382.688,1,3,18_07_2014 level23_spatial_Clio 15_56 log.txt,37,37,1217,72.0,5.0,2014-07-18,False,separated,right
142,1389.7002,0,460,1105,2857,4205,751,-15.0,200,1,1,1390.4536,1,1,18_07_2014 level23_spatial_Clio 15_56 log.txt,37,37,1217,72.0,5.0,2014-07-18,False,colocated,right
143,1394.2517,0,730,2058,2857,4205,951,-15.0,200,0,0,1395.925,1,2,18_07_2014 level23_spatial_Clio 15_56 log.txt,37,37,1217,72.0,5.0,2014-07-18,False,separated,left
144,1409.5465,0,460,1105,2857,4205,801,-15.0,200,1,1,1410.1096,1,2,18_07_2014 level23_spatial_Clio 15_56 log.txt,37,37,1217,72.0,5.0,2014-07-18,False,separated,left
145,1422.0583,0,730,2058,2857,4205,1001,-15.0,200,0,0,1422.5546,1,4,18_07_2014 level23_spatial_Clio 15_56 log.txt,37,37,1217,72.0,5.0,2014-07-18,False,single_speaker,left
146,1434.2963,0,730,2058,2857,4205,801,-15.0,200,0,0,1435.0729,1,1,18_07_2014 level23_spatial_Clio 15_56 log.txt,37,37,1217,72.0,5.0,2014-07-18,False,colocated,right
147,1439.8744,0,460,1105,2857,4205,751,-15.0,200,1,1,1440.8258,1,4,18_07_2014 level23_spatial_Clio 15_56 log.txt,37,37,1217,72.0,5.0,2014-07-18,False,single_speaker,left
148,1474.727,0,460,1105,2857,4205,951,-15.0,200,1,0,1475.7929,0,0,18_07_2014 level23_spatial_Clio 15_56 log.txt,37,37,1217,72.0,5.0,2014-07-18,False,colocated,left
150,1494.2231,0,460,1105,2857,4205,701,-15.0,200,1,0,1495.2982,0,3,18_07_2014 level23_spatial_Clio 15_56 log.txt,37,37,1217,72.0,5.0,2014-07-18,False,separated,right
153,1515.4895,0,460,1105,2857,4205,551,-15.0,200,1,1,1515.9604,1,4,18_07_2014 level23_spatial_Clio 15_56 log.txt,37,37,1217,72.0,5.0,2014-07-18,False,single_speaker,left
154,1519.6183,1,460,1105,2857,4205,501,-15.0,200,1,1,1522.3856,1,5,18_07_2014 level23_spatial_Clio 15_56 log.txt,37,37,1217,72.0,5.0,2014-07-18,False,single_speaker,right
155,1526.5761,0,730,2058,2857,4205,601,-15.0,200,0,1,1527.6596,0,1,18_07_2014 level23_spatial_Clio 15_56 log.txt,37,37,1217,72.0,5.0,2014-07-18,False,colocated,right
157,1542.7686,0,730,2058,2857,4205,651,-15.0,200,0,0,1543.9503,1,4,18_07_2014 level23_spatial_Clio 15_56 log.txt,37,37,1217,72.0,5.0,2014-07-18,False,single_speaker,left
158,1560.6635,0,730,2058,2857,4205,1001,-15.0,200,0,1,1565.5425,0,2,18_07_2014 level23_spatial_Clio 15_56 log.txt,37,37,1217,72.0,5.0,2014-07-18,False,separated,left
160,1616.9178,0,730,2058,2857,4205,851,-15.0,200,0,0,1617.9937,1,0,18_07_2014 level23_spatial_Clio 15_56 log.txt,37,37,1217,72.0,5.0,2014-07-18,False,colocated,left
161,1622.1731,0,730,2058,2857,4205,901,-15.0,200,0,0,1623.061,1,4,18_07_2014 level23_spatial_Clio 15_56 log.txt,37,37,1217,72.0,5.0,2014-07-18,False,single_speaker,left
162,1628.1784,0,730,2058,2857,4205,851,-15.0,200,0,1,1629.3054,0,1,18_07_2014 level23_spatial_Clio 15_56 log.txt,37,37,1217,72.0,5.0,2014-07-18,False,colocated,right
164,1640.0964,1,460,1105,2857,4205,501,-15.0,200,1,1,1640.5743,1,0,18_07_2014 level23_spatial_Clio 15_56 log.txt,37,37,1217,72.0,5.0,2014-07-18,False,colocated,left
165,1644.2486,0,730,2058,2857,4205,651,-15.0,200,0,1,1646.2217,0,2,18_07_2014 level23_spatial_Clio 15_56 log.txt,37,37,1217,72.0,5.0,2014-07-18,False,separated,left
167,1662.2603,0,460,1105,2857,4205,751,-15.0,200,1,1,1662.7406,1,3,18_07_2014 level23_spatial_Clio 15_56 log.txt,37,37,1217,72.0,5.0,2014-07-18,False,separated,right
168,1674.3629,0,460,1105,2857,4205,1001,-15.0,200,1,1,1674.859,1,2,18_07_2014 level23_spatial_Clio 15_56 log.txt,37,37,1217,72.0,5.0,2014-07-18,False,separated,left
169,1682.1468,0,730,2058,2857,4205,701,-15.0,200,0,0,1683.101,1,3,18_07_2014 level23_spatial_Clio 15_56 log.txt,37,37,1217,72.0,5.0,2014-07-18,False,separated,right
170,1687.7738,1,460,1105,2857,4205,951,-15.0,200,1,1,1688.1682,1,1,18_07_2014 level23_spatial_Clio 15_56 log.txt,37,37,1217,72.0,5.0,2014-07-18,False,colocated,right
171,1691.8462,0,460,1105,2857,4205,801,-15.0,200,1,1,1693.5685,1,5,18_07_2014 level23_spatial_Clio 15_56 log.txt,37,37,1217,72.0,5.0,2014-07-18,False,single_speaker,right
172,1696.9913,0,730,2058,2857,4205,551,-15.0,200,0,0,1698.5098,1,2,18_07_2014 level23_spatial_Clio 15_56 log.txt,37,37,1217,72.0,5.0,2014-07-18,False,separated,left
173,1704.0369,0,460,1105,2857,4205,651,-15.0,200,1,0,1705.2913,0,2,18_07_2014 level23_spatial_Clio 15_56 log.txt,37,37,1217,72.0,5.0,2014-07-18,False,separated,left
176,1725.5675,0,460,1105,2857,4205,851,-15.0,200,1,1,1726.0375,1,5,18_07_2014 level23_spatial_Clio 15_56 log.txt,37,37,1217,72.0,5.0,2014-07-18,False,single_speaker,right
177,1733.881,0,730,2058,2857,4205,951,-15.0,200,0,0,1734.7171,1,5,18_07_2014 level23_spatial_Clio 15_56 log.txt,37,37,1217,72.0,5.0,2014-07-18,False,single_speaker,right
178,1739.6951,0,730,2058,2857,4205,801,-15.0,200,0,1,1740.445,0,3,18_07_2014 level23_spatial_Clio 15_56 log.txt,37,37,1217,72.0,5.0,2014-07-18,False,separated,right
180,1751.4781,0,730,2058,2857,4205,551,-15.0,200,0,0,1755.0038,1,0,18_07_2014 level23_spatial_Clio 15_56 log.txt,37,37,1217,72.0,5.0,2014-07-18,False,colocated,left
181,1760.8188,0,730,2058,2857,4205,501,-15.0,200,0,0,1762.0941,1,5,18_07_2014 level23_spatial_Clio 15_56 log.txt,37,37,1217,72.0,5.0,2014-07-18,False,single_speaker,right
182,1767.1548,0,730,2058,2857,4205,601,-15.0,200,0,0,1768.1729,1,5,18_07_2014 level23_spatial_Clio 15_56 log.txt,37,37,1217,72.0,5.0,2014-07-18,False,single_speaker,right
183,1779.0987,1,460,1105,2857,4205,1001,-15.0,200,1,1,1779.536,1,1,18_07_2014 level23_spatial_Clio 15_56 log.txt,37,37,1217,72.0,5.0,2014-07-18,False,colocated,right
184,1784.7345,0,730,2058,2857,4205,751,-15.0,200,0,1,1786.8762,0,0,18_07_2014 level23_spatial_Clio 15_56 log.txt,37,37,1217,72.0,5.0,2014-07-18,False,colocated,left
186,1822.2213,0,460,1105,2857,4205,901,-15.0,200,1,1,1822.7251,1,1,18_07_2014 level23_spatial_Clio 15_56 log.txt,37,37,1217,72.0,5.0,2014-07-18,False,colocated,right
187,1830.8563,0,730,2058,2857,4205,751,-15.0,200,0,0,1831.6229,1,3,18_07_2014 level23_spatial_Clio 15_56 log.txt,37,37,1217,72.0,5.0,2014-07-18,False,separated,right
188,1846.0908,1,460,1105,2857,4205,851,-15.0,200,1,1,1846.6213,1,0,18_07_2014 level23_spatial_Clio 15_56 log.txt,37,37,1217,72.0,5.0,2014-07-18,False,colocated,left
189,1851.1249,1,460,1105,2857,4205,801,-15.0,200,1,1,1854.0206,1,4,18_07_2014 level23_spatial_Clio 15_56 log.txt,37,37,1217,72.0,5.0,2014-07-18,False,single_speaker,left
190,1858.0799,0,460,1105,2857,4205,601,-15.0,200,1,1,1858.4699,1,3,18_07_2014 level23_spatial_Clio 15_56 log.txt,37,37,1217,72.0,5.0,2014-07-18,False,separated,right
191,1869.2656,0,730,2058,2857,4205,701,-15.0,200,0,0,1870.3704,1,4,18_07_2014 level23_spatial_Clio 15_56 log.txt,37,37,1217,72.0,5.0,2014-07-18,False,single_speaker,left
192,1875.0988,0,460,1105,2857,4205,901,-15.0,200,1,1,1875.6651,1,3,18_07_2014 level23_spatial_Clio 15_56 log.txt,37,37,1217,72.0,5.0,2014-07-18,False,separated,right
193,1889.7065,0,730,2058,2857,4205,951,-15.0,200,0,0,1891.0752,1,2,18_07_2014 level23_spatial_Clio 15_56 log.txt,37,37,1217,72.0,5.0,2014-07-18,False,separated,left
1,19.9232,1,460,1105,2857,4205,551,-15.0,200,1,1,20.5556,1,0,25_06_2014 level23_spatial_Clio 09_22 Block6-11.txt,37,37,1217,72.0,5.0,2014-06-25,False,colocated,left
2,31.7421,0,460,1105,2857,4205,751,-15.0,200,1,1,37.0505,1,4,25_06_2014 level23_spatial_Clio 09_22 Block6-11.txt,37,37,1217,72.0,5.0,2014-06-25,False,single_speaker,left
3,56.0277,0,730,2058,2857,4205,601,-15.0,200,0,0,57.3222,1,4,25_06_2014 level23_spatial_Clio 09_22 Block6-11.txt,37,37,1217,72.0,5.0,2014-06-25,False,single_speaker,left
4,66.7442,0,460,1105,2857,4205,701,-15.0,200,1,1,67.5143,1,4,25_06_2014 level23_spatial_Clio 09_22 Block6-11.txt,37,37,1217,72.0,5.0,2014-06-25,False,single_speaker,left
5,78.6165,0,460,1105,2857,4205,1001,-15.0,200,1,1,78.9137,1,5,25_06_2014 level23_spatial_Clio 09_22 Block6-11.txt,37,37,1217,72.0,5.0,2014-06-25,False,single_speaker,right
6,89.5518,0,730,2058,2857,4205,651,-15.0,200,0,1,90.0259,0,1,25_06_2014 level23_spatial_Clio 09_22 Block6-11.txt,37,37,1217,72.0,5.0,2014-06-25,False,colocated,right
8,107.2517,1,730,2058,2857,4205,801,-15.0,200,0,0,107.9399,1,0,25_06_2014 level23_spatial_Clio 09_22 Block6-11.txt,37,37,1217,72.0,5.0,2014-06-25,False,colocated,left
9,113.5591,0,730,2058,2857,4205,951,-15.0,200,0,0,115.7298,1,5,25_06_2014 level23_spatial_Clio 09_22 Block6-11.txt,37,37,1217,72.0,5.0,2014-06-25,False,single_speaker,right
10,121.5417,0,460,1105,2857,4205,901,-15.0,200,1,0,122.8272,0,0,25_06_2014 level23_spatial_Clio 09_22 Block6-11.txt,37,37,1217,72.0,5.0,2014-06-25,False,colocated,left
12,141.4322,0,460,1105,2857,4205,501,-15.0,200,1,0,143.4721,0,2,25_06_2014 level23_spatial_Clio 09_22 Block6-11.txt,37,37,1217,72.0,5.0,2014-06-25,False,separated,left
15,168.2232,1,730,2058,2857,4205,501,-15.0,200,0,0,173.6832,1,1,25_06_2014 level23_spatial_Clio 09_22 Block6-11.txt,37,37,1217,72.0,5.0,2014-06-25,False,colocated,right
16,182.6181,0,730,2058,2857,4205,701,-15.0,200,0,0,183.3638,1,2,25_06_2014 level23_spatial_Clio 09_22 Block6-11.txt,37,37,1217,72.0,5.0,2014-06-25,False,separated,left
17,196.3863,0,730,2058,2857,4205,901,-15.0,200,0,1,197.3361,0,0,25_06_2014 level23_spatial_Clio 09_22 Block6-11.txt,37,37,1217,72.0,5.0,2014-06-25,False,colocated,left
19,213.8766,0,460,1105,2857,4205,801,-15.0,200,1,0,214.5023,0,0,25_06_2014 level23_spatial_Clio 09_22 Block6-11.txt,37,37,1217,72.0,5.0,2014-06-25,False,colocated,left
21,235.5591,0,730,2058,2857,4205,601,-15.0,200,0,0,236.4883,1,4,25_06_2014 level23_spatial_Clio 09_22 Block6-11.txt,37,37,1217,72.0,5.0,2014-06-25,False,single_speaker,left
22,245.313,1,730,2058,2857,4205,1001,-15.0,200,0,0,246.4926,1,5,25_06_2014 level23_spatial_Clio 09_22 Block6-11.txt,37,37,1217,72.0,5.0,2014-06-25,False,single_speaker,right
23,252.7312,1,460,1105,2857,4205,651,-15.0,200,1,0,257.4765,0,5,25_06_2014 level23_spatial_Clio 09_22 Block6-11.txt,37,37,1217,72.0,5.0,2014-06-25,False,single_speaker,right
25,269.3687,0,460,1105,2857,4205,851,-15.0,200,1,0,270.3759,0,2,25_06_2014 level23_spatial_Clio 09_22 Block6-11.txt,37,37,1217,72.0,5.0,2014-06-25,False,separated,left
27,282.1839,0,730,2058,2857,4205,551,-15.0,200,0,0,283.2524,1,1,25_06_2014 level23_spatial_Clio 09_22 Block6-11.txt,37,37,1217,72.0,5.0,2014-06-25,False,colocated,right
28,287.9953,0,730,2058,2857,4205,751,-15.0,200,0,0,288.3544,1,4,25_06_2014 level23_spatial_Clio 09_22 Block6-11.txt,37,37,1217,72.0,5.0,2014-06-25,False,single_speaker,left
29,293.2802,0,460,1105,2857,4205,551,-15.0,200,1,1,293.7267,1,3,25_06_2014 level23_spatial_Clio 09_22 Block6-11.txt,37,37,1217,72.0,5.0,2014-06-25,False,separated,right
30,302.5019,0,460,1105,2857,4205,851,-15.0,200,1,1,302.8118,1,2,25_06_2014 level23_spatial_Clio 09_22 Block6-11.txt,37,37,1217,72.0,5.0,2014-06-25,False,separated,left
31,314.8943,0,460,1105,2857,4205,801,-15.0,200,1,1,316.0171,1,3,25_06_2014 level23_spatial_Clio 09_22 Block6-11.txt,37,37,1217,72.0,5.0,2014-06-25,False,separated,right
32,348.6027,0,730,2058,2857,4205,1001,-15.0,200,0,0,349.3492,1,0,25_06_2014 level23_spatial_Clio 09_22 Block6-11.txt,37,37,1217,72.0,5.0,2014-06-25,False,colocated,left
33,354.0727,0,460,1105,2857,4205,751,-15.0,200,1,1,354.3867,1,4,25_06_2014 level23_spatial_Clio 09_22 Block6-11.txt,37,37,1217,72.0,5.0,2014-06-25,False,single_speaker,left
34,364.6909,1,460,1105,2857,4205,901,-15.0,200,1,1,365.0047,1,3,25_06_2014 level23_spatial_Clio 09_22 Block6-11.txt,37,37,1217,72.0,5.0,2014-06-25,False,separated,right
35,369.7326,0,730,2058,2857,4205,501,-15.0,200,0,1,371.6361,0,2,25_06_2014 level23_spatial_Clio 09_22 Block6-11.txt,37,37,1217,72.0,5.0,2014-06-25,False,separated,left
37,390.1685,1,460,1105,2857,4205,701,-15.0,200,1,1,392.3724,1,5,25_06_2014 level23_spatial_Clio 09_22 Block6-11.txt,37,37,1217,72.0,5.0,2014-06-25,False,single_speaker,right
38,396.4362,0,730,2058,2857,4205,951,-15.0,200,0,0,397.8534,1,5,25_06_2014 level23_spatial_Clio 09_22 Block6-11.txt,37,37,1217,72.0,5.0,2014-06-25,False,single_speaker,right
39,405.3959,0,730,2058,2857,4205,601,-15.0,200,0,0,405.8397,1,2,25_06_2014 level23_spatial_Clio 09_22 Block6-11.txt,37,37,1217,72.0,5.0,2014-06-25,False,separated,left
40,416.7143,0,460,1105,2857,4205,751,-15.0,200,1,1,417.0461,1,1,25_06_2014 level23_spatial_Clio 09_22 Block6-11.txt,37,37,1217,72.0,5.0,2014-06-25,False,colocated,right
41,424.7498,0,730,2058,2857,4205,501,-15.0,200,0,0,425.7133,1,3,25_06_2014 level23_spatial_Clio 09_22 Block6-11.txt,37,37,1217,72.0,5.0,2014-06-25,False,separated,right
42,433.0676,0,460,1105,2857,4205,801,-15.0,200,1,1,433.3699,1,1,25_06_2014 level23_spatial_Clio 09_22 Block6-11.txt,37,37,1217,72.0,5.0,2014-06-25,False,colocated,right
43,438.4125,0,460,1105,2857,4205,551,-15.0,200,1,0,438.9967,0,1,25_06_2014 level23_spatial_Clio 09_22 Block6-11.txt,37,37,1217,72.0,5.0,2014-06-25,False,colocated,right
45,470.7264,0,730,2058,2857,4205,951,-15.0,200,0,0,471.1234,1,3,25_06_2014 level23_spatial_Clio 09_22 Block6-11.txt,37,37,1217,72.0,5.0,2014-06-25,False,separated,right
46,480.3804,0,730,2058,2857,4205,851,-15.0,200,0,0,481.1042,1,3,25_06_2014 level23_spatial_Clio 09_22 Block6-11.txt,37,37,1217,72.0,5.0,2014-06-25,False,separated,right
47,494.9461,0,460,1105,2857,4205,901,-15.0,200,1,1,495.2928,1,5,25_06_2014 level23_spatial_Clio 09_22 Block6-11.txt,37,37,1217,72.0,5.0,2014-06-25,False,single_speaker,right
48,504.6202,0,460,1105,2857,4205,1001,-15.0,200,1,1,504.9764,1,5,25_06_2014 level23_spatial_Clio 09_22 Block6-11.txt,37,37,1217,72.0,5.0,2014-06-25,False,single_speaker,right
49,519.4381,0,460,1105,2857,4205,651,-15.0,200,1,1,520.0275,1,1,25_06_2014 level23_spatial_Clio 09_22 Block6-11.txt,37,37,1217,72.0,5.0,2014-06-25,False,colocated,right
50,532.8459,1,730,2058,2857,4205,701,-15.0,200,0,0,536.4244,1,2,25_06_2014 level23_spatial_Clio 09_22 Block6-11.txt,37,37,1217,72.0,5.0,2014-06-25,False,separated,left
51,540.7172,0,460,1105,2857,4205,551,-15.0,200,1,0,541.172,0,3,25_06_2014 level23_spatial_Clio 09_22 Block6-11.txt,37,37,1217,72.0,5.0,2014-06-25,False,separated,right
53,569.7688,0,730,2058,2857,4205,701,-15.0,200,0,0,570.507,1,4,25_06_2014 level23_spatial_Clio 09_22 Block6-11.txt,37,37,1217,72.0,5.0,2014-06-25,False,single_speaker,left
54,583.9512,0,730,2058,2857,4205,901,-15.0,200,0,0,584.5021,1,4,25_06_2014 level23_spatial_Clio 09_22 Block6-11.txt,37,37,1217,72.0,5.0,2014-06-25,False,single_speaker,left
55,589.0955,0,730,2058,2857,4205,501,-15.0,200,0,0,589.4292,1,0,25_06_2014 level23_spatial_Clio 09_22 Block6-11.txt,37,37,1217,72.0,5.0,2014-06-25,False,colocated,left
56,611.2279,0,730,2058,2857,4205,751,-15.0,200,0,1,611.7552,0,1,25_06_2014 level23_spatial_Clio 09_22 Block6-11.txt,37,37,1217,72.0,5.0,2014-06-25,False,colocated,right
59,630.7579,1,730,2058,2857,4205,801,-15.0,200,0,1,631.224,0,1,25_06_2014 level23_spatial_Clio 09_22 Block6-11.txt,37,37,1217,72.0,5.0,2014-06-25,False,colocated,right
62,655.7873,0,460,1105,2857,4205,601,-15.0,200,1,1,656.1711,1,0,25_06_2014 level23_spatial_Clio 09_22 Block6-11.txt,37,37,1217,72.0,5.0,2014-06-25,False,colocated,left
63,663.1809,0,460,1105,2857,4205,851,-15.0,200,1,0,663.6234,0,2,25_06_2014 level23_spatial_Clio 09_22 Block6-11.txt,37,37,1217,72.0,5.0,2014-06-25,False,separated,left
65,686.5746,0,460,1105,2857,4205,1001,-15.0,200,1,0,687.0681,0,0,25_06_2014 level23_spatial_Clio 09_22 Block6-11.txt,37,37,1217,72.0,5.0,2014-06-25,False,colocated,left
67,711.593,0,730,2058,2857,4205,951,-15.0,200,0,0,712.0592,1,4,25_06_2014 level23_spatial_Clio 09_22 Block6-11.txt,37,37,1217,72.0,5.0,2014-06-25,False,single_speaker,left
68,717.0276,0,460,1105,2857,4205,851,-15.0,200,1,0,717.6841,0,1,25_06_2014 level23_spatial_Clio 09_22 Block6-11.txt,37,37,1217,72.0,5.0,2014-06-25,False,colocated,right
70,733.8548,0,730,2058,2857,4205,651,-15.0,200,0,0,734.5104,1,5,25_06_2014 level23_spatial_Clio 09_22 Block6-11.txt,37,37,1217,72.0,5.0,2014-06-25,False,single_speaker,right
71,738.4633,0,730,2058,2857,4205,551,-15.0,200,0,0,739.0332,1,0,25_06_2014 level23_spatial_Clio 09_22 Block6-11.txt,37,37,1217,72.0,5.0,2014-06-25,False,colocated,left
72,743.4846,0,730,2058,2857,4205,701,-15.0,200,0,1,744.006,0,5,25_06_2014 level23_spatial_Clio 09_22 Block6-11.txt,37,37,1217,72.0,5.0,2014-06-25,False,single_speaker,right
74,766.9164,0,730,2058,2857,4205,1001,-15.0,200,0,1,767.3973,0,2,25_06_2014 level23_spatial_Clio 09_22 Block6-11.txt,37,37,1217,72.0,5.0,2014-06-25,False,separated,left
76,782.893,0,730,2058,2857,4205,951,-15.0,200,0,0,783.5081,1,3,25_06_2014 level23_spatial_Clio 09_22 Block6-11.txt,37,37,1217,72.0,5.0,2014-06-25,False,separated,right
77,791.7887,0,730,2058,2857,4205,901,-15.0,200,0,0,792.124,1,3,25_06_2014 level23_spatial_Clio 09_22 Block6-11.txt,37,37,1217,72.0,5.0,2014-06-25,False,separated,right
78,802.9132,0,730,2058,2857,4205,801,-15.0,200,0,0,803.6243,1,5,25_06_2014 level23_spatial_Clio 09_22 Block6-11.txt,37,37,1217,72.0,5.0,2014-06-25,False,single_speaker,right
79,811.9582,0,730,2058,2857,4205,601,-15.0,200,0,0,812.9695,1,1,25_06_2014 level23_spatial_Clio 09_22 Block6-11.txt,37,37,1217,72.0,5.0,2014-06-25,False,colocated,right
80,817.6996,0,460,1105,2857,4205,751,-15.0,200,1,1,818.478,1,4,25_06_2014 level23_spatial_Clio 09_22 Block6-11.txt,37,37,1217,72.0,5.0,2014-06-25,False,single_speaker,left
81,825.2628,0,730,2058,2857,4205,1001,-15.0,200,0,0,825.7847,1,3,25_06_2014 level23_spatial_Clio 09_22 Block6-11.txt,37,37,1217,72.0,5.0,2014-06-25,False,separated,right
82,839.6644,0,460,1105,2857,4205,751,-15.0,200,1,1,840.5974,1,3,25_06_2014 level23_spatial_Clio 09_22 Block6-11.txt,37,37,1217,72.0,5.0,2014-06-25,False,separated,right
83,844.2888,1,460,1105,2857,4205,501,-15.0,200,1,1,844.8087,1,3,25_06_2014 level23_spatial_Clio 09_22 Block6-11.txt,37,37,1217,72.0,5.0,2014-06-25,False,separated,right
84,849.2756,0,460,1105,2857,4205,951,-15.0,200,1,1,850.4319,1,4,25_06_2014 level23_spatial_Clio 09_22 Block6-11.txt,37,37,1217,72.0,5.0,2014-06-25,False,single_speaker,left
85,890.5389,1,460,1105,2857,4205,901,-15.0,200,1,1,890.9489,1,2,25_06_2014 level23_spatial_Clio 09_22 Block6-11.txt,37,37,1217,72.0,5.0,2014-06-25,False,separated,left
86,895.9647,0,460,1105,2857,4205,701,-15.0,200,1,1,897.7138,1,1,25_06_2014 level23_spatial_Clio 09_22 Block6-11.txt,37,37,1217,72.0,5.0,2014-06-25,False,colocated,right
87,901.4691,0,460,1105,2857,4205,801,-15.0,200,1,1,901.9451,1,4,25_06_2014 level23_spatial_Clio 09_22 Block6-11.txt,37,37,1217,72.0,5.0,2014-06-25,False,single_speaker,left
88,910.6595,0,730,2058,2857,4205,601,-15.0,200,0,0,911.0987,1,0,25_06_2014 level23_spatial_Clio 09_22 Block6-11.txt,37,37,1217,72.0,5.0,2014-06-25,False,colocated,left
89,915.5574,0,460,1105,2857,4205,651,-15.0,200,1,0,916.1844,0,0,25_06_2014 level23_spatial_Clio 09_22 Block6-11.txt,37,37,1217,72.0,5.0,2014-06-25,False,colocated,left
91,926.0057,0,460,1105,2857,4205,851,-15.0,200,1,0,926.469,0,2,25_06_2014 level23_spatial_Clio 09_22 Block6-11.txt,37,37,1217,72.0,5.0,2014-06-25,False,separated,left
93,943.5938,0,460,1105,2857,4205,751,-15.0,200,1,1,944.2188,1,5,25_06_2014 level23_spatial_Clio 09_22 Block6-11.txt,37,37,1217,72.0,5.0,2014-06-25,False,single_speaker,right
94,954.8376,0,730,2058,2857,4205,601,-15.0,200,0,0,955.4421,1,2,25_06_2014 level23_spatial_Clio 09_22 Block6-11.txt,37,37,1217,72.0,5.0,2014-06-25,False,separated,left
95,961.8939,0,460,1105,2857,4205,501,-15.0,200,1,1,962.4053,1,5,25_06_2014 level23_spatial_Clio 09_22 Block6-11.txt,37,37,1217,72.0,5.0,2014-06-25,False,single_speaker,right
96,976.6089,1,460,1105,2857,4205,1001,-15.0,200,1,1,977.0717,1,4,25_06_2014 level23_spatial_Clio 09_22 Block6-11.txt,37,37,1217,72.0,5.0,2014-06-25,False,single_speaker,left
97,980.2383,1,730,2058,2857,4205,701,-15.0,200,0,1,983.1083,0,5,25_06_2014 level23_spatial_Clio 09_22 Block6-11.txt,37,37,1217,72.0,5.0,2014-06-25,False,single_speaker,right
99,995.4869,0,460,1105,2857,4205,551,-15.0,200,1,0,996.1592,0,2,25_06_2014 level23_spatial_Clio 09_22 Block6-11.txt,37,37,1217,72.0,5.0,2014-06-25,False,separated,left
101,1016.6591,0,730,2058,2857,4205,851,-15.0,200,0,0,1017.1254,1,4,25_06_2014 level23_spatial_Clio 09_22 Block6-11.txt,37,37,1217,72.0,5.0,2014-06-25,False,single_speaker,left
102,1023.9739,0,730,2058,2857,4205,801,-15.0,200,0,1,1024.4237,0,3,25_06_2014 level23_spatial_Clio 09_22 Block6-11.txt,37,37,1217,72.0,5.0,2014-06-25,False,separated,right
104,1043.7564,0,460,1105,2857,4205,651,-15.0,200,1,1,1044.6728,1,4,25_06_2014 level23_spatial_Clio 09_22 Block6-11.txt,37,37,1217,72.0,5.0,2014-06-25,False,single_speaker,left
105,1059.2582,0,730,2058,2857,4205,951,-15.0,200,0,1,1060.4095,0,1,25_06_2014 level23_spatial_Clio 09_22 Block6-11.txt,37,37,1217,72.0,5.0,2014-06-25,False,colocated,right
107,1073.3688,0,460,1105,2857,4205,701,-15.0,200,1,1,1073.7021,1,5,25_06_2014 level23_spatial_Clio 09_22 Block6-11.txt,37,37,1217,72.0,5.0,2014-06-25,False,single_speaker,right
108,1077.2684,0,460,1105,2857,4205,501,-15.0,200,1,1,1077.643,1,4,25_06_2014 level23_spatial_Clio 09_22 Block6-11.txt,37,37,1217,72.0,5.0,2014-06-25,False,single_speaker,left
109,1082.983,0,460,1105,2857,4205,601,-15.0,200,1,1,1083.3891,1,1,25_06_2014 level23_spatial_Clio 09_22 Block6-11.txt,37,37,1217,72.0,5.0,2014-06-25,False,colocated,right
110,1090.7303,0,730,2058,2857,4205,751,-15.0,200,0,0,1091.3604,1,0,25_06_2014 level23_spatial_Clio 09_22 Block6-11.txt,37,37,1217,72.0,5.0,2014-06-25,False,colocated,left
111,1106.8967,0,460,1105,2857,4205,901,-15.0,200,1,1,1107.1875,1,0,25_06_2014 level23_spatial_Clio 09_22 Block6-11.txt,37,37,1217,72.0,5.0,2014-06-25,False,colocated,left
112,1110.6797,0,730,2058,2857,4205,951,-15.0,200,0,1,1111.0462,0,0,25_06_2014 level23_spatial_Clio 09_22 Block6-11.txt,37,37,1217,72.0,5.0,2014-06-25,False,colocated,left
114,1127.4373,0,460,1105,2857,4205,851,-15.0,200,1,1,1127.8708,1,1,25_06_2014 level23_spatial_Clio 09_22 Block6-11.txt,37,37,1217,72.0,5.0,2014-06-25,False,colocated,right
115,1137.133,0,730,2058,2857,4205,801,-15.0,200,0,0,1137.86,1,4,25_06_2014 level23_spatial_Clio 09_22 Block6-11.txt,37,37,1217,72.0,5.0,2014-06-25,False,single_speaker,left
116,1142.2527,0,460,1105,2857,4205,1001,-15.0,200,1,1,1142.7123,1,5,25_06_2014 level23_spatial_Clio 09_22 Block6-11.txt,37,37,1217,72.0,5.0,2014-06-25,False,single_speaker,right
117,1154.0046,0,460,1105,2857,4205,651,-15.0,200,1,1,1154.4416,1,2,25_06_2014 level23_spatial_Clio 09_22 Block6-11.txt,37,37,1217,72.0,5.0,2014-06-25,False,separated,left
118,1165.283,0,460,1105,2857,4205,651,-15.0,200,1,1,1165.7182,1,0,25_06_2014 level23_spatial_Clio 09_22 Block6-11.txt,37,37,1217,72.0,5.0,2014-06-25,False,colocated,left
119,1169.855,1,460,1105,2857,4205,701,-15.0,200,1,1,1170.2663,1,3,25_06_2014 level23_spatial_Clio 09_22 Block6-11.txt,37,37,1217,72.0,5.0,2014-06-25,False,separated,right
120,1174.4874,0,730,2058,2857,4205,801,-15.0,200,0,1,1175.9543,0,2,25_06_2014 level23_spatial_Clio 09_22 Block6-11.txt,37,37,1217,72.0,5.0,2014-06-25,False,separated,left
122,1191.7685,0,460,1105,2857,4205,601,-15.0,200,1,1,1192.1807,1,1,25_06_2014 level23_spatial_Clio 09_22 Block6-11.txt,37,37,1217,72.0,5.0,2014-06-25,False,colocated,right
123,1199.7924,1,730,2058,2857,4205,951,-15.0,200,0,0,1200.2207,1,3,25_06_2014 level23_spatial_Clio 09_22 Block6-11.txt,37,37,1217,72.0,5.0,2014-06-25,False,separated,right
124,1205.4082,0,460,1105,2857,4205,901,-15.0,200,1,1,1207.934,1,0,25_06_2014 level23_spatial_Clio 09_22 Block6-11.txt,37,37,1217,72.0,5.0,2014-06-25,False,colocated,left
125,1218.5345,1,730,2058,2857,4205,751,-15.0,200,0,1,1218.8661,0,1,25_06_2014 level23_spatial_Clio 09_22 Block6-11.txt,37,37,1217,72.0,5.0,2014-06-25,False,colocated,right
127,1235.1884,0,730,2058,2857,4205,501,-15.0,200,0,0,1235.6133,1,5,25_06_2014 level23_spatial_Clio 09_22 Block6-11.txt,37,37,1217,72.0,5.0,2014-06-25,False,single_speaker,right
128,1242.2548,0,730,2058,2857,4205,551,-15.0,200,0,0,1242.7553,1,2,25_06_2014 level23_spatial_Clio 09_22 Block6-11.txt,37,37,1217,72.0,5.0,2014-06-25,False,separated,left
129,1256.2879,0,730,2058,2857,4205,1001,-15.0,200,0,0,1256.9728,1,0,25_06_2014 level23_spatial_Clio 09_22 Block6-11.txt,37,37,1217,72.0,5.0,2014-06-25,False,colocated,left
130,1262.5637,0,460,1105,2857,4205,951,-15.0,200,1,1,1262.8664,1,3,25_06_2014 level23_spatial_Clio 09_22 Block6-11.txt,37,37,1217,72.0,5.0,2014-06-25,False,separated,right
131,1285.7042,0,460,1105,2857,4205,551,-15.0,200,1,1,1286.0439,1,3,25_06_2014 level23_spatial_Clio 09_22 Block6-11.txt,37,37,1217,72.0,5.0,2014-06-25,False,separated,right
132,1293.3484,0,730,2058,2857,4205,701,-15.0,200,0,0,1294.0752,1,2,25_06_2014 level23_spatial_Clio 09_22 Block6-11.txt,37,37,1217,72.0,5.0,2014-06-25,False,separated,left
133,1303.0923,1,730,2058,2857,4205,801,-15.0,200,0,1,1303.3419,0,1,25_06_2014 level23_spatial_Clio 09_22 Block6-11.txt,37,37,1217,72.0,5.0,2014-06-25,False,colocated,right
137,1330.3349,0,730,2058,2857,4205,601,-15.0,200,0,1,1331.1911,0,5,25_06_2014 level23_spatial_Clio 09_22 Block6-11.txt,37,37,1217,72.0,5.0,2014-06-25,False,single_speaker,right
139,1343.9573,0,460,1105,2857,4205,501,-15.0,200,1,1,1344.4607,1,2,25_06_2014 level23_spatial_Clio 09_22 Block6-11.txt,37,37,1217,72.0,5.0,2014-06-25,False,separated,left
140,1353.4888,0,730,2058,2857,4205,901,-15.0,200,0,0,1354.0724,1,3,25_06_2014 level23_spatial_Clio 09_22 Block6-11.txt,37,37,1217,72.0,5.0,2014-06-25,False,separated,right
141,1365.2473,0,730,2058,2857,4205,851,-15.0,200,0,0,1365.9525,1,4,25_06_2014 level23_spatial_Clio 09_22 Block6-11.txt,37,37,1217,72.0,5.0,2014-06-25,False,single_speaker,left
142,1370.845,0,730,2058,2857,4205,751,-15.0,200,0,0,1371.3046,1,5,25_06_2014 level23_spatial_Clio 09_22 Block6-11.txt,37,37,1217,72.0,5.0,2014-06-25,False,single_speaker,right
143,1376.1531,0,730,2058,2857,4205,651,-15.0,200,0,0,1376.737,1,1,25_06_2014 level23_spatial_Clio 09_22 Block6-11.txt,37,37,1217,72.0,5.0,2014-06-25,False,colocated,right
144,1381.0215,0,460,1105,2857,4205,751,-15.0,200,1,1,1381.435,1,4,25_06_2014 level23_spatial_Clio 09_22 Block6-11.txt,37,37,1217,72.0,5.0,2014-06-25,False,single_speaker,left
145,1438.4017,0,460,1105,2857,4205,901,-15.0,200,1,0,1444.0589,0,4,25_06_2014 level23_spatial_Clio 09_22 Block6-11.txt,37,37,1217,72.0,5.0,2014-06-25,False,single_speaker,left
1,5.2558,0,730,2058,2857,4205,651,-15.0,200,0,0,5.9287,1,0,09_01_2014 level23_spatial_Clio 10_52 Block3-59.txt,37,37,1217,72.0,5.0,2014-01-09,False,colocated,left
2,12.6966,0,730,2058,2857,4205,601,-15.0,200,0,0,13.2465,1,1,09_01_2014 level23_spatial_Clio 10_52 Block3-59.txt,37,37,1217,72.0,5.0,2014-01-09,False,colocated,right
3,18.5243,0,460,1105,2857,4205,701,-15.0,200,1,0,18.9156,0,3,09_01_2014 level23_spatial_Clio 10_52 Block3-59.txt,37,37,1217,72.0,5.0,2014-01-09,False,separated,right
6,46.1184,0,460,1105,2857,4205,1001,-15.0,200,1,1,46.8485,1,3,09_01_2014 level23_spatial_Clio 10_52 Block3-59.txt,37,37,1217,72.0,5.0,2014-01-09,False,separated,right
7,54.39,0,460,1105,2857,4205,801,-15.0,200,1,0,55.2095,0,1,09_01_2014 level23_spatial_Clio 10_52 Block3-59.txt,37,37,1217,72.0,5.0,2014-01-09,False,colocated,right
9,74.2357,0,730,2058,2857,4205,851,-15.0,200,0,1,74.5219,0,2,09_01_2014 level23_spatial_Clio 10_52 Block3-59.txt,37,37,1217,72.0,5.0,2014-01-09,False,separated,left
12,105.607,0,460,1105,2857,4205,901,-15.0,200,1,0,106.3839,0,2,09_01_2014 level23_spatial_Clio 10_52 Block3-59.txt,37,37,1217,72.0,5.0,2014-01-09,False,separated,left
18,162.8675,0,460,1105,2857,4205,951,-15.0,200,1,0,164.0674,0,3,09_01_2014 level23_spatial_Clio 10_52 Block3-59.txt,37,37,1217,72.0,5.0,2014-01-09,False,separated,right
20,180.2583,0,460,1105,2857,4205,501,-15.0,200,1,0,181.8025,0,0,09_01_2014 level23_spatial_Clio 10_52 Block3-59.txt,37,37,1217,72.0,5.0,2014-01-09,False,colocated,left
22,195.0842,0,460,1105,2857,4205,751,-15.0,200,1,1,196.1134,1,1,09_01_2014 level23_spatial_Clio 10_52 Block3-59.txt,37,37,1217,72.0,5.0,2014-01-09,False,colocated,right
23,204.6187,1,730,2058,2857,4205,701,-15.0,200,0,1,217.3678,0,2,09_01_2014 level23_spatial_Clio 10_52 Block3-59.txt,37,37,1217,72.0,5.0,2014-01-09,False,separated,left
25,236.1706,0,460,1105,2857,4205,501,-15.0,200,1,1,236.6545,1,1,09_01_2014 level23_spatial_Clio 10_52 Block3-59.txt,37,37,1217,72.0,5.0,2014-01-09,False,colocated,right
26,242.0462,0,730,2058,2857,4205,1001,-15.0,200,0,0,243.1567,1,3,09_01_2014 level23_spatial_Clio 10_52 Block3-59.txt,37,37,1217,72.0,5.0,2014-01-09,False,separated,right
27,248.1423,0,730,2058,2857,4205,751,-15.0,200,0,0,248.8606,1,1,09_01_2014 level23_spatial_Clio 10_52 Block3-59.txt,37,37,1217,72.0,5.0,2014-01-09,False,colocated,right
28,253.3566,0,730,2058,2857,4205,851,-15.0,200,0,0,254.031,1,3,09_01_2014 level23_spatial_Clio 10_52 Block3-59.txt,37,37,1217,72.0,5.0,2014-01-09,False,separated,right
29,259.5851,0,730,2058,2857,4205,601,-15.0,200,0,0,260.8035,1,1,09_01_2014 level23_spatial_Clio 10_52 Block3-59.txt,37,37,1217,72.0,5.0,2014-01-09,False,colocated,right
30,265.8294,0,460,1105,2857,4205,651,-15.0,200,1,0,266.6634,0,2,09_01_2014 level23_spatial_Clio 10_52 Block3-59.txt,37,37,1217,72.0,5.0,2014-01-09,False,separated,left
32,278.565,0,460,1105,2857,4205,951,-15.0,200,1,0,280.4858,0,2,09_01_2014 level23_spatial_Clio 10_52 Block3-59.txt,37,37,1217,72.0,5.0,2014-01-09,False,separated,left
34,299.628,0,730,2058,2857,4205,901,-15.0,200,0,0,300.667,1,0,09_01_2014 level23_spatial_Clio 10_52 Block3-59.txt,37,37,1217,72.0,5.0,2014-01-09,False,colocated,left
35,305.8322,0,730,2058,2857,4205,551,-15.0,200,0,0,306.7039,1,0,09_01_2014 level23_spatial_Clio 10_52 Block3-59.txt,37,37,1217,72.0,5.0,2014-01-09,False,colocated,left
36,310.8652,0,730,2058,2857,4205,501,-15.0,200,0,0,311.9867,1,3,09_01_2014 level23_spatial_Clio 10_52 Block3-59.txt,37,37,1217,72.0,5.0,2014-01-09,False,separated,right
37,316.4711,0,460,1105,2857,4205,601,-15.0,200,1,0,317.8798,0,0,09_01_2014 level23_spatial_Clio 10_52 Block3-59.txt,37,37,1217,72.0,5.0,2014-01-09,False,colocated,left
40,337.0579,1,730,2058,2857,4205,901,-15.0,200,0,0,338.4877,1,2,09_01_2014 level23_spatial_Clio 10_52 Block3-59.txt,37,37,1217,72.0,5.0,2014-01-09,False,separated,left
41,343.0388,1,460,1105,2857,4205,951,-15.0,200,1,0,348.3672,0,0,09_01_2014 level23_spatial_Clio 10_52 Block3-59.txt,37,37,1217,72.0,5.0,2014-01-09,False,colocated,left
43,360.2679,0,460,1105,2857,4205,1001,-15.0,200,1,1,361.3801,1,0,09_01_2014 level23_spatial_Clio 10_52 Block3-59.txt,37,37,1217,72.0,5.0,2014-01-09,False,colocated,left
44,367.33,0,460,1105,2857,4205,751,-15.0,200,1,1,368.3431,1,0,09_01_2014 level23_spatial_Clio 10_52 Block3-59.txt,37,37,1217,72.0,5.0,2014-01-09,False,colocated,left
45,373.7182,0,730,2058,2857,4205,651,-15.0,200,0,0,374.9204,1,1,09_01_2014 level23_spatial_Clio 10_52 Block3-59.txt,37,37,1217,72.0,5.0,2014-01-09,False,colocated,right
46,382.3519,0,730,2058,2857,4205,851,-15.0,200,0,0,383.1972,1,2,09_01_2014 level23_spatial_Clio 10_52 Block3-59.txt,37,37,1217,72.0,5.0,2014-01-09,False,separated,left
47,389.7525,0,730,2058,2857,4205,801,-15.0,200,0,0,391.5293,1,1,09_01_2014 level23_spatial_Clio 10_52 Block3-59.txt,37,37,1217,72.0,5.0,2014-01-09,False,colocated,right
48,395.8909,0,730,2058,2857,4205,701,-15.0,200,0,0,396.7921,1,3,09_01_2014 level23_spatial_Clio 10_52 Block3-59.txt,37,37,1217,72.0,5.0,2014-01-09,False,separated,right
49,401.1216,0,730,2058,2857,4205,701,-15.0,200,0,0,402.7351,1,1,09_01_2014 level23_spatial_Clio 10_52 Block3-59.txt,37,37,1217,72.0,5.0,2014-01-09,False,colocated,right
50,407.4969,0,460,1105,2857,4205,551,-15.0,200,1,1,408.0613,1,3,09_01_2014 level23_spatial_Clio 10_52 Block3-59.txt,37,37,1217,72.0,5.0,2014-01-09,False,separated,right
51,412.0261,0,460,1105,2857,4205,1001,-15.0,200,1,0,412.6657,0,2,09_01_2014 level23_spatial_Clio 10_52 Block3-59.txt,37,37,1217,72.0,5.0,2014-01-09,False,separated,left
53,427.4382,0,730,2058,2857,4205,851,-15.0,200,0,0,427.8732,1,2,09_01_2014 level23_spatial_Clio 10_52 Block3-59.txt,37,37,1217,72.0,5.0,2014-01-09,False,separated,left
54,432.0579,0,460,1105,2857,4205,601,-15.0,200,1,0,432.4326,0,2,09_01_2014 level23_spatial_Clio 10_52 Block3-59.txt,37,37,1217,72.0,5.0,2014-01-09,False,separated,left
57,447.1609,0,730,2058,2857,4205,801,-15.0,200,0,0,447.8448,1,0,09_01_2014 level23_spatial_Clio 10_52 Block3-59.txt,37,37,1217,72.0,5.0,2014-01-09,False,colocated,left
58,451.809,1,460,1105,2857,4205,951,-15.0,200,1,1,452.0268,1,3,09_01_2014 level23_spatial_Clio 10_52 Block3-59.txt,37,37,1217,72.0,5.0,2014-01-09,False,separated,right
59,456.3466,0,460,1105,2857,4205,651,-15.0,200,1,1,459.6088,1,1,09_01_2014 level23_spatial_Clio 10_52 Block3-59.txt,37,37,1217,72.0,5.0,2014-01-09,False,colocated,right
60,463.0509,0,460,1105,2857,4205,751,-15.0,200,1,1,464.4642,1,3,09_01_2014 level23_spatial_Clio 10_52 Block3-59.txt,37,37,1217,72.0,5.0,2014-01-09,False,separated,right
61,468.6551,0,730,2058,2857,4205,501,-15.0,200,0,1,472.1302,0,3,09_01_2014 level23_spatial_Clio 10_52 Block3-59.txt,37,37,1217,72.0,5.0,2014-01-09,False,separated,right
63,480.988,0,460,1105,2857,4205,651,-15.0,200,1,0,482.258,0,0,09_01_2014 level23_spatial_Clio 10_52 Block3-59.txt,37,37,1217,72.0,5.0,2014-01-09,False,colocated,left
65,491.8513,0,460,1105,2857,4205,551,-15.0,200,1,0,493.2326,0,2,09_01_2014 level23_spatial_Clio 10_52 Block3-59.txt,37,37,1217,72.0,5.0,2014-01-09,False,separated,left
68,513.1262,0,460,1105,2857,4205,1001,-15.0,200,1,0,514.2564,0,1,09_01_2014 level23_spatial_Clio 10_52 Block3-59.txt,37,37,1217,72.0,5.0,2014-01-09,False,colocated,right
70,525.1995,0,730,2058,2857,4205,801,-15.0,200,0,1,525.9481,0,3,09_01_2014 level23_spatial_Clio 10_52 Block3-59.txt,37,37,1217,72.0,5.0,2014-01-09,False,separated,right
72,535.5373,0,730,2058,2857,4205,501,-15.0,200,0,0,536.2115,1,2,09_01_2014 level23_spatial_Clio 10_52 Block3-59.txt,37,37,1217,72.0,5.0,2014-01-09,False,separated,left
73,544.3009,0,730,2058,2857,4205,701,-15.0,200,0,0,544.8191,1,0,09_01_2014 level23_spatial_Clio 10_52 Block3-59.txt,37,37,1217,72.0,5.0,2014-01-09,False,colocated,left
74,549.9475,0,730,2058,2857,4205,751,-15.0,200,0,0,550.6528,1,0,09_01_2014 level23_spatial_Clio 10_52 Block3-59.txt,37,37,1217,72.0,5.0,2014-01-09,False,colocated,left
75,555.2689,0,460,1105,2857,4205,601,-15.0,200,1,1,555.79,1,1,09_01_2014 level23_spatial_Clio 10_52 Block3-59.txt,37,37,1217,72.0,5.0,2014-01-09,False,colocated,right
76,562.2853,0,730,2058,2857,4205,901,-15.0,200,0,0,562.7793,1,1,09_01_2014 level23_spatial_Clio 10_52 Block3-59.txt,37,37,1217,72.0,5.0,2014-01-09,False,colocated,right
77,569.3382,0,460,1105,2857,4205,851,-15.0,200,1,1,569.5913,1,2,09_01_2014 level23_spatial_Clio 10_52 Block3-59.txt,37,37,1217,72.0,5.0,2014-01-09,False,separated,left
78,574.3945,0,730,2058,2857,4205,701,-15.0,200,0,0,575.0816,1,2,09_01_2014 level23_spatial_Clio 10_52 Block3-59.txt,37,37,1217,72.0,5.0,2014-01-09,False,separated,left
79,579.1636,0,730,2058,2857,4205,601,-15.0,200,0,0,579.7004,1,3,09_01_2014 level23_spatial_Clio 10_52 Block3-59.txt,37,37,1217,72.0,5.0,2014-01-09,False,separated,right
80,589.4133,0,730,2058,2857,4205,751,-15.0,200,0,0,589.9057,1,0,09_01_2014 level23_spatial_Clio 10_52 Block3-59.txt,37,37,1217,72.0,5.0,2014-01-09,False,colocated,left
81,598.293,0,460,1105,2857,4205,901,-15.0,200,1,1,598.4898,1,0,09_01_2014 level23_spatial_Clio 10_52 Block3-59.txt,37,37,1217,72.0,5.0,2014-01-09,False,colocated,left
82,605.8752,0,460,1105,2857,4205,851,-15.0,200,1,1,606.2703,1,1,09_01_2014 level23_spatial_Clio 10_52 Block3-59.txt,37,37,1217,72.0,5.0,2014-01-09,False,colocated,right
83,610.933,0,730,2058,2857,4205,801,-15.0,200,0,0,611.9828,1,1,09_01_2014 level23_spatial_Clio 10_52 Block3-59.txt,37,37,1217,72.0,5.0,2014-01-09,False,colocated,right
84,615.8534,0,730,2058,2857,4205,501,-15.0,200,0,0,616.3532,1,1,09_01_2014 level23_spatial_Clio 10_52 Block3-59.txt,37,37,1217,72.0,5.0,2014-01-09,False,colocated,right
85,620.0163,0,730,2058,2857,4205,551,-15.0,200,0,0,620.4051,1,3,09_01_2014 level23_spatial_Clio 10_52 Block3-59.txt,37,37,1217,72.0,5.0,2014-01-09,False,separated,right
86,624.8975,0,460,1105,2857,4205,1001,-15.0,200,1,0,625.0888,0,0,09_01_2014 level23_spatial_Clio 10_52 Block3-59.txt,37,37,1217,72.0,5.0,2014-01-09,False,colocated,left
88,634.8683,0,460,1105,2857,4205,951,-15.0,200,1,1,635.2425,1,3,09_01_2014 level23_spatial_Clio 10_52 Block3-59.txt,37,37,1217,72.0,5.0,2014-01-09,False,separated,right
89,639.0578,0,460,1105,2857,4205,601,-15.0,200,1,0,639.9484,0,2,09_01_2014 level23_spatial_Clio 10_52 Block3-59.txt,37,37,1217,72.0,5.0,2014-01-09,False,separated,left
91,649.5878,0,460,1105,2857,4205,901,-15.0,200,1,1,649.7602,1,3,09_01_2014 level23_spatial_Clio 10_52 Block3-59.txt,37,37,1217,72.0,5.0,2014-01-09,False,separated,right
92,653.6665,0,460,1105,2857,4205,751,-15.0,200,1,1,654.2402,1,1,09_01_2014 level23_spatial_Clio 10_52 Block3-59.txt,37,37,1217,72.0,5.0,2014-01-09,False,colocated,right
93,658.0592,0,730,2058,2857,4205,551,-15.0,200,0,1,658.6647,0,3,09_01_2014 level23_spatial_Clio 10_52 Block3-59.txt,37,37,1217,72.0,5.0,2014-01-09,False,separated,right
95,671.286,0,460,1105,2857,4205,851,-15.0,200,1,0,671.7654,0,3,09_01_2014 level23_spatial_Clio 10_52 Block3-59.txt,37,37,1217,72.0,5.0,2014-01-09,False,separated,right
97,687.4467,0,460,1105,2857,4205,951,-15.0,200,1,0,687.863,0,1,09_01_2014 level23_spatial_Clio 10_52 Block3-59.txt,37,37,1217,72.0,5.0,2014-01-09,False,colocated,right
99,703.1204,0,730,2058,2857,4205,801,-15.0,200,0,0,703.8313,1,0,09_01_2014 level23_spatial_Clio 10_52 Block3-59.txt,37,37,1217,72.0,5.0,2014-01-09,False,colocated,left
100,713.6369,0,460,1105,2857,4205,1001,-15.0,200,1,0,714.154,0,0,09_01_2014 level23_spatial_Clio 10_52 Block3-59.txt,37,37,1217,72.0,5.0,2014-01-09,False,colocated,left
103,732.4676,0,460,1105,2857,4205,701,-15.0,200,1,0,733.195,0,2,09_01_2014 level23_spatial_Clio 10_52 Block3-59.txt,37,37,1217,72.0,5.0,2014-01-09,False,separated,left
105,742.1187,0,730,2058,2857,4205,501,-15.0,200,0,0,743.1066,1,2,09_01_2014 level23_spatial_Clio 10_52 Block3-59.txt,37,37,1217,72.0,5.0,2014-01-09,False,separated,left
106,749.7152,1,730,2058,2857,4205,751,-15.0,200,0,0,750.3924,1,0,09_01_2014 level23_spatial_Clio 10_52 Block3-59.txt,37,37,1217,72.0,5.0,2014-01-09,False,colocated,left
107,754.9653,0,730,2058,2857,4205,801,-15.0,200,0,0,760.8136,1,2,09_01_2014 level23_spatial_Clio 10_52 Block3-59.txt,37,37,1217,72.0,5.0,2014-01-09,False,separated,left
108,764.983,0,730,2058,2857,4205,851,-15.0,200,0,1,766.9847,0,0,09_01_2014 level23_spatial_Clio 10_52 Block3-59.txt,37,37,1217,72.0,5.0,2014-01-09,False,colocated,left
110,776.5451,0,460,1105,2857,4205,601,-15.0,200,1,1,776.8984,1,3,09_01_2014 level23_spatial_Clio 10_52 Block3-59.txt,37,37,1217,72.0,5.0,2014-01-09,False,separated,right
111,783.1765,0,730,2058,2857,4205,501,-15.0,200,0,0,784.4547,1,3,09_01_2014 level23_spatial_Clio 10_52 Block3-59.txt,37,37,1217,72.0,5.0,2014-01-09,False,separated,right
112,788.0871,0,730,2058,2857,4205,551,-15.0,200,0,0,788.7516,1,3,09_01_2014 level23_spatial_Clio 10_52 Block3-59.txt,37,37,1217,72.0,5.0,2014-01-09,False,separated,right
113,798.0451,0,460,1105,2857,4205,1001,-15.0,200,1,0,798.6357,0,2,09_01_2014 level23_spatial_Clio 10_52 Block3-59.txt,37,37,1217,72.0,5.0,2014-01-09,False,separated,left
115,813.764,1,730,2058,2857,4205,951,-15.0,200,0,0,814.2696,1,3,09_01_2014 level23_spatial_Clio 10_52 Block3-59.txt,37,37,1217,72.0,5.0,2014-01-09,False,separated,right
116,818.5358,0,460,1105,2857,4205,651,-15.0,200,1,0,825.2303,0,1,09_01_2014 level23_spatial_Clio 10_52 Block3-59.txt,37,37,1217,72.0,5.0,2014-01-09,False,colocated,right
118,833.8469,0,460,1105,2857,4205,701,-15.0,200,1,0,834.525,0,0,09_01_2014 level23_spatial_Clio 10_52 Block3-59.txt,37,37,1217,72.0,5.0,2014-01-09,False,colocated,left
120,843.453,0,730,2058,2857,4205,1001,-15.0,200,0,0,843.8197,1,1,09_01_2014 level23_spatial_Clio 10_52 Block3-59.txt,37,37,1217,72.0,5.0,2014-01-09,False,colocated,right
121,847.8031,0,730,2058,2857,4205,751,-15.0,200,0,0,848.363,1,2,09_01_2014 level23_spatial_Clio 10_52 Block3-59.txt,37,37,1217,72.0,5.0,2014-01-09,False,separated,left
122,852.3804,0,730,2058,2857,4205,701,-15.0,200,0,0,853.0715,1,0,09_01_2014 level23_spatial_Clio 10_52 Block3-59.txt,37,37,1217,72.0,5.0,2014-01-09,False,colocated,left
123,856.9559,0,730,2058,2857,4205,551,-15.0,200,0,0,858.0635,1,0,09_01_2014 level23_spatial_Clio 10_52 Block3-59.txt,37,37,1217,72.0,5.0,2014-01-09,False,colocated,left
124,864.8705,0,460,1105,2857,4205,901,-15.0,200,1,1,865.4787,1,1,09_01_2014 level23_spatial_Clio 10_52 Block3-59.txt,37,37,1217,72.0,5.0,2014-01-09,False,colocated,right
125,868.9596,1,730,2058,2857,4205,651,-15.0,200,0,0,869.8381,1,1,09_01_2014 level23_spatial_Clio 10_52 Block3-59.txt,37,37,1217,72.0,5.0,2014-01-09,False,colocated,right
126,873.5118,0,460,1105,2857,4205,501,-15.0,200,1,0,879.3288,0,3,09_01_2014 level23_spatial_Clio 10_52 Block3-59.txt,37,37,1217,72.0,5.0,2014-01-09,False,separated,right
128,888.0348,0,730,2058,2857,4205,601,-15.0,200,0,0,888.8535,1,2,09_01_2014 level23_spatial_Clio 10_52 Block3-59.txt,37,37,1217,72.0,5.0,2014-01-09,False,separated,left
129,892.8424,0,460,1105,2857,4205,851,-15.0,200,1,0,893.5196,0,1,09_01_2014 level23_spatial_Clio 10_52 Block3-59.txt,37,37,1217,72.0,5.0,2014-01-09,False,colocated,right
131,913.9807,0,730,2058,2857,4205,801,-15.0,200,0,0,915.849,1,1,09_01_2014 level23_spatial_Clio 10_52 Block3-59.txt,37,37,1217,72.0,5.0,2014-01-09,False,colocated,right
132,920.1258,0,730,2058,2857,4205,701,-15.0,200,0,0,920.5092,1,2,09_01_2014 level23_spatial_Clio 10_52 Block3-59.txt,37,37,1217,72.0,5.0,2014-01-09,False,separated,left
133,927.9965,0,460,1105,2857,4205,851,-15.0,200,1,0,928.8232,0,0,09_01_2014 level23_spatial_Clio 10_52 Block3-59.txt,37,37,1217,72.0,5.0,2014-01-09,False,colocated,left
136,947.2718,0,460,1105,2857,4205,651,-15.0,200,1,0,948.2573,0,2,09_01_2014 level23_spatial_Clio 10_52 Block3-59.txt,37,37,1217,72.0,5.0,2014-01-09,False,separated,left
138,961.3157,0,460,1105,2857,4205,751,-15.0,200,1,1,961.7053,1,3,09_01_2014 level23_spatial_Clio 10_52 Block3-59.txt,37,37,1217,72.0,5.0,2014-01-09,False,separated,right
139,965.3715,0,460,1105,2857,4205,601,-15.0,200,1,1,966.2652,1,2,09_01_2014 level23_spatial_Clio 10_52 Block3-59.txt,37,37,1217,72.0,5.0,2014-01-09,False,separated,left
140,970.9032,0,460,1105,2857,4205,1001,-15.0,200,1,1,971.0807,1,0,09_01_2014 level23_spatial_Clio 10_52 Block3-59.txt,37,37,1217,72.0,5.0,2014-01-09,False,colocated,left
141,975.6203,0,460,1105,2857,4205,501,-15.0,200,1,1,976.3842,1,0,09_01_2014 level23_spatial_Clio 10_52 Block3-59.txt,37,37,1217,72.0,5.0,2014-01-09,False,colocated,left
142,983.0204,1,460,1105,2857,4205,951,-15.0,200,1,1,983.4323,1,3,09_01_2014 level23_spatial_Clio 10_52 Block3-59.txt,37,37,1217,72.0,5.0,2014-01-09,False,separated,right
143,987.5413,0,730,2058,2857,4205,801,-15.0,200,0,1,991.6077,0,3,09_01_2014 level23_spatial_Clio 10_52 Block3-59.txt,37,37,1217,72.0,5.0,2014-01-09,False,separated,right
145,1001.0672,0,730,2058,2857,4205,551,-15.0,200,0,0,1001.6064,1,0,09_01_2014 level23_spatial_Clio 10_52 Block3-59.txt,37,37,1217,72.0,5.0,2014-01-09,False,colocated,left
146,1006.0406,0,730,2058,2857,4205,601,-15.0,200,0,0,1006.6504,1,0,09_01_2014 level23_spatial_Clio 10_52 Block3-59.txt,37,37,1217,72.0,5.0,2014-01-09,False,colocated,left
147,1010.4724,0,460,1105,2857,4205,701,-15.0,200,1,1,1010.8281,1,2,09_01_2014 level23_spatial_Clio 10_52 Block3-59.txt,37,37,1217,72.0,5.0,2014-01-09,False,separated,left
148,1016.0107,0,730,2058,2857,4205,501,-15.0,200,0,0,1018.0708,1,1,09_01_2014 level23_spatial_Clio 10_52 Block3-59.txt,37,37,1217,72.0,5.0,2014-01-09,False,colocated,right
149,1022.2503,0,460,1105,2857,4205,851,-15.0,200,1,1,1022.4583,1,0,09_01_2014 level23_spatial_Clio 10_52 Block3-59.txt,37,37,1217,72.0,5.0,2014-01-09,False,colocated,left
150,1030.6266,0,730,2058,2857,4205,1001,-15.0,200,0,0,1031.1116,1,2,09_01_2014 level23_spatial_Clio 10_52 Block3-59.txt,37,37,1217,72.0,5.0,2014-01-09,False,separated,left
151,1034.6496,0,460,1105,2857,4205,901,-15.0,200,1,1,1034.8985,1,1,09_01_2014 level23_spatial_Clio 10_52 Block3-59.txt,37,37,1217,72.0,5.0,2014-01-09,False,colocated,right
152,1047.2042,0,730,2058,2857,4205,801,-15.0,200,0,1,1047.4793,0,2,09_01_2014 level23_spatial_Clio 10_52 Block3-59.txt,37,37,1217,72.0,5.0,2014-01-09,False,separated,left
154,1073.8848,0,460,1105,2857,4205,551,-15.0,200,1,1,1074.3005,1,1,09_01_2014 level23_spatial_Clio 10_52 Block3-59.txt,37,37,1217,72.0,5.0,2014-01-09,False,colocated,right
1,5.454,0,460,1105,2857,4205,651,-15.0,200,1,1,6.3242,1,4,20_03_2014 level23_spatial_Clio 09_42 Block4-29.txt,37,37,1217,72.0,5.0,2014-03-20,False,single_speaker,left
2,12.0601,0,460,1105,2857,4205,901,-15.0,200,1,1,12.3761,1,4,20_03_2014 level23_spatial_Clio 09_42 Block4-29.txt,37,37,1217,72.0,5.0,2014-03-20,False,single_speaker,left
3,17.9571,0,460,1105,2857,4205,551,-15.0,200,1,1,18.3762,1,2,20_03_2014 level23_spatial_Clio 09_42 Block4-29.txt,37,37,1217,72.0,5.0,2014-03-20,False,separated,left
4,29.0218,0,730,2058,2857,4205,1001,-15.0,200,0,1,29.2863,0,3,20_03_2014 level23_spatial_Clio 09_42 Block4-29.txt,37,37,1217,72.0,5.0,2014-03-20,False,separated,right
7,56.446,1,730,2058,2857,4205,751,-15.0,200,0,0,56.7733,1,3,20_03_2014 level23_spatial_Clio 09_42 Block4-29.txt,37,37,1217,72.0,5.0,2014-03-20,False,separated,right
8,69.2532,0,730,2058,2857,4205,951,-15.0,200,0,0,69.7973,1,0,20_03_2014 level23_spatial_Clio 09_42 Block4-29.txt,37,37,1217,72.0,5.0,2014-03-20,False,colocated,left
9,79.8462,0,730,2058,2857,4205,801,-15.0,200,0,0,80.5394,1,0,20_03_2014 level23_spatial_Clio 09_42 Block4-29.txt,37,37,1217,72.0,5.0,2014-03-20,False,colocated,left
10,86.4781,0,460,1105,2857,4205,601,-15.0,200,1,0,87.1505,0,3,20_03_2014 level23_spatial_Clio 09_42 Block4-29.txt,37,37,1217,72.0,5.0,2014-03-20,False,separated,right
12,95.9357,0,460,1105,2857,4205,501,-15.0,200,1,1,96.6079,1,0,20_03_2014 level23_spatial_Clio 09_42 Block4-29.txt,37,37,1217,72.0,5.0,2014-03-20,False,colocated,left
13,101.131,0,460,1105,2857,4205,851,-15.0,200,1,0,101.6174,0,3,20_03_2014 level23_spatial_Clio 09_42 Block4-29.txt,37,37,1217,72.0,5.0,2014-03-20,False,separated,right
16,119.6278,0,460,1105,2857,4205,801,-15.0,200,1,1,121.9261,1,4,20_03_2014 level23_spatial_Clio 09_42 Block4-29.txt,37,37,1217,72.0,5.0,2014-03-20,False,single_speaker,left
17,125.7901,0,730,2058,2857,4205,701,-15.0,200,0,1,126.2091,0,1,20_03_2014 level23_spatial_Clio 09_42 Block4-29.txt,37,37,1217,72.0,5.0,2014-03-20,False,colocated,right
20,153.086,0,460,1105,2857,4205,901,-15.0,200,1,1,153.4146,1,2,20_03_2014 level23_spatial_Clio 09_42 Block4-29.txt,37,37,1217,72.0,5.0,2014-03-20,False,separated,left
21,158.2328,0,460,1105,2857,4205,851,-15.0,200,1,1,158.6804,1,5,20_03_2014 level23_spatial_Clio 09_42 Block4-29.txt,37,37,1217,72.0,5.0,2014-03-20,False,single_speaker,right
22,162.8541,0,730,2058,2857,4205,951,-15.0,200,0,1,163.1817,0,2,20_03_2014 level23_spatial_Clio 09_42 Block4-29.txt,37,37,1217,72.0,5.0,2014-03-20,False,separated,left
24,172.3288,0,730,2058,2857,4205,651,-15.0,200,0,0,172.806,1,4,20_03_2014 level23_spatial_Clio 09_42 Block4-29.txt,37,37,1217,72.0,5.0,2014-03-20,False,single_speaker,left
