Trial,StartTime,CenterReward,F1,F2,F3,F4,HoldTime,Atten,Pitch,Side,Response,RespTime,Correct,SpatialMask,SpatialCondition,originalFile,LeftTemperature,RightTemperature,fNum,vowel_level,SNR,day,treatment,VowelLocation
1,12.287,0,437,2761,2975,4263,576,-11.0,200,0,0,12.9087,1,5,single_speaker,27_11_2014 level23_spatial_Mini 09_32 log.txt,37,37,1216,68.0,1.0,2014-11-27,False,right
2,20.3939,0,936,1551,2975,4263,626,-11.0,200,1,0,20.7317,0,1,colocated,27_11_2014 level23_spatial_Mini 09_32 log.txt,37,37,1216,68.0,1.0,2014-11-27,False,right
5,42.0879,0,437,2761,2975,4263,501,-10.0,200,0,0,42.7145,1,5,single_speaker,27_11_2014 level23_spatial_Mini 09_32 log.txt,37,37,1216,67.0,0.0,2014-11-27,False,right
6,47.0409,0,936,1551,2975,4263,726,-12.0,200,1,0,47.4917,0,2,separated,27_11_2014 level23_spatial_Mini 09_32 log.txt,37,37,1216,69.0,2.0,2014-11-27,False,left
10,84.7535,0,936,1551,2975,4263,526,-12.0,200,1,1,85.3159,1,1,colocated,27_11_2014 level23_spatial_Mini 09_32 log.txt,37,37,1216,69.0,2.0,2014-11-27,False,right
11,91.0703,0,936,1551,2975,4263,701,-12.0,200,1,1,91.8121,1,4,single_speaker,27_11_2014 level23_spatial_Mini 09_32 log.txt,37,37,1216,69.0,2.0,2014-11-27,False,left
12,101.7852,0,437,2761,2975,4263,601,-10.0,200,0,0,102.55,1,3,separated,27_11_2014 level23_spatial_Mini 09_32 log.txt,37,37,1216,67.0,0.0,2014-11-27,False,right
13,112.7718,0,437,2761,2975,4263,751,-11.0,200,0,0,113.4605,1,4,single_speaker,27_11_2014 level23_spatial_Mini 09_32 log.txt,37,37,1216,68.0,1.0,2014-11-27,False,left
14,118.002,0,936,1551,2975,4263,651,-15.0,200,1,1,118.5504,1,4,single_speaker,27_11_2014 level23_spatial_Mini 09_32 log.txt,37,37,1216,72.0,5.0,2014-11-27,False,left
15,124.2897,1,437,2761,2975,4263,676,-12.0,200,0,0,124.7889,1,4,single_speaker,27_11_2014 level23_spatial_Mini 09_32 log.txt,37,37,1216,69.0,2.0,2014-11-27,False,left
16,129.9123,0,437,2761,2975,4263,726,-15.0,200,0,0,130.1716,1,3,separated,27_11_2014 level23_spatial_Mini 09_32 log.txt,37,37,1216,72.0,5.0,2014-11-27,False,right
17,134.8299,0,936,1551,2975,4263,751,-15.0,200,1,1,135.3295,1,3,separated,27_11_2014 level23_spatial_Mini 09_32 log.txt,37,37,1216,72.0,5.0,2014-11-27,False,right
18,140.5874,0,437,2761,2975,4263,601,-14.0,200,0,0,141.5767,1,3,separated,27_11_2014 level23_spatial_Mini 09_32 log.txt,37,37,1216,71.0,4.0,2014-11-27,False,right
19,147.1293,0,437,2761,2975,4263,651,-15.0,200,0,0,147.5257,1,4,single_speaker,27_11_2014 level23_spatial_Mini 09_32 log.txt,37,37,1216,72.0,5.0,2014-11-27,False,left
20,152.0834,0,936,1551,2975,4263,526,-10.0,200,1,1,152.5542,1,4,single_speaker,27_11_2014 level23_spatial_Mini 09_32 log.txt,37,37,1216,67.0,0.0,2014-11-27,False,left
21,158.7088,0,936,1551,2975,4263,701,-10.0,200,1,0,159.0599,0,0,colocated,27_11_2014 level23_spatial_Mini 09_32 log.txt,37,37,1216,67.0,0.0,2014-11-27,False,left
23,172.7781,0,437,2761,2975,4263,501,-14.0,200,0,0,173.2685,1,4,single_speaker,27_11_2014 level23_spatial_Mini 09_32 log.txt,37,37,1216,71.0,4.0,2014-11-27,False,left
24,178.0394,0,437,2761,2975,4263,626,-14.0,200,0,0,178.3884,1,1,colocated,27_11_2014 level23_spatial_Mini 09_32 log.txt,37,37,1216,71.0,4.0,2014-11-27,False,right
25,182.9536,0,936,1551,2975,4263,676,-10.0,200,1,1,183.409,1,1,colocated,27_11_2014 level23_spatial_Mini 09_32 log.txt,37,37,1216,67.0,0.0,2014-11-27,False,right
26,189.7799,0,437,2761,2975,4263,576,-11.0,200,0,0,190.1397,1,3,separated,27_11_2014 level23_spatial_Mini 09_32 log.txt,37,37,1216,68.0,1.0,2014-11-27,False,right
27,193.9824,0,936,1551,2975,4263,601,-11.0,200,1,1,194.5985,1,5,single_speaker,27_11_2014 level23_spatial_Mini 09_32 log.txt,37,37,1216,68.0,1.0,2014-11-27,False,right
28,205.4258,0,437,2761,2975,4263,726,-15.0,200,0,0,205.934,1,5,single_speaker,27_11_2014 level23_spatial_Mini 09_32 log.txt,37,37,1216,72.0,5.0,2014-11-27,False,right
29,209.5056,0,936,1551,2975,4263,626,-11.0,200,1,1,209.9794,1,4,single_speaker,27_11_2014 level23_spatial_Mini 09_32 log.txt,37,37,1216,68.0,1.0,2014-11-27,False,left
30,215.4273,0,936,1551,2975,4263,751,-11.0,200,1,1,216.2177,1,2,separated,27_11_2014 level23_spatial_Mini 09_32 log.txt,37,37,1216,68.0,1.0,2014-11-27,False,left
31,222.2315,0,936,1551,2975,4263,676,-12.0,200,1,1,222.9271,1,5,single_speaker,27_11_2014 level23_spatial_Mini 09_32 log.txt,37,37,1216,69.0,2.0,2014-11-27,False,right
32,227.8006,1,936,1551,2975,4263,526,-14.0,200,1,0,228.3494,0,0,colocated,27_11_2014 level23_spatial_Mini 09_32 log.txt,37,37,1216,71.0,4.0,2014-11-27,False,left
34,251.8063,0,936,1551,2975,4263,651,-11.0,200,1,1,252.5729,1,3,separated,27_11_2014 level23_spatial_Mini 09_32 log.txt,37,37,1216,68.0,1.0,2014-11-27,False,right
35,259.8157,0,936,1551,2975,4263,551,-14.0,200,1,0,260.7939,0,3,separated,27_11_2014 level23_spatial_Mini 09_32 log.txt,37,37,1216,71.0,4.0,2014-11-27,False,right
37,274.4379,1,437,2761,2975,4263,576,-10.0,200,0,0,275.3196,1,0,colocated,27_11_2014 level23_spatial_Mini 09_32 log.txt,37,37,1216,67.0,0.0,2014-11-27,False,left
38,278.671,0,936,1551,2975,4263,501,-15.0,200,1,1,280.4366,1,2,separated,27_11_2014 level23_spatial_Mini 09_32 log.txt,37,37,1216,72.0,5.0,2014-11-27,False,left
39,286.6621,0,936,1551,2975,4263,501,-15.0,200,1,1,287.4708,1,5,single_speaker,27_11_2014 level23_spatial_Mini 09_32 log.txt,37,37,1216,72.0,5.0,2014-11-27,False,right
40,296.5183,0,936,1551,2975,4263,576,-14.0,200,1,0,297.2429,0,4,single_speaker,27_11_2014 level23_spatial_Mini 09_32 log.txt,37,37,1216,71.0,4.0,2014-11-27,False,left
43,324.1303,0,437,2761,2975,4263,526,-11.0,200,0,0,324.7558,1,0,colocated,27_11_2014 level23_spatial_Mini 09_32 log.txt,37,37,1216,68.0,1.0,2014-11-27,False,left
44,329.0795,0,936,1551,2975,4263,751,-15.0,200,1,1,329.9601,1,0,colocated,27_11_2014 level23_spatial_Mini 09_32 log.txt,37,37,1216,72.0,5.0,2014-11-27,False,left
45,334.7678,0,437,2761,2975,4263,601,-14.0,200,0,0,335.2366,1,5,single_speaker,27_11_2014 level23_spatial_Mini 09_32 log.txt,37,37,1216,71.0,4.0,2014-11-27,False,right
46,339.1906,0,437,2761,2975,4263,626,-12.0,200,0,0,339.6444,1,1,colocated,27_11_2014 level23_spatial_Mini 09_32 log.txt,37,37,1216,69.0,2.0,2014-11-27,False,right
47,344.6583,0,437,2761,2975,4263,726,-14.0,200,0,1,345.1628,0,0,colocated,27_11_2014 level23_spatial_Mini 09_32 log.txt,37,37,1216,71.0,4.0,2014-11-27,False,left
50,366.5752,0,936,1551,2975,4263,651,-14.0,200,1,1,367.3285,1,5,single_speaker,27_11_2014 level23_spatial_Mini 09_32 log.txt,37,37,1216,71.0,4.0,2014-11-27,False,right
51,373.9321,0,437,2761,2975,4263,551,-15.0,200,0,0,374.3429,1,2,separated,27_11_2014 level23_spatial_Mini 09_32 log.txt,37,37,1216,72.0,5.0,2014-11-27,False,left
52,379.5887,0,437,2761,2975,4263,701,-12.0,200,0,0,379.957,1,0,colocated,27_11_2014 level23_spatial_Mini 09_32 log.txt,37,37,1216,69.0,2.0,2014-11-27,False,left
53,384.7856,0,936,1551,2975,4263,651,-14.0,200,1,1,385.4254,1,1,colocated,27_11_2014 level23_spatial_Mini 09_32 log.txt,37,37,1216,71.0,4.0,2014-11-27,False,right
54,391.911,0,437,2761,2975,4263,551,-12.0,200,0,0,392.2111,1,2,separated,27_11_2014 level23_spatial_Mini 09_32 log.txt,37,37,1216,69.0,2.0,2014-11-27,False,left
55,397.6348,0,936,1551,2975,4263,576,-12.0,200,1,1,398.146,1,0,colocated,27_11_2014 level23_spatial_Mini 09_32 log.txt,37,37,1216,69.0,2.0,2014-11-27,False,left
56,404.8854,0,936,1551,2975,4263,626,-15.0,200,1,0,405.7742,0,1,colocated,27_11_2014 level23_spatial_Mini 09_32 log.txt,37,37,1216,72.0,5.0,2014-11-27,False,right
58,421.8559,0,437,2761,2975,4263,676,-10.0,200,0,0,423.412,1,1,colocated,27_11_2014 level23_spatial_Mini 09_32 log.txt,37,37,1216,67.0,0.0,2014-11-27,False,right
59,429.3091,1,936,1551,2975,4263,726,-10.0,200,1,1,429.8141,1,3,separated,27_11_2014 level23_spatial_Mini 09_32 log.txt,37,37,1216,67.0,0.0,2014-11-27,False,right
60,434.7103,1,437,2761,2975,4263,501,-10.0,200,0,0,436.8458,1,2,separated,27_11_2014 level23_spatial_Mini 09_32 log.txt,37,37,1216,67.0,0.0,2014-11-27,False,left
61,442.1553,0,936,1551,2975,4263,751,-11.0,200,1,1,443.2676,1,0,colocated,27_11_2014 level23_spatial_Mini 09_32 log.txt,37,37,1216,68.0,1.0,2014-11-27,False,left
62,450.6001,0,936,1551,2975,4263,526,-10.0,200,1,1,451.5394,1,5,single_speaker,27_11_2014 level23_spatial_Mini 09_32 log.txt,37,37,1216,67.0,0.0,2014-11-27,False,right
63,458.0293,0,936,1551,2975,4263,601,-12.0,200,1,0,458.581,0,3,separated,27_11_2014 level23_spatial_Mini 09_32 log.txt,37,37,1216,69.0,2.0,2014-11-27,False,right
65,473.5626,0,437,2761,2975,4263,751,-15.0,200,0,0,473.9613,1,1,colocated,27_11_2014 level23_spatial_Mini 09_32 log.txt,37,37,1216,72.0,5.0,2014-11-27,False,right
66,479.2895,0,936,1551,2975,4263,601,-14.0,200,1,1,479.708,1,2,separated,27_11_2014 level23_spatial_Mini 09_32 log.txt,37,37,1216,71.0,4.0,2014-11-27,False,left
67,486.073,0,437,2761,2975,4263,651,-12.0,200,0,0,486.6977,1,5,single_speaker,27_11_2014 level23_spatial_Mini 09_32 log.txt,37,37,1216,69.0,2.0,2014-11-27,False,right
68,490.9944,0,936,1551,2975,4263,701,-10.0,200,1,1,491.5651,1,2,separated,27_11_2014 level23_spatial_Mini 09_32 log.txt,37,37,1216,67.0,0.0,2014-11-27,False,left
69,497.6359,0,437,2761,2975,4263,626,-11.0,200,0,1,498.9415,0,1,colocated,27_11_2014 level23_spatial_Mini 09_32 log.txt,37,37,1216,68.0,1.0,2014-11-27,False,right
71,512.8521,1,437,2761,2975,4263,676,-14.0,200,0,0,513.3273,1,2,separated,27_11_2014 level23_spatial_Mini 09_32 log.txt,37,37,1216,71.0,4.0,2014-11-27,False,left
72,517.4901,0,437,2761,2975,4263,726,-12.0,200,0,0,518.7478,1,3,separated,27_11_2014 level23_spatial_Mini 09_32 log.txt,37,37,1216,69.0,2.0,2014-11-27,False,right
73,522.6578,0,437,2761,2975,4263,551,-10.0,200,0,0,523.6558,1,4,single_speaker,27_11_2014 level23_spatial_Mini 09_32 log.txt,37,37,1216,67.0,0.0,2014-11-27,False,left
74,528.0866,0,437,2761,2975,4263,526,-11.0,200,0,0,528.6745,1,2,separated,27_11_2014 level23_spatial_Mini 09_32 log.txt,37,37,1216,68.0,1.0,2014-11-27,False,left
75,533.8532,0,437,2761,2975,4263,576,-15.0,200,0,0,534.7484,1,0,colocated,27_11_2014 level23_spatial_Mini 09_32 log.txt,37,37,1216,72.0,5.0,2014-11-27,False,left
76,541.4641,0,437,2761,2975,4263,501,-12.0,200,0,0,541.8928,1,1,colocated,27_11_2014 level23_spatial_Mini 09_32 log.txt,37,37,1216,69.0,2.0,2014-11-27,False,right
77,546.6303,0,936,1551,2975,4263,626,-12.0,200,1,1,547.2204,1,4,single_speaker,27_11_2014 level23_spatial_Mini 09_32 log.txt,37,37,1216,69.0,2.0,2014-11-27,False,left
78,552.9564,0,437,2761,2975,4263,526,-11.0,200,0,0,553.5314,1,3,separated,27_11_2014 level23_spatial_Mini 09_32 log.txt,37,37,1216,68.0,1.0,2014-11-27,False,right
79,557.9944,0,437,2761,2975,4263,701,-15.0,200,0,0,558.3542,1,3,separated,27_11_2014 level23_spatial_Mini 09_32 log.txt,37,37,1216,72.0,5.0,2014-11-27,False,right
80,562.0656,0,936,1551,2975,4263,601,-12.0,200,1,1,562.7463,1,0,colocated,27_11_2014 level23_spatial_Mini 09_32 log.txt,37,37,1216,69.0,2.0,2014-11-27,False,left
81,570.5357,0,437,2761,2975,4263,751,-14.0,200,0,0,571.2731,1,0,colocated,27_11_2014 level23_spatial_Mini 09_32 log.txt,37,37,1216,71.0,4.0,2014-11-27,False,left
82,576.3913,0,936,1551,2975,4263,551,-12.0,200,1,0,578.4855,0,1,colocated,27_11_2014 level23_spatial_Mini 09_32 log.txt,37,37,1216,69.0,2.0,2014-11-27,False,right
84,591.8337,0,936,1551,2975,4263,676,-11.0,200,1,1,592.4061,1,2,separated,27_11_2014 level23_spatial_Mini 09_32 log.txt,37,37,1216,68.0,1.0,2014-11-27,False,left
85,598.818,0,437,2761,2975,4263,651,-14.0,200,0,0,599.4173,1,3,separated,27_11_2014 level23_spatial_Mini 09_32 log.txt,37,37,1216,71.0,4.0,2014-11-27,False,right
86,602.4641,0,437,2761,2975,4263,576,-15.0,200,0,0,602.8888,1,4,single_speaker,27_11_2014 level23_spatial_Mini 09_32 log.txt,37,37,1216,72.0,5.0,2014-11-27,False,left
87,607.0154,0,437,2761,2975,4263,626,-14.0,200,0,0,607.4776,1,5,single_speaker,27_11_2014 level23_spatial_Mini 09_32 log.txt,37,37,1216,71.0,4.0,2014-11-27,False,right
88,611.7154,0,936,1551,2975,4263,726,-10.0,200,1,1,612.2434,1,4,single_speaker,27_11_2014 level23_spatial_Mini 09_32 log.txt,37,37,1216,67.0,0.0,2014-11-27,False,left
89,615.384,0,437,2761,2975,4263,551,-10.0,200,0,0,617.0587,1,5,single_speaker,27_11_2014 level23_spatial_Mini 09_32 log.txt,37,37,1216,67.0,0.0,2014-11-27,False,right
90,620.7218,0,936,1551,2975,4263,501,-11.0,200,1,1,621.4244,1,5,single_speaker,27_11_2014 level23_spatial_Mini 09_32 log.txt,37,37,1216,68.0,1.0,2014-11-27,False,right
91,625.1832,0,437,2761,2975,4263,651,-12.0,200,0,0,625.8922,1,4,single_speaker,27_11_2014 level23_spatial_Mini 09_32 log.txt,37,37,1216,69.0,2.0,2014-11-27,False,left
92,630.6028,0,936,1551,2975,4263,751,-10.0,200,1,1,631.5728,1,5,single_speaker,27_11_2014 level23_spatial_Mini 09_32 log.txt,37,37,1216,67.0,0.0,2014-11-27,False,right
93,635.2043,0,437,2761,2975,4263,701,-14.0,200,0,0,636.3247,1,1,colocated,27_11_2014 level23_spatial_Mini 09_32 log.txt,37,37,1216,71.0,4.0,2014-11-27,False,right
94,639.9998,0,437,2761,2975,4263,526,-10.0,200,0,1,641.1949,0,2,separated,27_11_2014 level23_spatial_Mini 09_32 log.txt,37,37,1216,67.0,0.0,2014-11-27,False,left
96,655.3595,0,936,1551,2975,4263,576,-11.0,200,1,1,656.5677,1,3,separated,27_11_2014 level23_spatial_Mini 09_32 log.txt,37,37,1216,68.0,1.0,2014-11-27,False,right
97,675.1923,0,936,1551,2975,4263,676,-14.0,200,1,0,675.5497,0,0,colocated,27_11_2014 level23_spatial_Mini 09_32 log.txt,37,37,1216,71.0,4.0,2014-11-27,False,left
1,6.7123,0,437,2761,2975,4263,503,-15.0,200,0,1,14.2356,0,0,colocated,10_04_2014 level23_spatial_Mini 14_53 log.txt,37,37,1216,72.0,5.0,2014-04-10,False,left
3,33.1681,0,936,1551,2975,4263,506,-13.0,200,1,1,33.4757,1,1,colocated,10_04_2014 level23_spatial_Mini 14_53 log.txt,37,37,1216,70.0,3.0,2014-04-10,False,right
4,36.8853,1,437,2761,2975,4263,508,-13.0,200,0,1,39.6119,0,5,single_speaker,10_04_2014 level23_spatial_Mini 14_53 log.txt,37,37,1216,70.0,3.0,2014-04-10,False,right
8,71.3353,1,437,2761,2975,4263,509,-13.0,200,0,1,71.7893,0,1,colocated,10_04_2014 level23_spatial_Mini 14_53 log.txt,37,37,1216,70.0,3.0,2014-04-10,False,right
11,105.4929,1,437,2761,2975,4263,501,-8.0,200,0,1,109.1706,0,2,separated,10_04_2014 level23_spatial_Mini 14_53 log.txt,37,37,1216,65.0,-2.0,2014-04-10,False,left
13,122.1754,0,936,1551,2975,4263,510,-10.0,200,1,0,123.3845,0,1,colocated,10_04_2014 level23_spatial_Mini 14_53 log.txt,37,37,1216,67.0,0.0,2014-04-10,False,right
15,131.1557,0,936,1551,2975,4263,507,-15.0,200,1,1,132.0218,1,4,single_speaker,10_04_2014 level23_spatial_Mini 14_53 log.txt,37,37,1216,72.0,5.0,2014-04-10,False,left
16,135.3122,1,936,1551,2975,4263,505,-6.0,200,1,1,137.817,1,0,colocated,10_04_2014 level23_spatial_Mini 14_53 log.txt,37,37,1216,63.0,-4.0,2014-04-10,False,left
17,141.3174,1,437,2761,2975,4263,511,-8.0,200,0,1,144.92,0,5,single_speaker,10_04_2014 level23_spatial_Mini 14_53 log.txt,37,37,1216,65.0,-2.0,2014-04-10,False,right
19,156.3275,0,437,2761,2975,4263,502,-10.0,200,0,1,157.2035,0,2,separated,10_04_2014 level23_spatial_Mini 14_53 log.txt,37,37,1216,67.0,0.0,2014-04-10,False,left
21,169.7733,1,936,1551,2975,4263,510,-8.0,200,1,1,172.9527,1,5,single_speaker,10_04_2014 level23_spatial_Mini 14_53 log.txt,37,37,1216,65.0,-2.0,2014-04-10,False,right
22,176.6505,1,936,1551,2975,4263,508,-10.0,200,1,1,179.6371,1,4,single_speaker,10_04_2014 level23_spatial_Mini 14_53 log.txt,37,37,1216,67.0,0.0,2014-04-10,False,left
23,182.4995,1,936,1551,2975,4263,504,-13.0,200,1,1,185.1443,1,0,colocated,10_04_2014 level23_spatial_Mini 14_53 log.txt,37,37,1216,70.0,3.0,2014-04-10,False,left
24,188.4138,1,936,1551,2975,4263,511,-10.0,200,1,1,190.8445,1,0,colocated,10_04_2014 level23_spatial_Mini 14_53 log.txt,37,37,1216,67.0,0.0,2014-04-10,False,left
25,193.8833,0,936,1551,2975,4263,502,-6.0,200,1,0,195.2509,0,1,colocated,10_04_2014 level23_spatial_Mini 14_53 log.txt,37,37,1216,63.0,-4.0,2014-04-10,False,right
27,203.372,1,936,1551,2975,4263,503,-15.0,200,1,1,205.6745,1,2,separated,10_04_2014 level23_spatial_Mini 14_53 log.txt,37,37,1216,72.0,5.0,2014-04-10,False,left
28,209.014,0,437,2761,2975,4263,506,-8.0,200,0,0,210.4671,1,0,colocated,10_04_2014 level23_spatial_Mini 14_53 log.txt,37,37,1216,65.0,-2.0,2014-04-10,False,left
29,216.6952,1,437,2761,2975,4263,501,-13.0,200,0,1,219.2759,0,4,single_speaker,10_04_2014 level23_spatial_Mini 14_53 log.txt,37,37,1216,70.0,3.0,2014-04-10,False,left
31,234.4539,0,936,1551,2975,4263,507,-8.0,200,1,1,235.2918,1,0,colocated,10_04_2014 level23_spatial_Mini 14_53 log.txt,37,37,1216,65.0,-2.0,2014-04-10,False,left
32,238.5881,1,936,1551,2975,4263,509,-15.0,200,1,1,240.1234,1,1,colocated,10_04_2014 level23_spatial_Mini 14_53 log.txt,37,37,1216,72.0,5.0,2014-04-10,False,right
33,243.1748,1,936,1551,2975,4263,506,-6.0,200,1,1,244.81,1,5,single_speaker,10_04_2014 level23_spatial_Mini 14_53 log.txt,37,37,1216,63.0,-4.0,2014-04-10,False,right
34,248.2376,1,437,2761,2975,4263,503,-10.0,200,0,0,251.8923,1,0,colocated,10_04_2014 level23_spatial_Mini 14_53 log.txt,37,37,1216,67.0,0.0,2014-04-10,False,left
35,259.1388,1,437,2761,2975,4263,505,-6.0,200,0,1,261.5892,0,1,colocated,10_04_2014 level23_spatial_Mini 14_53 log.txt,37,37,1216,63.0,-4.0,2014-04-10,False,right
37,279.1824,0,936,1551,2975,4263,508,-15.0,200,1,1,280.2952,1,3,separated,10_04_2014 level23_spatial_Mini 14_53 log.txt,37,37,1216,72.0,5.0,2014-04-10,False,right
38,283.6507,0,936,1551,2975,4263,511,-10.0,200,1,1,284.5101,1,3,separated,10_04_2014 level23_spatial_Mini 14_53 log.txt,37,37,1216,67.0,0.0,2014-04-10,False,right
39,287.0128,1,437,2761,2975,4263,509,-15.0,200,0,0,289.7195,1,3,separated,10_04_2014 level23_spatial_Mini 14_53 log.txt,37,37,1216,72.0,5.0,2014-04-10,False,right
40,295.8439,1,936,1551,2975,4263,502,-8.0,200,1,1,299.4335,1,4,single_speaker,10_04_2014 level23_spatial_Mini 14_53 log.txt,37,37,1216,65.0,-2.0,2014-04-10,False,left
41,302.487,1,437,2761,2975,4263,507,-10.0,200,0,1,305.3952,0,5,single_speaker,10_04_2014 level23_spatial_Mini 14_53 log.txt,37,37,1216,67.0,0.0,2014-04-10,False,right
44,327.0896,1,437,2761,2975,4263,504,-6.0,200,0,0,328.9993,1,5,single_speaker,10_04_2014 level23_spatial_Mini 14_53 log.txt,37,37,1216,63.0,-4.0,2014-04-10,False,right
45,332.6712,1,437,2761,2975,4263,510,-10.0,200,0,0,334.8118,1,4,single_speaker,10_04_2014 level23_spatial_Mini 14_53 log.txt,37,37,1216,67.0,0.0,2014-04-10,False,left
46,340.8249,1,936,1551,2975,4263,502,-10.0,200,1,1,343.7451,1,5,single_speaker,10_04_2014 level23_spatial_Mini 14_53 log.txt,37,37,1216,67.0,0.0,2014-04-10,False,right
47,346.8877,0,437,2761,2975,4263,510,-15.0,200,0,1,348.0159,0,4,single_speaker,10_04_2014 level23_spatial_Mini 14_53 log.txt,37,37,1216,72.0,5.0,2014-04-10,False,left
49,362.7804,1,936,1551,2975,4263,509,-8.0,200,1,1,365.2791,1,1,colocated,10_04_2014 level23_spatial_Mini 14_53 log.txt,37,37,1216,65.0,-2.0,2014-04-10,False,right
50,368.26,1,437,2761,2975,4263,505,-13.0,200,0,1,370.7008,0,0,colocated,10_04_2014 level23_spatial_Mini 14_53 log.txt,37,37,1216,70.0,3.0,2014-04-10,False,left
53,383.959,1,437,2761,2975,4263,507,-8.0,200,0,0,387.6395,1,3,separated,10_04_2014 level23_spatial_Mini 14_53 log.txt,37,37,1216,65.0,-2.0,2014-04-10,False,right
54,394.2025,0,437,2761,2975,4263,511,-15.0,200,0,1,395.5717,0,1,colocated,10_04_2014 level23_spatial_Mini 14_53 log.txt,37,37,1216,72.0,5.0,2014-04-10,False,right
56,411.7477,0,437,2761,2975,4263,508,-6.0,200,0,0,412.804,1,3,separated,10_04_2014 level23_spatial_Mini 14_53 log.txt,37,37,1216,63.0,-4.0,2014-04-10,False,right
57,416.4546,1,936,1551,2975,4263,503,-13.0,200,1,0,418.7797,0,2,separated,10_04_2014 level23_spatial_Mini 14_53 log.txt,37,37,1216,70.0,3.0,2014-04-10,False,left
59,425.1204,1,437,2761,2975,4263,504,-13.0,200,0,1,428.0758,0,3,separated,10_04_2014 level23_spatial_Mini 14_53 log.txt,37,37,1216,70.0,3.0,2014-04-10,False,right
61,438.6669,1,936,1551,2975,4263,501,-8.0,200,1,1,441.9915,1,3,separated,10_04_2014 level23_spatial_Mini 14_53 log.txt,37,37,1216,65.0,-2.0,2014-04-10,False,right
62,446.203,0,437,2761,2975,4263,501,-15.0,200,0,0,447.7189,1,2,separated,10_04_2014 level23_spatial_Mini 14_53 log.txt,37,37,1216,72.0,5.0,2014-04-10,False,left
63,453.0044,0,936,1551,2975,4263,511,-8.0,200,1,0,455.1851,0,2,separated,10_04_2014 level23_spatial_Mini 14_53 log.txt,37,37,1216,65.0,-2.0,2014-04-10,False,left
65,461.537,0,936,1551,2975,4263,506,-6.0,200,1,1,462.5522,1,2,separated,10_04_2014 level23_spatial_Mini 14_53 log.txt,37,37,1216,63.0,-4.0,2014-04-10,False,left
66,465.9796,1,936,1551,2975,4263,503,-13.0,200,1,1,469.8271,1,3,separated,10_04_2014 level23_spatial_Mini 14_53 log.txt,37,37,1216,70.0,3.0,2014-04-10,False,right
67,473.2747,0,437,2761,2975,4263,502,-8.0,200,0,0,474.2523,1,4,single_speaker,10_04_2014 level23_spatial_Mini 14_53 log.txt,37,37,1216,65.0,-2.0,2014-04-10,False,left
68,481.1483,1,936,1551,2975,4263,504,-15.0,200,1,1,484.1221,1,0,colocated,10_04_2014 level23_spatial_Mini 14_53 log.txt,37,37,1216,72.0,5.0,2014-04-10,False,left
69,487.6648,0,936,1551,2975,4263,510,-15.0,200,1,1,488.7042,1,5,single_speaker,10_04_2014 level23_spatial_Mini 14_53 log.txt,37,37,1216,72.0,5.0,2014-04-10,False,right
70,492.3218,1,437,2761,2975,4263,509,-13.0,200,0,0,496.1127,1,2,separated,10_04_2014 level23_spatial_Mini 14_53 log.txt,37,37,1216,70.0,3.0,2014-04-10,False,left
71,499.5526,0,437,2761,2975,4263,507,-8.0,200,0,0,501.946,1,1,colocated,10_04_2014 level23_spatial_Mini 14_53 log.txt,37,37,1216,65.0,-2.0,2014-04-10,False,right
72,507.7833,1,437,2761,2975,4263,508,-6.0,200,0,1,510.6588,0,0,colocated,10_04_2014 level23_spatial_Mini 14_53 log.txt,37,37,1216,63.0,-4.0,2014-04-10,False,left
75,528.9477,0,437,2761,2975,4263,502,-10.0,200,0,1,529.7277,0,1,colocated,10_04_2014 level23_spatial_Mini 14_53 log.txt,37,37,1216,67.0,0.0,2014-04-10,False,right
78,559.1749,1,936,1551,2975,4263,509,-13.0,200,1,1,560.9627,1,5,single_speaker,10_04_2014 level23_spatial_Mini 14_53 log.txt,37,37,1216,70.0,3.0,2014-04-10,False,right
79,563.5936,0,936,1551,2975,4263,508,-6.0,200,1,0,565.5433,0,4,single_speaker,10_04_2014 level23_spatial_Mini 14_53 log.txt,37,37,1216,63.0,-4.0,2014-04-10,False,left
81,577.8915,0,437,2761,2975,4263,506,-10.0,200,0,1,579.4442,0,3,separated,10_04_2014 level23_spatial_Mini 14_53 log.txt,37,37,1216,67.0,0.0,2014-04-10,False,right
83,758.8006,0,437,2761,2975,4263,505,-6.0,200,0,1,787.5781,0,2,separated,10_04_2014 level23_spatial_Mini 14_53 log.txt,37,37,1216,63.0,-4.0,2014-04-10,False,left
86,803.5862,1,936,1551,2975,4263,510,-10.0,200,1,1,805.3745,1,2,separated,10_04_2014 level23_spatial_Mini 14_53 log.txt,37,37,1216,67.0,0.0,2014-04-10,False,left
87,807.8195,1,437,2761,2975,4263,503,-6.0,200,0,1,810.1428,0,4,single_speaker,10_04_2014 level23_spatial_Mini 14_53 log.txt,37,37,1216,63.0,-4.0,2014-04-10,False,left
89,819.9102,0,437,2761,2975,4263,504,-15.0,200,0,0,821.163,1,5,single_speaker,10_04_2014 level23_spatial_Mini 14_53 log.txt,37,37,1216,72.0,5.0,2014-04-10,False,right
90,824.0604,0,936,1551,2975,4263,511,-13.0,200,1,1,824.834,1,4,single_speaker,10_04_2014 level23_spatial_Mini 14_53 log.txt,37,37,1216,70.0,3.0,2014-04-10,False,left
91,827.4446,1,936,1551,2975,4263,501,-6.0,200,1,1,829.3811,1,3,separated,10_04_2014 level23_spatial_Mini 14_53 log.txt,37,37,1216,63.0,-4.0,2014-04-10,False,right
92,884.8441,0,437,2761,2975,4263,508,-8.0,200,0,0,887.4517,1,1,colocated,10_04_2014 level23_spatial_Mini 14_53 log.txt,37,37,1216,65.0,-2.0,2014-04-10,False,right
93,891.2171,0,437,2761,2975,4263,502,-15.0,200,0,0,891.8789,1,4,single_speaker,10_04_2014 level23_spatial_Mini 14_53 log.txt,37,37,1216,72.0,5.0,2014-04-10,False,left
94,895.2862,0,437,2761,2975,4263,504,-10.0,200,0,0,897.1008,1,4,single_speaker,10_04_2014 level23_spatial_Mini 14_53 log.txt,37,37,1216,67.0,0.0,2014-04-10,False,left
95,901.1389,0,437,2761,2975,4263,506,-13.0,200,0,1,901.9646,0,3,separated,10_04_2014 level23_spatial_Mini 14_53 log.txt,37,37,1216,70.0,3.0,2014-04-10,False,right
99,987.1294,0,936,1551,2975,4263,509,-15.0,200,1,1,988.737,1,4,single_speaker,10_04_2014 level23_spatial_Mini 14_53 log.txt,37,37,1216,72.0,5.0,2014-04-10,False,left
100,991.3704,0,437,2761,2975,4263,510,-8.0,200,0,1,992.5605,0,5,single_speaker,10_04_2014 level23_spatial_Mini 14_53 log.txt,37,37,1216,65.0,-2.0,2014-04-10,False,right
1,151.2821,0,437,2761,2975,4263,508,-10.0,200,0,0,152.1298,1,2,separated,19_11_2014 level23_spatial_Mini 13_54 log.txt,37,37,1216,67.0,0.0,2014-11-19,False,left
2,159.0993,1,437,2761,2975,4263,511,-10.0,200,0,0,160.297,1,5,single_speaker,19_11_2014 level23_spatial_Mini 13_54 log.txt,37,37,1216,67.0,0.0,2014-11-19,False,right
3,172.0892,0,936,1551,2975,4263,504,-6.0,200,1,1,172.8215,1,2,separated,19_11_2014 level23_spatial_Mini 13_54 log.txt,37,37,1216,63.0,-4.0,2014-11-19,False,left
4,184.2045,1,936,1551,2975,4263,506,-15.0,200,1,0,184.6669,0,0,colocated,19_11_2014 level23_spatial_Mini 13_54 log.txt,37,37,1216,72.0,5.0,2014-11-19,False,left
6,201.5516,1,437,2761,2975,4263,505,-10.0,200,0,1,202.3276,0,0,colocated,19_11_2014 level23_spatial_Mini 13_54 log.txt,37,37,1216,67.0,0.0,2014-11-19,False,left
9,218.5358,0,936,1551,2975,4263,507,-10.0,200,1,1,220.0209,1,4,single_speaker,19_11_2014 level23_spatial_Mini 13_54 log.txt,37,37,1216,67.0,0.0,2014-11-19,False,left
10,225.1777,1,437,2761,2975,4263,503,-6.0,200,0,1,227.2372,0,0,colocated,19_11_2014 level23_spatial_Mini 13_54 log.txt,37,37,1216,63.0,-4.0,2014-11-19,False,left
12,239.1464,0,936,1551,2975,4263,509,-13.0,200,1,0,239.2251,0,5,single_speaker,19_11_2014 level23_spatial_Mini 13_54 log.txt,37,37,1216,70.0,3.0,2014-11-19,False,right
15,254.8349,1,437,2761,2975,4263,501,-13.0,200,0,1,256.9812,0,3,separated,19_11_2014 level23_spatial_Mini 13_54 log.txt,37,37,1216,70.0,3.0,2014-11-19,False,right
19,276.43,0,437,2761,2975,4263,510,-13.0,200,0,1,277.3997,0,5,single_speaker,19_11_2014 level23_spatial_Mini 13_54 log.txt,37,37,1216,70.0,3.0,2014-11-19,False,right
22,286.8842,1,936,1551,2975,4263,506,-10.0,200,1,0,287.487,0,3,separated,19_11_2014 level23_spatial_Mini 13_54 log.txt,37,37,1216,67.0,0.0,2014-11-19,False,right
25,307.5474,1,936,1551,2975,4263,511,-8.0,200,1,1,309.9484,1,0,colocated,19_11_2014 level23_spatial_Mini 13_54 log.txt,37,37,1216,65.0,-2.0,2014-11-19,False,left
26,313.6897,0,437,2761,2975,4263,501,-8.0,200,0,1,315.4628,0,5,single_speaker,19_11_2014 level23_spatial_Mini 13_54 log.txt,37,37,1216,65.0,-2.0,2014-11-19,False,right
28,323.8307,1,437,2761,2975,4263,503,-15.0,200,0,0,326.3157,1,4,single_speaker,19_11_2014 level23_spatial_Mini 13_54 log.txt,37,37,1216,72.0,5.0,2014-11-19,False,left
29,329.4002,1,936,1551,2975,4263,505,-15.0,200,1,0,331.7904,0,3,separated,19_11_2014 level23_spatial_Mini 13_54 log.txt,37,37,1216,72.0,5.0,2014-11-19,False,right
31,341.6823,0,437,2761,2975,4263,504,-10.0,200,0,1,342.9863,0,3,separated,19_11_2014 level23_spatial_Mini 13_54 log.txt,37,37,1216,67.0,0.0,2014-11-19,False,right
33,353.8158,0,437,2761,2975,4263,502,-6.0,200,0,0,354.3484,1,4,single_speaker,19_11_2014 level23_spatial_Mini 13_54 log.txt,37,37,1216,63.0,-4.0,2014-11-19,False,left
34,357.716,1,936,1551,2975,4263,507,-6.0,200,1,1,358.6184,1,0,colocated,19_11_2014 level23_spatial_Mini 13_54 log.txt,37,37,1216,63.0,-4.0,2014-11-19,False,left
35,360.9901,1,936,1551,2975,4263,510,-6.0,200,1,1,365.035,1,4,single_speaker,19_11_2014 level23_spatial_Mini 13_54 log.txt,37,37,1216,63.0,-4.0,2014-11-19,False,left
36,368.542,1,437,2761,2975,4263,509,-8.0,200,0,1,370.6346,0,1,colocated,19_11_2014 level23_spatial_Mini 13_54 log.txt,37,37,1216,65.0,-2.0,2014-11-19,False,right
38,378.0904,0,437,2761,2975,4263,504,-6.0,200,0,0,378.967,1,2,separated,19_11_2014 level23_spatial_Mini 13_54 log.txt,37,37,1216,63.0,-4.0,2014-11-19,False,left
39,382.1259,1,437,2761,2975,4263,508,-8.0,200,0,1,384.2184,0,4,single_speaker,19_11_2014 level23_spatial_Mini 13_54 log.txt,37,37,1216,65.0,-2.0,2014-11-19,False,left
41,395.1469,0,936,1551,2975,4263,509,-10.0,200,1,1,396.3275,1,0,colocated,19_11_2014 level23_spatial_Mini 13_54 log.txt,37,37,1216,67.0,0.0,2014-11-19,False,left
42,399.2535,1,437,2761,2975,4263,506,-15.0,200,0,1,400.8981,0,3,separated,19_11_2014 level23_spatial_Mini 13_54 log.txt,37,37,1216,72.0,5.0,2014-11-19,False,right
44,407.1997,0,936,1551,2975,4263,503,-10.0,200,1,1,408.1634,1,1,colocated,19_11_2014 level23_spatial_Mini 13_54 log.txt,37,37,1216,67.0,0.0,2014-11-19,False,right
45,410.9306,0,936,1551,2975,4263,507,-15.0,200,1,1,412.2851,1,5,single_speaker,19_11_2014 level23_spatial_Mini 13_54 log.txt,37,37,1216,72.0,5.0,2014-11-19,False,right
46,417.1127,0,936,1551,2975,4263,505,-13.0,200,1,0,417.9546,0,2,separated,19_11_2014 level23_spatial_Mini 13_54 log.txt,37,37,1216,70.0,3.0,2014-11-19,False,left
49,448.4574,0,437,2761,2975,4263,502,-6.0,200,0,1,449.1064,0,1,colocated,19_11_2014 level23_spatial_Mini 13_54 log.txt,37,37,1216,63.0,-4.0,2014-11-19,False,right
51,460.855,0,936,1551,2975,4263,510,-6.0,200,1,0,461.5047,0,5,single_speaker,19_11_2014 level23_spatial_Mini 13_54 log.txt,37,37,1216,63.0,-4.0,2014-11-19,False,right
53,475.3125,0,437,2761,2975,4263,501,-6.0,200,0,0,476.2006,1,3,separated,19_11_2014 level23_spatial_Mini 13_54 log.txt,37,37,1216,63.0,-4.0,2014-11-19,False,right
54,479.6528,0,437,2761,2975,4263,503,-13.0,200,0,0,480.2381,1,2,separated,19_11_2014 level23_spatial_Mini 13_54 log.txt,37,37,1216,70.0,3.0,2014-11-19,False,left
55,483.4605,0,936,1551,2975,4263,509,-6.0,200,1,0,484.4408,0,3,separated,19_11_2014 level23_spatial_Mini 13_54 log.txt,37,37,1216,63.0,-4.0,2014-11-19,False,right
58,512.7635,0,936,1551,2975,4263,511,-6.0,200,1,0,513.6087,0,1,colocated,19_11_2014 level23_spatial_Mini 13_54 log.txt,37,37,1216,63.0,-4.0,2014-11-19,False,right
60,525.6118,0,936,1551,2975,4263,502,-8.0,200,1,1,526.6939,1,2,separated,19_11_2014 level23_spatial_Mini 13_54 log.txt,37,37,1216,65.0,-2.0,2014-11-19,False,left
61,534.1697,0,936,1551,2975,4263,506,-13.0,200,1,0,534.6402,0,1,colocated,19_11_2014 level23_spatial_Mini 13_54 log.txt,37,37,1216,70.0,3.0,2014-11-19,False,right
63,557.3296,0,437,2761,2975,4263,508,-8.0,200,0,0,558.3242,1,2,separated,19_11_2014 level23_spatial_Mini 13_54 log.txt,37,37,1216,65.0,-2.0,2014-11-19,False,left
64,561.4327,0,936,1551,2975,4263,504,-15.0,200,1,0,562.5194,0,1,colocated,19_11_2014 level23_spatial_Mini 13_54 log.txt,37,37,1216,72.0,5.0,2014-11-19,False,right
66,575.3677,0,936,1551,2975,4263,505,-8.0,200,1,1,576.2929,1,4,single_speaker,19_11_2014 level23_spatial_Mini 13_54 log.txt,37,37,1216,65.0,-2.0,2014-11-19,False,left
67,579.039,0,437,2761,2975,4263,501,-6.0,200,0,1,579.7738,0,5,single_speaker,19_11_2014 level23_spatial_Mini 13_54 log.txt,37,37,1216,63.0,-4.0,2014-11-19,False,right
69,591.469,0,437,2761,2975,4263,507,-10.0,200,0,0,592.7377,1,4,single_speaker,19_11_2014 level23_spatial_Mini 13_54 log.txt,37,37,1216,67.0,0.0,2014-11-19,False,left
70,595.5501,0,437,2761,2975,4263,505,-15.0,200,0,0,596.6675,1,0,colocated,19_11_2014 level23_spatial_Mini 13_54 log.txt,37,37,1216,72.0,5.0,2014-11-19,False,left
71,599.5615,0,437,2761,2975,4263,511,-15.0,200,0,0,600.074,1,2,separated,19_11_2014 level23_spatial_Mini 13_54 log.txt,37,37,1216,72.0,5.0,2014-11-19,False,left
72,603.9629,0,437,2761,2975,4263,506,-13.0,200,0,1,604.5204,0,1,colocated,19_11_2014 level23_spatial_Mini 13_54 log.txt,37,37,1216,70.0,3.0,2014-11-19,False,right
77,666.7388,0,437,2761,2975,4263,510,-8.0,200,0,0,667.6799,1,0,colocated,19_11_2014 level23_spatial_Mini 13_54 log.txt,37,37,1216,65.0,-2.0,2014-11-19,False,left
78,670.5742,0,936,1551,2975,4263,501,-8.0,200,1,1,671.8415,1,1,colocated,19_11_2014 level23_spatial_Mini 13_54 log.txt,37,37,1216,65.0,-2.0,2014-11-19,False,right
79,676.1111,0,437,2761,2975,4263,503,-8.0,200,0,0,676.6747,1,3,separated,19_11_2014 level23_spatial_Mini 13_54 log.txt,37,37,1216,65.0,-2.0,2014-11-19,False,right
80,679.3788,0,936,1551,2975,4263,504,-15.0,200,1,1,680.0994,1,2,separated,19_11_2014 level23_spatial_Mini 13_54 log.txt,37,37,1216,72.0,5.0,2014-11-19,False,left
81,682.7481,0,936,1551,2975,4263,508,-13.0,200,1,1,683.7303,1,4,single_speaker,19_11_2014 level23_spatial_Mini 13_54 log.txt,37,37,1216,70.0,3.0,2014-11-19,False,left
82,687.0118,0,936,1551,2975,4263,507,-13.0,200,1,0,688.4121,0,3,separated,19_11_2014 level23_spatial_Mini 13_54 log.txt,37,37,1216,70.0,3.0,2014-11-19,False,right
1,751.5451,1,936,1551,2975,4263,504,-8.0,200,1,0,757.3927,0,1,colocated,25_04_2014 level23_spatial_Mini 10_51 log.txt,37,37,1216,65.0,-2.0,2014-04-25,False,right
3,768.1569,1,936,1551,2975,4263,507,-6.0,200,1,1,771.3418,1,1,colocated,25_04_2014 level23_spatial_Mini 10_51 log.txt,37,37,1216,63.0,-4.0,2014-04-25,False,right
4,775.0776,0,437,2761,2975,4263,511,-10.0,200,0,0,776.2035,1,5,single_speaker,25_04_2014 level23_spatial_Mini 10_51 log.txt,37,37,1216,67.0,0.0,2014-04-25,False,right
5,780.8403,1,936,1551,2975,4263,502,-15.0,200,1,1,781.4776,1,5,single_speaker,25_04_2014 level23_spatial_Mini 10_51 log.txt,37,37,1216,72.0,5.0,2014-04-25,False,right
6,784.9775,1,437,2761,2975,4263,503,-10.0,200,0,1,792.3673,0,4,single_speaker,25_04_2014 level23_spatial_Mini 10_51 log.txt,37,37,1216,67.0,0.0,2014-04-25,False,left
8,812.5779,1,936,1551,2975,4263,501,-13.0,200,1,1,814.744,1,0,colocated,25_04_2014 level23_spatial_Mini 10_51 log.txt,37,37,1216,70.0,3.0,2014-04-25,False,left
9,817.7983,1,936,1551,2975,4263,509,-15.0,200,1,1,820.4988,1,1,colocated,25_04_2014 level23_spatial_Mini 10_51 log.txt,37,37,1216,72.0,5.0,2014-04-25,False,right
10,823.2541,1,936,1551,2975,4263,505,-8.0,200,1,1,825.8774,1,2,separated,25_04_2014 level23_spatial_Mini 10_51 log.txt,37,37,1216,65.0,-2.0,2014-04-25,False,left
11,828.6978,1,936,1551,2975,4263,510,-15.0,200,1,1,831.2064,1,3,separated,25_04_2014 level23_spatial_Mini 10_51 log.txt,37,37,1216,72.0,5.0,2014-04-25,False,right
12,834.2083,1,437,2761,2975,4263,506,-15.0,200,0,0,836.6135,1,0,colocated,25_04_2014 level23_spatial_Mini 10_51 log.txt,37,37,1216,72.0,5.0,2014-04-25,False,left
13,839.9468,0,437,2761,2975,4263,509,-13.0,200,0,1,841.3245,0,0,colocated,25_04_2014 level23_spatial_Mini 10_51 log.txt,37,37,1216,70.0,3.0,2014-04-25,False,left
15,853.8152,1,437,2761,2975,4263,508,-13.0,200,0,1,856.2671,0,2,separated,25_04_2014 level23_spatial_Mini 10_51 log.txt,37,37,1216,70.0,3.0,2014-04-25,False,left
17,870.7161,1,437,2761,2975,4263,503,-6.0,200,0,0,872.9729,1,4,single_speaker,25_04_2014 level23_spatial_Mini 10_51 log.txt,37,37,1216,63.0,-4.0,2014-04-25,False,left
18,877.3292,0,437,2761,2975,4263,501,-8.0,200,0,1,878.2874,0,3,separated,25_04_2014 level23_spatial_Mini 10_51 log.txt,37,37,1216,65.0,-2.0,2014-04-25,False,right
20,889.574,1,936,1551,2975,4263,505,-13.0,200,1,1,892.8698,1,1,colocated,25_04_2014 level23_spatial_Mini 10_51 log.txt,37,37,1216,70.0,3.0,2014-04-25,False,right
21,897.1771,1,936,1551,2975,4263,507,-10.0,200,1,1,900.4143,1,2,separated,25_04_2014 level23_spatial_Mini 10_51 log.txt,37,37,1216,67.0,0.0,2014-04-25,False,left
22,903.2761,0,936,1551,2975,4263,506,-6.0,200,1,0,905.0644,0,3,separated,25_04_2014 level23_spatial_Mini 10_51 log.txt,37,37,1216,63.0,-4.0,2014-04-25,False,right
24,912.9937,0,936,1551,2975,4263,504,-10.0,200,1,1,913.898,1,1,colocated,25_04_2014 level23_spatial_Mini 10_51 log.txt,37,37,1216,67.0,0.0,2014-04-25,False,right
25,916.8982,0,936,1551,2975,4263,511,-15.0,200,1,1,917.8196,1,2,separated,25_04_2014 level23_spatial_Mini 10_51 log.txt,37,37,1216,72.0,5.0,2014-04-25,False,left
26,921.2128,1,437,2761,2975,4263,502,-6.0,200,0,1,923.4267,0,1,colocated,25_04_2014 level23_spatial_Mini 10_51 log.txt,37,37,1216,63.0,-4.0,2014-04-25,False,right
28,932.9033,1,437,2761,2975,4263,504,-15.0,200,0,1,951.6424,0,1,colocated,25_04_2014 level23_spatial_Mini 10_51 log.txt,37,37,1216,72.0,5.0,2014-04-25,False,right
31,967.0655,0,936,1551,2975,4263,503,-13.0,200,1,1,968.1981,1,3,separated,25_04_2014 level23_spatial_Mini 10_51 log.txt,37,37,1216,70.0,3.0,2014-04-25,False,right
32,970.9382,0,437,2761,2975,4263,508,-10.0,200,0,1,971.9148,0,1,colocated,25_04_2014 level23_spatial_Mini 10_51 log.txt,37,37,1216,67.0,0.0,2014-04-25,False,right
34,1061.5922,1,437,2761,2975,4263,510,-15.0,200,0,0,1064.4506,1,4,single_speaker,25_04_2014 level23_spatial_Mini 10_51 log.txt,37,37,1216,72.0,5.0,2014-04-25,False,left
35,1068.3881,0,936,1551,2975,4263,511,-6.0,200,1,1,1068.7326,1,0,colocated,25_04_2014 level23_spatial_Mini 10_51 log.txt,37,37,1216,63.0,-4.0,2014-04-25,False,left
36,1071.5415,0,936,1551,2975,4263,505,-10.0,200,1,1,1072.4023,1,5,single_speaker,25_04_2014 level23_spatial_Mini 10_51 log.txt,37,37,1216,67.0,0.0,2014-04-25,False,right
37,1075.5007,1,437,2761,2975,4263,509,-10.0,200,0,0,1078.0573,1,0,colocated,25_04_2014 level23_spatial_Mini 10_51 log.txt,37,37,1216,67.0,0.0,2014-04-25,False,left
38,1083.7207,1,437,2761,2975,4263,501,-8.0,200,0,1,1087.2593,0,2,separated,25_04_2014 level23_spatial_Mini 10_51 log.txt,37,37,1216,65.0,-2.0,2014-04-25,False,left
41,1105.4289,0,936,1551,2975,4263,506,-10.0,200,1,1,1106.2771,1,4,single_speaker,25_04_2014 level23_spatial_Mini 10_51 log.txt,37,37,1216,67.0,0.0,2014-04-25,False,left
42,1109.3437,1,936,1551,2975,4263,502,-6.0,200,1,1,1110.0148,1,2,separated,25_04_2014 level23_spatial_Mini 10_51 log.txt,37,37,1216,63.0,-4.0,2014-04-25,False,left
43,1113.9405,0,936,1551,2975,4263,504,-13.0,200,1,1,1116.5023,1,5,single_speaker,25_04_2014 level23_spatial_Mini 10_51 log.txt,37,37,1216,70.0,3.0,2014-04-25,False,right
44,1119.5809,0,437,2761,2975,4263,510,-6.0,200,0,0,1121.5944,1,0,colocated,25_04_2014 level23_spatial_Mini 10_51 log.txt,37,37,1216,63.0,-4.0,2014-04-25,False,left
45,1127.833,1,437,2761,2975,4263,508,-6.0,200,0,0,1130.6679,1,5,single_speaker,25_04_2014 level23_spatial_Mini 10_51 log.txt,37,37,1216,63.0,-4.0,2014-04-25,False,right
46,1135.8096,1,437,2761,2975,4263,505,-10.0,200,0,1,1139.1565,0,3,separated,25_04_2014 level23_spatial_Mini 10_51 log.txt,37,37,1216,67.0,0.0,2014-04-25,False,right
48,1158.1682,0,936,1551,2975,4263,502,-13.0,200,1,1,1158.6608,1,2,separated,25_04_2014 level23_spatial_Mini 10_51 log.txt,37,37,1216,70.0,3.0,2014-04-25,False,left
49,1161.954,0,437,2761,2975,4263,503,-13.0,200,0,1,1163.1474,0,4,single_speaker,25_04_2014 level23_spatial_Mini 10_51 log.txt,37,37,1216,70.0,3.0,2014-04-25,False,left
51,1174.0346,1,437,2761,2975,4263,507,-13.0,200,0,0,1174.8339,1,5,single_speaker,25_04_2014 level23_spatial_Mini 10_51 log.txt,37,37,1216,70.0,3.0,2014-04-25,False,right
52,1178.9781,0,936,1551,2975,4263,509,-8.0,200,1,1,1182.6562,1,3,separated,25_04_2014 level23_spatial_Mini 10_51 log.txt,37,37,1216,65.0,-2.0,2014-04-25,False,right
53,1185.9934,1,437,2761,2975,4263,501,-8.0,200,0,1,1188.2036,0,5,single_speaker,25_04_2014 level23_spatial_Mini 10_51 log.txt,37,37,1216,65.0,-2.0,2014-04-25,False,right
55,1198.0283,0,936,1551,2975,4263,511,-10.0,200,1,1,1198.6812,1,3,separated,25_04_2014 level23_spatial_Mini 10_51 log.txt,37,37,1216,67.0,0.0,2014-04-25,False,right
56,1201.7456,0,437,2761,2975,4263,511,-15.0,200,0,0,1203.6765,1,5,single_speaker,25_04_2014 level23_spatial_Mini 10_51 log.txt,37,37,1216,72.0,5.0,2014-04-25,False,right
57,1206.2314,1,437,2761,2975,4263,505,-13.0,200,0,0,1209.1567,1,3,separated,25_04_2014 level23_spatial_Mini 10_51 log.txt,37,37,1216,70.0,3.0,2014-04-25,False,right
58,1214.664,1,437,2761,2975,4263,504,-15.0,200,0,0,1217.1634,1,2,separated,25_04_2014 level23_spatial_Mini 10_51 log.txt,37,37,1216,72.0,5.0,2014-04-25,False,left
59,1222.4677,0,936,1551,2975,4263,502,-8.0,200,1,1,1223.2115,1,4,single_speaker,25_04_2014 level23_spatial_Mini 10_51 log.txt,37,37,1216,65.0,-2.0,2014-04-25,False,left
60,1226.0436,0,936,1551,2975,4263,506,-8.0,200,1,1,1227.5538,1,0,colocated,25_04_2014 level23_spatial_Mini 10_51 log.txt,37,37,1216,65.0,-2.0,2014-04-25,False,left
61,1230.677,0,437,2761,2975,4263,510,-10.0,200,0,0,1232.4294,1,2,separated,25_04_2014 level23_spatial_Mini 10_51 log.txt,37,37,1216,67.0,0.0,2014-04-25,False,left
62,1240.841,1,437,2761,2975,4263,508,-6.0,200,0,0,1243.9663,1,2,separated,25_04_2014 level23_spatial_Mini 10_51 log.txt,37,37,1216,63.0,-4.0,2014-04-25,False,left
63,1248.2647,1,936,1551,2975,4263,507,-13.0,200,1,1,1248.7997,1,4,single_speaker,25_04_2014 level23_spatial_Mini 10_51 log.txt,37,37,1216,70.0,3.0,2014-04-25,False,left
64,1251.4177,0,936,1551,2975,4263,509,-6.0,200,1,1,1253.6958,1,5,single_speaker,25_04_2014 level23_spatial_Mini 10_51 log.txt,37,37,1216,63.0,-4.0,2014-04-25,False,right
65,1257.0045,0,936,1551,2975,4263,503,-15.0,200,1,1,1257.7578,1,4,single_speaker,25_04_2014 level23_spatial_Mini 10_51 log.txt,37,37,1216,72.0,5.0,2014-04-25,False,left
66,1260.88,0,437,2761,2975,4263,501,-8.0,200,0,1,1261.6901,0,1,colocated,25_04_2014 level23_spatial_Mini 10_51 log.txt,37,37,1216,65.0,-2.0,2014-04-25,False,right
68,1274.447,0,437,2761,2975,4263,510,-6.0,200,0,1,1275.4383,0,3,separated,25_04_2014 level23_spatial_Mini 10_51 log.txt,37,37,1216,63.0,-4.0,2014-04-25,False,right
70,1285.8106,1,437,2761,2975,4263,504,-8.0,200,0,1,1288.7482,0,4,single_speaker,25_04_2014 level23_spatial_Mini 10_51 log.txt,37,37,1216,65.0,-2.0,2014-04-25,False,left
72,1299.2866,1,936,1551,2975,4263,503,-15.0,200,1,0,1301.6424,0,0,colocated,25_04_2014 level23_spatial_Mini 10_51 log.txt,37,37,1216,72.0,5.0,2014-04-25,False,left
74,1309.2578,1,936,1551,2975,4263,507,-6.0,200,1,1,1311.8153,1,4,single_speaker,25_04_2014 level23_spatial_Mini 10_51 log.txt,37,37,1216,63.0,-4.0,2014-04-25,False,left
75,1315.7428,1,936,1551,2975,4263,505,-10.0,200,1,1,1319.4235,1,0,colocated,25_04_2014 level23_spatial_Mini 10_51 log.txt,37,37,1216,67.0,0.0,2014-04-25,False,left
76,1322.9197,1,936,1551,2975,4263,511,-8.0,200,1,1,1326.8007,1,5,single_speaker,25_04_2014 level23_spatial_Mini 10_51 log.txt,37,37,1216,65.0,-2.0,2014-04-25,False,right
77,1330.2166,1,437,2761,2975,4263,506,-15.0,200,0,1,1337.6831,0,3,separated,25_04_2014 level23_spatial_Mini 10_51 log.txt,37,37,1216,72.0,5.0,2014-04-25,False,right
79,1359.3674,0,437,2761,2975,4263,502,-13.0,200,0,0,1360.1987,1,1,colocated,25_04_2014 level23_spatial_Mini 10_51 log.txt,37,37,1216,70.0,3.0,2014-04-25,False,right
80,1363.9115,1,437,2761,2975,4263,508,-8.0,200,0,1,1364.4542,0,0,colocated,25_04_2014 level23_spatial_Mini 10_51 log.txt,37,37,1216,65.0,-2.0,2014-04-25,False,left
83,1404.0988,1,936,1551,2975,4263,501,-10.0,200,1,1,1405.5342,1,1,colocated,25_04_2014 level23_spatial_Mini 10_51 log.txt,37,37,1216,67.0,0.0,2014-04-25,False,right
84,1407.6795,1,936,1551,2975,4263,502,-13.0,200,1,1,1443.9023,1,0,colocated,25_04_2014 level23_spatial_Mini 10_51 log.txt,37,37,1216,70.0,3.0,2014-04-25,False,left
1,2.265,1,437,2761,2975,4263,503,-13.0,200,0,1,3.1738,0,5,single_speaker,10_07_2014 level23_spatial_Mini 14_03 log.txt,37,37,1216,70.0,3.0,2014-07-10,False,right
4,26.949,1,936,1551,2975,4263,502,-6.0,200,1,1,29.228,1,0,colocated,10_07_2014 level23_spatial_Mini 14_03 log.txt,37,37,1216,63.0,-4.0,2014-07-10,False,left
5,32.7102,1,936,1551,2975,4263,509,-10.0,200,1,1,34.7192,1,3,separated,10_07_2014 level23_spatial_Mini 14_03 log.txt,37,37,1216,67.0,0.0,2014-07-10,False,right
6,37.9373,0,936,1551,2975,4263,510,-10.0,200,1,1,38.902,1,0,colocated,10_07_2014 level23_spatial_Mini 14_03 log.txt,37,37,1216,67.0,0.0,2014-07-10,False,left
7,41.2473,0,437,2761,2975,4263,501,-15.0,200,0,0,42.9324,1,5,single_speaker,10_07_2014 level23_spatial_Mini 14_03 log.txt,37,37,1216,72.0,5.0,2014-07-10,False,right
8,47.5479,1,437,2761,2975,4263,508,-10.0,200,0,0,49.9271,1,5,single_speaker,10_07_2014 level23_spatial_Mini 14_03 log.txt,37,37,1216,67.0,0.0,2014-07-10,False,right
9,55.5686,1,437,2761,2975,4263,506,-15.0,200,0,1,58.3645,0,3,separated,10_07_2014 level23_spatial_Mini 14_03 log.txt,37,37,1216,72.0,5.0,2014-07-10,False,right
13,78.8047,0,437,2761,2975,4263,504,-13.0,200,0,0,79.7211,1,3,separated,10_07_2014 level23_spatial_Mini 14_03 log.txt,37,37,1216,70.0,3.0,2014-07-10,False,right
14,83.9793,1,936,1551,2975,4263,511,-10.0,200,1,1,87.096,1,2,separated,10_07_2014 level23_spatial_Mini 14_03 log.txt,37,37,1216,67.0,0.0,2014-07-10,False,left
15,90.9586,1,437,2761,2975,4263,505,-15.0,200,0,1,92.7253,0,2,separated,10_07_2014 level23_spatial_Mini 14_03 log.txt,37,37,1216,72.0,5.0,2014-07-10,False,left
17,101.7873,0,936,1551,2975,4263,506,-15.0,200,1,1,102.8553,1,5,single_speaker,10_07_2014 level23_spatial_Mini 14_03 log.txt,37,37,1216,72.0,5.0,2014-07-10,False,right
18,105.5295,0,437,2761,2975,4263,504,-10.0,200,0,0,106.606,1,0,colocated,10_07_2014 level23_spatial_Mini 14_03 log.txt,37,37,1216,67.0,0.0,2014-07-10,False,left
19,110.7372,1,936,1551,2975,4263,510,-6.0,200,1,1,112.8915,1,5,single_speaker,10_07_2014 level23_spatial_Mini 14_03 log.txt,37,37,1216,63.0,-4.0,2014-07-10,False,right
20,116.3282,0,936,1551,2975,4263,505,-6.0,200,1,1,118.2865,1,1,colocated,10_07_2014 level23_spatial_Mini 14_03 log.txt,37,37,1216,63.0,-4.0,2014-07-10,False,right
21,121.2535,1,936,1551,2975,4263,509,-8.0,200,1,1,123.2182,1,0,colocated,10_07_2014 level23_spatial_Mini 14_03 log.txt,37,37,1216,65.0,-2.0,2014-07-10,False,left
22,126.3899,1,437,2761,2975,4263,502,-8.0,200,0,0,128.8437,1,3,separated,10_07_2014 level23_spatial_Mini 14_03 log.txt,37,37,1216,65.0,-2.0,2014-07-10,False,right
23,132.6827,1,936,1551,2975,4263,508,-10.0,200,1,1,135.431,1,5,single_speaker,10_07_2014 level23_spatial_Mini 14_03 log.txt,37,37,1216,67.0,0.0,2014-07-10,False,right
24,138.3469,0,437,2761,2975,4263,503,-10.0,200,0,1,139.1239,0,4,single_speaker,10_07_2014 level23_spatial_Mini 14_03 log.txt,37,37,1216,67.0,0.0,2014-07-10,False,left
26,147.1775,1,437,2761,2975,4263,507,-6.0,200,0,0,149.4421,1,5,single_speaker,10_07_2014 level23_spatial_Mini 14_03 log.txt,37,37,1216,63.0,-4.0,2014-07-10,False,right
27,153.2395,0,936,1551,2975,4263,511,-13.0,200,1,1,154.2044,1,4,single_speaker,10_07_2014 level23_spatial_Mini 14_03 log.txt,37,37,1216,70.0,3.0,2014-07-10,False,left
28,157.1447,1,437,2761,2975,4263,506,-10.0,200,0,1,159.4184,0,2,separated,10_07_2014 level23_spatial_Mini 14_03 log.txt,37,37,1216,67.0,0.0,2014-07-10,False,left
31,171.6696,0,437,2761,2975,4263,510,-13.0,200,0,0,172.7022,1,1,colocated,10_07_2014 level23_spatial_Mini 14_03 log.txt,37,37,1216,70.0,3.0,2014-07-10,False,right
32,176.2473,0,437,2761,2975,4263,509,-13.0,200,0,0,177.2545,1,4,single_speaker,10_07_2014 level23_spatial_Mini 14_03 log.txt,37,37,1216,70.0,3.0,2014-07-10,False,left
33,181.3813,1,936,1551,2975,4263,503,-13.0,200,1,1,183.8164,1,2,separated,10_07_2014 level23_spatial_Mini 14_03 log.txt,37,37,1216,70.0,3.0,2014-07-10,False,left
34,186.808,0,437,2761,2975,4263,507,-8.0,200,0,0,187.9753,1,4,single_speaker,10_07_2014 level23_spatial_Mini 14_03 log.txt,37,37,1216,65.0,-2.0,2014-07-10,False,left
35,192.2039,0,936,1551,2975,4263,505,-13.0,200,1,1,193.7243,1,3,separated,10_07_2014 level23_spatial_Mini 14_03 log.txt,37,37,1216,70.0,3.0,2014-07-10,False,right
36,197.0653,0,437,2761,2975,4263,508,-10.0,200,0,1,198.033,0,1,colocated,10_07_2014 level23_spatial_Mini 14_03 log.txt,37,37,1216,67.0,0.0,2014-07-10,False,right
38,209.8674,0,936,1551,2975,4263,511,-8.0,200,1,1,210.8251,1,4,single_speaker,10_07_2014 level23_spatial_Mini 14_03 log.txt,37,37,1216,65.0,-2.0,2014-07-10,False,left
39,214.2551,0,936,1551,2975,4263,502,-6.0,200,1,0,215.5528,0,2,separated,10_07_2014 level23_spatial_Mini 14_03 log.txt,37,37,1216,63.0,-4.0,2014-07-10,False,left
42,231.0924,1,936,1551,2975,4263,501,-8.0,200,1,1,232.9855,1,2,separated,10_07_2014 level23_spatial_Mini 14_03 log.txt,37,37,1216,65.0,-2.0,2014-07-10,False,left
43,242.6847,1,936,1551,2975,4263,508,-13.0,200,1,1,244.8768,1,5,single_speaker,10_07_2014 level23_spatial_Mini 14_03 log.txt,37,37,1216,70.0,3.0,2014-07-10,False,right
44,247.7633,0,437,2761,2975,4263,505,-10.0,200,0,0,249.0882,1,3,separated,10_07_2014 level23_spatial_Mini 14_03 log.txt,37,37,1216,67.0,0.0,2014-07-10,False,right
45,256.9552,1,437,2761,2975,4263,510,-15.0,200,0,1,259.3854,0,4,single_speaker,10_07_2014 level23_spatial_Mini 14_03 log.txt,37,37,1216,72.0,5.0,2014-07-10,False,left
48,270.8531,0,936,1551,2975,4263,503,-15.0,200,1,0,271.8809,0,0,colocated,10_07_2014 level23_spatial_Mini 14_03 log.txt,37,37,1216,72.0,5.0,2014-07-10,False,left
50,281.1638,0,437,2761,2975,4263,504,-6.0,200,0,0,282.4815,1,0,colocated,10_07_2014 level23_spatial_Mini 14_03 log.txt,37,37,1216,63.0,-4.0,2014-07-10,False,left
51,286.5425,0,936,1551,2975,4263,506,-13.0,200,1,1,287.4596,1,1,colocated,10_07_2014 level23_spatial_Mini 14_03 log.txt,37,37,1216,70.0,3.0,2014-07-10,False,right
52,291.1259,1,437,2761,2975,4263,511,-15.0,200,0,1,292.8842,0,0,colocated,10_07_2014 level23_spatial_Mini 14_03 log.txt,37,37,1216,72.0,5.0,2014-07-10,False,left
54,328.2621,0,936,1551,2975,4263,509,-15.0,200,1,1,329.158,1,2,separated,10_07_2014 level23_spatial_Mini 14_03 log.txt,37,37,1216,72.0,5.0,2014-07-10,False,left
55,338.4137,1,437,2761,2975,4263,507,-8.0,200,0,1,340.536,0,1,colocated,10_07_2014 level23_spatial_Mini 14_03 log.txt,37,37,1216,65.0,-2.0,2014-07-10,False,right
57,361.8487,0,936,1551,2975,4263,502,-6.0,200,1,1,362.8072,1,4,single_speaker,10_07_2014 level23_spatial_Mini 14_03 log.txt,37,37,1216,63.0,-4.0,2014-07-10,False,left
58,366.0062,0,936,1551,2975,4263,508,-15.0,200,1,1,366.759,1,4,single_speaker,10_07_2014 level23_spatial_Mini 14_03 log.txt,37,37,1216,72.0,5.0,2014-07-10,False,left
59,370.9716,0,936,1551,2975,4263,503,-8.0,200,1,1,372.1833,1,1,colocated,10_07_2014 level23_spatial_Mini 14_03 log.txt,37,37,1216,65.0,-2.0,2014-07-10,False,right
60,384.0416,1,437,2761,2975,4263,502,-6.0,200,0,1,386.0688,0,1,colocated,10_07_2014 level23_spatial_Mini 14_03 log.txt,37,37,1216,63.0,-4.0,2014-07-10,False,right
62,398.2026,0,437,2761,2975,4263,504,-15.0,200,0,1,399.5597,0,1,colocated,10_07_2014 level23_spatial_Mini 14_03 log.txt,37,37,1216,72.0,5.0,2014-07-10,False,right
1,1.7547,0,437,2761,2975,4263,511,-10.0,200,0,0,3.4195,1,3,separated,30_10_2014 level23_spatial_Mini 08_01 log.txt,37,37,1216,67.0,0.0,2014-10-30,False,right
2,9.0611,1,936,1551,2975,4263,507,-8.0,200,1,1,12.6124,1,4,single_speaker,30_10_2014 level23_spatial_Mini 08_01 log.txt,37,37,1216,65.0,-2.0,2014-10-30,False,left
3,16.5805,1,437,2761,2975,4263,504,-15.0,200,0,1,19.4749,0,2,separated,30_10_2014 level23_spatial_Mini 08_01 log.txt,37,37,1216,72.0,5.0,2014-10-30,False,left
5,28.1428,1,936,1551,2975,4263,508,-15.0,200,1,0,30.6004,0,3,separated,30_10_2014 level23_spatial_Mini 08_01 log.txt,37,37,1216,72.0,5.0,2014-10-30,False,right
7,44.23,0,437,2761,2975,4263,506,-8.0,200,0,0,45.155,1,4,single_speaker,30_10_2014 level23_spatial_Mini 08_01 log.txt,37,37,1216,65.0,-2.0,2014-10-30,False,left
8,48.4883,0,437,2761,2975,4263,503,-10.0,200,0,1,49.4642,0,0,colocated,30_10_2014 level23_spatial_Mini 08_01 log.txt,37,37,1216,67.0,0.0,2014-10-30,False,left
10,56.1131,0,437,2761,2975,4263,510,-10.0,200,0,0,57.2681,1,2,separated,30_10_2014 level23_spatial_Mini 08_01 log.txt,37,37,1216,67.0,0.0,2014-10-30,False,left
11,61.463,0,437,2761,2975,4263,501,-15.0,200,0,0,62.5658,1,1,colocated,30_10_2014 level23_spatial_Mini 08_01 log.txt,37,37,1216,72.0,5.0,2014-10-30,False,right
12,66.5372,1,437,2761,2975,4263,505,-10.0,200,0,0,68.7542,1,5,single_speaker,30_10_2014 level23_spatial_Mini 08_01 log.txt,37,37,1216,67.0,0.0,2014-10-30,False,right
13,72.7803,0,936,1551,2975,4263,509,-8.0,200,1,1,74.0078,1,5,single_speaker,30_10_2014 level23_spatial_Mini 08_01 log.txt,37,37,1216,65.0,-2.0,2014-10-30,False,right
14,76.3839,1,936,1551,2975,4263,504,-8.0,200,1,1,78.5286,1,3,separated,30_10_2014 level23_spatial_Mini 08_01 log.txt,37,37,1216,65.0,-2.0,2014-10-30,False,right
15,81.7952,0,936,1551,2975,4263,506,-10.0,200,1,1,82.7687,1,3,separated,30_10_2014 level23_spatial_Mini 08_01 log.txt,37,37,1216,67.0,0.0,2014-10-30,False,right
16,85.9813,1,437,2761,2975,4263,502,-6.0,200,0,0,88.4399,1,3,separated,30_10_2014 level23_spatial_Mini 08_01 log.txt,37,37,1216,63.0,-4.0,2014-10-30,False,right
17,91.843,0,936,1551,2975,4263,509,-13.0,200,1,1,93.037,1,0,colocated,30_10_2014 level23_spatial_Mini 08_01 log.txt,37,37,1216,70.0,3.0,2014-10-30,False,left
18,95.305,0,437,2761,2975,4263,503,-13.0,200,0,1,96.4901,0,0,colocated,30_10_2014 level23_spatial_Mini 08_01 log.txt,37,37,1216,70.0,3.0,2014-10-30,False,left
21,106.2483,0,936,1551,2975,4263,511,-6.0,200,1,0,107.5183,0,5,single_speaker,30_10_2014 level23_spatial_Mini 08_01 log.txt,37,37,1216,63.0,-4.0,2014-10-30,False,right
23,120.6473,0,936,1551,2975,4263,507,-13.0,200,1,1,121.7001,1,5,single_speaker,30_10_2014 level23_spatial_Mini 08_01 log.txt,37,37,1216,70.0,3.0,2014-10-30,False,right
24,127.9027,0,437,2761,2975,4263,505,-13.0,200,0,0,128.9055,1,2,separated,30_10_2014 level23_spatial_Mini 08_01 log.txt,37,37,1216,70.0,3.0,2014-10-30,False,left
25,134.246,0,936,1551,2975,4263,501,-13.0,200,1,1,135.6644,1,3,separated,30_10_2014 level23_spatial_Mini 08_01 log.txt,37,37,1216,70.0,3.0,2014-10-30,False,right
26,139.0954,1,936,1551,2975,4263,510,-15.0,200,1,0,139.9602,0,4,single_speaker,30_10_2014 level23_spatial_Mini 08_01 log.txt,37,37,1216,72.0,5.0,2014-10-30,False,left
28,150.2779,0,437,2761,2975,4263,510,-13.0,200,0,0,151.6706,1,1,colocated,30_10_2014 level23_spatial_Mini 08_01 log.txt,37,37,1216,70.0,3.0,2014-10-30,False,right
29,155.0099,0,437,2761,2975,4263,503,-13.0,200,0,0,155.9892,1,5,single_speaker,30_10_2014 level23_spatial_Mini 08_01 log.txt,37,37,1216,70.0,3.0,2014-10-30,False,right
30,159.0542,0,437,2761,2975,4263,505,-15.0,200,0,0,160.0056,1,0,colocated,30_10_2014 level23_spatial_Mini 08_01 log.txt,37,37,1216,72.0,5.0,2014-10-30,False,left
31,163.8642,1,936,1551,2975,4263,511,-13.0,200,1,0,166.1637,0,1,colocated,30_10_2014 level23_spatial_Mini 08_01 log.txt,37,37,1216,70.0,3.0,2014-10-30,False,right
33,178.0581,1,936,1551,2975,4263,502,-6.0,200,1,0,179.7979,0,0,colocated,30_10_2014 level23_spatial_Mini 08_01 log.txt,37,37,1216,63.0,-4.0,2014-10-30,False,left
35,188.9194,1,936,1551,2975,4263,504,-8.0,200,1,1,191.1106,1,2,separated,30_10_2014 level23_spatial_Mini 08_01 log.txt,37,37,1216,65.0,-2.0,2014-10-30,False,left
36,194.6959,1,936,1551,2975,4263,506,-15.0,200,1,0,196.8742,0,1,colocated,30_10_2014 level23_spatial_Mini 08_01 log.txt,37,37,1216,72.0,5.0,2014-10-30,False,right
38,207.3774,1,936,1551,2975,4263,501,-10.0,200,1,1,209.9177,1,0,colocated,30_10_2014 level23_spatial_Mini 08_01 log.txt,37,37,1216,67.0,0.0,2014-10-30,False,left
39,213.4932,1,437,2761,2975,4263,509,-10.0,200,0,0,216.116,1,1,colocated,30_10_2014 level23_spatial_Mini 08_01 log.txt,37,37,1216,67.0,0.0,2014-10-30,False,right
40,220.6906,0,936,1551,2975,4263,507,-10.0,200,1,1,222.0149,1,1,colocated,30_10_2014 level23_spatial_Mini 08_01 log.txt,37,37,1216,67.0,0.0,2014-10-30,False,right
41,226.3637,0,936,1551,2975,4263,510,-6.0,200,1,0,228.0836,0,4,single_speaker,30_10_2014 level23_spatial_Mini 08_01 log.txt,37,37,1216,63.0,-4.0,2014-10-30,False,left
43,238.1935,0,936,1551,2975,4263,503,-15.0,200,1,1,239.4384,1,2,separated,30_10_2014 level23_spatial_Mini 08_01 log.txt,37,37,1216,72.0,5.0,2014-10-30,False,left
44,241.0297,1,437,2761,2975,4263,504,-6.0,200,0,0,243.1817,1,0,colocated,30_10_2014 level23_spatial_Mini 08_01 log.txt,37,37,1216,63.0,-4.0,2014-10-30,False,left
45,248.0353,1,437,2761,2975,4263,508,-13.0,200,0,0,250.1684,1,3,separated,30_10_2014 level23_spatial_Mini 08_01 log.txt,37,37,1216,70.0,3.0,2014-10-30,False,right
46,254.2078,1,936,1551,2975,4263,506,-15.0,200,1,1,257.8867,1,0,colocated,30_10_2014 level23_spatial_Mini 08_01 log.txt,37,37,1216,72.0,5.0,2014-10-30,False,left
47,262.075,1,437,2761,2975,4263,511,-10.0,200,0,0,264.9,1,4,single_speaker,30_10_2014 level23_spatial_Mini 08_01 log.txt,37,37,1216,67.0,0.0,2014-10-30,False,left
48,269.1393,0,936,1551,2975,4263,507,-10.0,200,1,1,270.2492,1,4,single_speaker,30_10_2014 level23_spatial_Mini 08_01 log.txt,37,37,1216,67.0,0.0,2014-10-30,False,left
49,272.9166,0,437,2761,2975,4263,502,-8.0,200,0,1,274.2552,0,3,separated,30_10_2014 level23_spatial_Mini 08_01 log.txt,37,37,1216,65.0,-2.0,2014-10-30,False,right
51,281.5269,0,437,2761,2975,4263,505,-8.0,200,0,0,282.8348,1,1,colocated,30_10_2014 level23_spatial_Mini 08_01 log.txt,37,37,1216,65.0,-2.0,2014-10-30,False,right
52,288.0764,0,437,2761,2975,4263,501,-15.0,200,0,1,289.9024,0,4,single_speaker,30_10_2014 level23_spatial_Mini 08_01 log.txt,37,37,1216,72.0,5.0,2014-10-30,False,left
54,297.1662,0,437,2761,2975,4263,509,-15.0,200,0,0,298.2436,1,5,single_speaker,30_10_2014 level23_spatial_Mini 08_01 log.txt,37,37,1216,72.0,5.0,2014-10-30,False,right
55,302.0764,1,936,1551,2975,4263,503,-6.0,200,1,1,304.6612,1,2,separated,30_10_2014 level23_spatial_Mini 08_01 log.txt,37,37,1216,63.0,-4.0,2014-10-30,False,left
56,310.8388,0,437,2761,2975,4263,505,-6.0,200,0,0,313.1138,1,1,colocated,30_10_2014 level23_spatial_Mini 08_01 log.txt,37,37,1216,63.0,-4.0,2014-10-30,False,right
57,318.1391,1,437,2761,2975,4263,507,-13.0,200,0,1,321.373,0,4,single_speaker,30_10_2014 level23_spatial_Mini 08_01 log.txt,37,37,1216,70.0,3.0,2014-10-30,False,left
59,330.6172,0,936,1551,2975,4263,510,-13.0,200,1,1,331.6543,1,2,separated,30_10_2014 level23_spatial_Mini 08_01 log.txt,37,37,1216,70.0,3.0,2014-10-30,False,left
60,333.1037,0,437,2761,2975,4263,502,-6.0,200,0,1,334.1562,0,4,single_speaker,30_10_2014 level23_spatial_Mini 08_01 log.txt,37,37,1216,63.0,-4.0,2014-10-30,False,left
62,345.2013,1,437,2761,2975,4263,511,-8.0,200,0,1,348.0866,0,0,colocated,30_10_2014 level23_spatial_Mini 08_01 log.txt,37,37,1216,65.0,-2.0,2014-10-30,False,left
64,356.7403,1,936,1551,2975,4263,501,-6.0,200,1,1,359.8307,1,1,colocated,30_10_2014 level23_spatial_Mini 08_01 log.txt,37,37,1216,63.0,-4.0,2014-10-30,False,right
65,362.4659,1,437,2761,2975,4263,504,-6.0,200,0,1,367.4518,0,2,separated,30_10_2014 level23_spatial_Mini 08_01 log.txt,37,37,1216,63.0,-4.0,2014-10-30,False,left
67,376.3342,1,936,1551,2975,4263,508,-15.0,200,1,0,379.2962,0,5,single_speaker,30_10_2014 level23_spatial_Mini 08_01 log.txt,37,37,1216,72.0,5.0,2014-10-30,False,right
69,391.1469,1,437,2761,2975,4263,510,-8.0,200,0,0,393.3886,1,2,separated,30_10_2014 level23_spatial_Mini 08_01 log.txt,37,37,1216,65.0,-2.0,2014-10-30,False,left
70,397.0114,0,936,1551,2975,4263,507,-6.0,200,1,1,398.1089,1,3,separated,30_10_2014 level23_spatial_Mini 08_01 log.txt,37,37,1216,63.0,-4.0,2014-10-30,False,right
71,401.3736,1,936,1551,2975,4263,508,-8.0,200,1,1,403.6503,1,1,colocated,30_10_2014 level23_spatial_Mini 08_01 log.txt,37,37,1216,65.0,-2.0,2014-10-30,False,right
72,407.5862,0,936,1551,2975,4263,503,-10.0,200,1,1,409.0392,1,2,separated,30_10_2014 level23_spatial_Mini 08_01 log.txt,37,37,1216,67.0,0.0,2014-10-30,False,left
73,411.2382,1,936,1551,2975,4263,504,-8.0,200,1,0,413.0364,0,0,colocated,30_10_2014 level23_spatial_Mini 08_01 log.txt,37,37,1216,65.0,-2.0,2014-10-30,False,left
75,423.4633,1,936,1551,2975,4263,506,-10.0,200,1,1,427.0807,1,5,single_speaker,30_10_2014 level23_spatial_Mini 08_01 log.txt,37,37,1216,67.0,0.0,2014-10-30,False,right
76,429.1829,0,437,2761,2975,4263,509,-6.0,200,0,0,430.2248,1,5,single_speaker,30_10_2014 level23_spatial_Mini 08_01 log.txt,37,37,1216,63.0,-4.0,2014-10-30,False,right
77,433.93,1,936,1551,2975,4263,501,-13.0,200,1,1,436.9266,1,4,single_speaker,30_10_2014 level23_spatial_Mini 08_01 log.txt,37,37,1216,70.0,3.0,2014-10-30,False,left
78,440.781,1,437,2761,2975,4263,505,-15.0,200,0,0,442.9872,1,3,separated,30_10_2014 level23_spatial_Mini 08_01 log.txt,37,37,1216,72.0,5.0,2014-10-30,False,right
79,447.4381,1,437,2761,2975,4263,511,-8.0,200,0,0,450.1373,1,5,single_speaker,30_10_2014 level23_spatial_Mini 08_01 log.txt,37,37,1216,65.0,-2.0,2014-10-30,False,right
80,453.9578,0,437,2761,2975,4263,507,-6.0,200,0,1,455.4781,0,2,separated,30_10_2014 level23_spatial_Mini 08_01 log.txt,37,37,1216,63.0,-4.0,2014-10-30,False,left
83,468.4272,1,437,2761,2975,4263,511,-10.0,200,0,0,469.9252,1,3,separated,30_10_2014 level23_spatial_Mini 08_01 log.txt,37,37,1216,67.0,0.0,2014-10-30,False,right
84,471.963,1,437,2761,2975,4263,503,-6.0,200,0,0,473.1718,1,4,single_speaker,30_10_2014 level23_spatial_Mini 08_01 log.txt,37,37,1216,63.0,-4.0,2014-10-30,False,left
85,477.2904,0,437,2761,2975,4263,509,-13.0,200,0,0,478.2213,1,5,single_speaker,30_10_2014 level23_spatial_Mini 08_01 log.txt,37,37,1216,70.0,3.0,2014-10-30,False,right
86,483.0335,0,437,2761,2975,4263,501,-10.0,200,0,0,484.0266,1,1,colocated,30_10_2014 level23_spatial_Mini 08_01 log.txt,37,37,1216,67.0,0.0,2014-10-30,False,right
87,488.2184,0,936,1551,2975,4263,510,-6.0,200,1,1,489.3773,1,5,single_speaker,30_10_2014 level23_spatial_Mini 08_01 log.txt,37,37,1216,63.0,-4.0,2014-10-30,False,right
88,491.2678,0,437,2761,2975,4263,508,-15.0,200,0,1,492.4731,0,1,colocated,30_10_2014 level23_spatial_Mini 08_01 log.txt,37,37,1216,72.0,5.0,2014-10-30,False,right
90,500.7266,1,437,2761,2975,4263,502,-13.0,200,0,0,502.0885,1,4,single_speaker,30_10_2014 level23_spatial_Mini 08_01 log.txt,37,37,1216,70.0,3.0,2014-10-30,False,left
91,504.623,0,936,1551,2975,4263,505,-15.0,200,1,0,506.1832,0,3,separated,30_10_2014 level23_spatial_Mini 08_01 log.txt,37,37,1216,72.0,5.0,2014-10-30,False,right
94,521.9808,0,936,1551,2975,4263,504,-15.0,200,1,1,524.3108,1,1,colocated,30_10_2014 level23_spatial_Mini 08_01 log.txt,37,37,1216,72.0,5.0,2014-10-30,False,right
95,526.7123,0,936,1551,2975,4263,504,-6.0,200,1,1,527.5015,1,2,separated,30_10_2014 level23_spatial_Mini 08_01 log.txt,37,37,1216,63.0,-4.0,2014-10-30,False,left
96,530.7409,0,437,2761,2975,4263,510,-8.0,200,0,0,532.368,1,3,separated,30_10_2014 level23_spatial_Mini 08_01 log.txt,37,37,1216,65.0,-2.0,2014-10-30,False,right
97,536.5355,1,437,2761,2975,4263,501,-13.0,200,0,1,538.6385,0,2,separated,30_10_2014 level23_spatial_Mini 08_01 log.txt,37,37,1216,70.0,3.0,2014-10-30,False,left
1,10.4739,0,936,1551,2975,4263,501,-10.0,200,1,0,13.7585,0,3,separated,31_10_2014 level23_spatial_Mini 14_15 log.txt,37,37,1216,67.0,0.0,2014-10-31,False,right
4,27.9972,1,437,2761,2975,4263,504,-10.0,200,0,0,30.3956,1,4,single_speaker,31_10_2014 level23_spatial_Mini 14_15 log.txt,37,37,1216,67.0,0.0,2014-10-31,False,left
5,34.58,1,437,2761,2975,4263,502,-6.0,200,0,0,36.6416,1,3,separated,31_10_2014 level23_spatial_Mini 14_15 log.txt,37,37,1216,63.0,-4.0,2014-10-31,False,right
6,40.3287,0,936,1551,2975,4263,503,-6.0,200,1,1,43.2854,1,1,colocated,31_10_2014 level23_spatial_Mini 14_15 log.txt,37,37,1216,63.0,-4.0,2014-10-31,False,right
7,44.6683,0,936,1551,2975,4263,506,-15.0,200,1,1,45.87,1,3,separated,31_10_2014 level23_spatial_Mini 14_15 log.txt,37,37,1216,72.0,5.0,2014-10-31,False,right
8,47.4885,1,936,1551,2975,4263,505,-13.0,200,1,1,50.069,1,1,colocated,31_10_2014 level23_spatial_Mini 14_15 log.txt,37,37,1216,70.0,3.0,2014-10-31,False,right
9,53.4037,0,936,1551,2975,4263,508,-13.0,200,1,1,54.7413,1,4,single_speaker,31_10_2014 level23_spatial_Mini 14_15 log.txt,37,37,1216,70.0,3.0,2014-10-31,False,left
10,57.9063,0,936,1551,2975,4263,509,-15.0,200,1,1,59.0362,1,1,colocated,31_10_2014 level23_spatial_Mini 14_15 log.txt,37,37,1216,72.0,5.0,2014-10-31,False,right
11,62.9871,0,437,2761,2975,4263,510,-8.0,200,0,0,64.0384,1,4,single_speaker,31_10_2014 level23_spatial_Mini 14_15 log.txt,37,37,1216,65.0,-2.0,2014-10-31,False,left
12,68.9432,1,936,1551,2975,4263,507,-6.0,200,1,0,71.289,0,5,single_speaker,31_10_2014 level23_spatial_Mini 14_15 log.txt,37,37,1216,63.0,-4.0,2014-10-31,False,right
14,79.4986,1,936,1551,2975,4263,509,-6.0,200,1,1,82.1894,1,2,separated,31_10_2014 level23_spatial_Mini 14_15 log.txt,37,37,1216,63.0,-4.0,2014-10-31,False,left
15,85.6628,1,936,1551,2975,4263,501,-10.0,200,1,1,88.4651,1,4,single_speaker,31_10_2014 level23_spatial_Mini 14_15 log.txt,37,37,1216,67.0,0.0,2014-10-31,False,left
16,97.0642,0,437,2761,2975,4263,506,-13.0,200,0,0,97.9916,1,5,single_speaker,31_10_2014 level23_spatial_Mini 14_15 log.txt,37,37,1216,70.0,3.0,2014-10-31,False,right
17,103.0529,0,437,2761,2975,4263,504,-13.0,200,0,0,104.1156,1,2,separated,31_10_2014 level23_spatial_Mini 14_15 log.txt,37,37,1216,70.0,3.0,2014-10-31,False,left
18,112.2108,0,936,1551,2975,4263,503,-13.0,200,1,1,113.5563,1,3,separated,31_10_2014 level23_spatial_Mini 14_15 log.txt,37,37,1216,70.0,3.0,2014-10-31,False,right
19,117.0388,1,437,2761,2975,4263,508,-10.0,200,0,0,119.2947,1,2,separated,31_10_2014 level23_spatial_Mini 14_15 log.txt,37,37,1216,67.0,0.0,2014-10-31,False,left
20,123.2927,0,936,1551,2975,4263,502,-15.0,200,1,1,124.7997,1,5,single_speaker,31_10_2014 level23_spatial_Mini 14_15 log.txt,37,37,1216,72.0,5.0,2014-10-31,False,right
21,127.6958,0,936,1551,2975,4263,510,-6.0,200,1,1,129.1078,1,0,colocated,31_10_2014 level23_spatial_Mini 14_15 log.txt,37,37,1216,63.0,-4.0,2014-10-31,False,left
22,132.2715,1,936,1551,2975,4263,511,-15.0,200,1,1,135.2109,1,2,separated,31_10_2014 level23_spatial_Mini 14_15 log.txt,37,37,1216,72.0,5.0,2014-10-31,False,left
23,138.9672,1,437,2761,2975,4263,507,-8.0,200,0,0,141.1462,1,5,single_speaker,31_10_2014 level23_spatial_Mini 14_15 log.txt,37,37,1216,65.0,-2.0,2014-10-31,False,right
24,144.9716,0,437,2761,2975,4263,501,-15.0,200,0,0,144.9867,1,3,separated,31_10_2014 level23_spatial_Mini 14_15 log.txt,37,37,1216,72.0,5.0,2014-10-31,False,right
25,149.1593,0,936,1551,2975,4263,505,-10.0,200,1,1,150.7691,1,0,colocated,31_10_2014 level23_spatial_Mini 14_15 log.txt,37,37,1216,67.0,0.0,2014-10-31,False,left
26,153.4022,0,936,1551,2975,4263,508,-13.0,200,1,1,155.3304,1,5,single_speaker,31_10_2014 level23_spatial_Mini 14_15 log.txt,37,37,1216,70.0,3.0,2014-10-31,False,right
27,158.5688,1,437,2761,2975,4263,511,-8.0,200,0,1,161.1821,0,1,colocated,31_10_2014 level23_spatial_Mini 14_15 log.txt,37,37,1216,65.0,-2.0,2014-10-31,False,right
31,188.3183,0,936,1551,2975,4263,507,-15.0,200,1,1,189.4779,1,0,colocated,31_10_2014 level23_spatial_Mini 14_15 log.txt,37,37,1216,72.0,5.0,2014-10-31,False,left
32,192.4013,0,936,1551,2975,4263,504,-8.0,200,1,1,193.5999,1,2,separated,31_10_2014 level23_spatial_Mini 14_15 log.txt,37,37,1216,65.0,-2.0,2014-10-31,False,left
33,196.4283,0,936,1551,2975,4263,510,-10.0,200,1,1,197.8416,1,5,single_speaker,31_10_2014 level23_spatial_Mini 14_15 log.txt,37,37,1216,67.0,0.0,2014-10-31,False,right
34,200.575,1,936,1551,2975,4263,503,-6.0,200,1,0,202.8063,0,3,separated,31_10_2014 level23_spatial_Mini 14_15 log.txt,37,37,1216,63.0,-4.0,2014-10-31,False,right
37,228.4772,1,437,2761,2975,4263,509,-13.0,200,0,1,231.0514,0,3,separated,31_10_2014 level23_spatial_Mini 14_15 log.txt,37,37,1216,70.0,3.0,2014-10-31,False,right
39,240.7185,1,437,2761,2975,4263,502,-15.0,200,0,0,242.5879,1,2,separated,31_10_2014 level23_spatial_Mini 14_15 log.txt,37,37,1216,72.0,5.0,2014-10-31,False,left
40,246.4385,0,437,2761,2975,4263,505,-10.0,200,0,0,248.012,1,3,separated,31_10_2014 level23_spatial_Mini 14_15 log.txt,37,37,1216,67.0,0.0,2014-10-31,False,right
41,251.8581,0,437,2761,2975,4263,501,-10.0,200,0,0,252.8656,1,1,colocated,31_10_2014 level23_spatial_Mini 14_15 log.txt,37,37,1216,67.0,0.0,2014-10-31,False,right
42,257.9211,0,437,2761,2975,4263,502,-13.0,200,0,0,257.9655,1,0,colocated,31_10_2014 level23_spatial_Mini 14_15 log.txt,37,37,1216,70.0,3.0,2014-10-31,False,left
43,264.0773,0,936,1551,2975,4263,506,-8.0,200,1,1,265.3839,1,0,colocated,31_10_2014 level23_spatial_Mini 14_15 log.txt,37,37,1216,65.0,-2.0,2014-10-31,False,left
44,267.3414,0,437,2761,2975,4263,507,-15.0,200,0,0,268.4977,1,1,colocated,31_10_2014 level23_spatial_Mini 14_15 log.txt,37,37,1216,72.0,5.0,2014-10-31,False,right
45,272.1628,0,936,1551,2975,4263,509,-8.0,200,1,0,273.4291,0,4,single_speaker,31_10_2014 level23_spatial_Mini 14_15 log.txt,37,37,1216,65.0,-2.0,2014-10-31,False,left
47,281.0937,0,437,2761,2975,4263,511,-10.0,200,0,0,282.6624,1,5,single_speaker,31_10_2014 level23_spatial_Mini 14_15 log.txt,37,37,1216,67.0,0.0,2014-10-31,False,right
48,285.0333,0,437,2761,2975,4263,510,-6.0,200,0,0,286.2529,1,2,separated,31_10_2014 level23_spatial_Mini 14_15 log.txt,37,37,1216,63.0,-4.0,2014-10-31,False,left
49,295.1961,1,437,2761,2975,4263,504,-8.0,200,0,0,295.3165,1,0,colocated,31_10_2014 level23_spatial_Mini 14_15 log.txt,37,37,1216,65.0,-2.0,2014-10-31,False,left
50,302.5763,0,437,2761,2975,4263,503,-6.0,200,0,0,302.6902,1,4,single_speaker,31_10_2014 level23_spatial_Mini 14_15 log.txt,37,37,1216,63.0,-4.0,2014-10-31,False,left
51,308.1901,1,936,1551,2975,4263,509,-15.0,200,1,0,308.1987,0,4,single_speaker,31_10_2014 level23_spatial_Mini 14_15 log.txt,37,37,1216,72.0,5.0,2014-10-31,False,left
57,351.6461,1,437,2761,2975,4263,506,-6.0,200,0,0,354.5773,1,1,colocated,31_10_2014 level23_spatial_Mini 14_15 log.txt,37,37,1216,63.0,-4.0,2014-10-31,False,right
58,360.8901,0,437,2761,2975,4263,507,-15.0,200,0,0,360.8757,1,5,single_speaker,31_10_2014 level23_spatial_Mini 14_15 log.txt,37,37,1216,72.0,5.0,2014-10-31,False,right
59,381.9202,1,437,2761,2975,4263,511,-6.0,200,0,0,383.4711,1,0,colocated,31_10_2014 level23_spatial_Mini 14_15 log.txt,37,37,1216,63.0,-4.0,2014-10-31,False,left
60,385.9301,1,437,2761,2975,4263,508,-8.0,200,0,0,388.4294,1,2,separated,31_10_2014 level23_spatial_Mini 14_15 log.txt,37,37,1216,65.0,-2.0,2014-10-31,False,left
61,393.102,1,936,1551,2975,4263,501,-13.0,200,1,0,395.4203,0,2,separated,31_10_2014 level23_spatial_Mini 14_15 log.txt,37,37,1216,70.0,3.0,2014-10-31,False,left
1,0.9648,1,936,1551,2975,4263,508,-6.0,200,1,0,2.548,0,3,separated,17_11_2014 level23_spatial_Mini 10_07 log.txt,37,37,1216,63.0,-4.0,2014-11-17,False,right
7,61.5319,0,437,2761,2975,4263,505,-15.0,200,0,0,74.093,1,1,colocated,17_11_2014 level23_spatial_Mini 10_07 log.txt,37,37,1216,72.0,5.0,2014-11-17,False,right
8,82.6338,0,437,2761,2975,4263,501,-8.0,200,0,0,83.7323,1,0,colocated,17_11_2014 level23_spatial_Mini 10_07 log.txt,37,37,1216,65.0,-2.0,2014-11-17,False,left
9,88.6175,0,437,2761,2975,4263,511,-6.0,200,0,0,89.3699,1,1,colocated,17_11_2014 level23_spatial_Mini 10_07 log.txt,37,37,1216,63.0,-4.0,2014-11-17,False,right
10,99.3071,1,437,2761,2975,4263,503,-6.0,200,0,1,102.1618,0,5,single_speaker,17_11_2014 level23_spatial_Mini 10_07 log.txt,37,37,1216,63.0,-4.0,2014-11-17,False,right
12,111.277,1,936,1551,2975,4263,510,-15.0,200,1,0,112.4248,0,2,separated,17_11_2014 level23_spatial_Mini 10_07 log.txt,37,37,1216,72.0,5.0,2014-11-17,False,left
14,118.6421,0,936,1551,2975,4263,504,-6.0,200,1,1,119.4946,1,5,single_speaker,17_11_2014 level23_spatial_Mini 10_07 log.txt,37,37,1216,63.0,-4.0,2014-11-17,False,right
15,122.0234,1,936,1551,2975,4263,502,-10.0,200,1,0,122.846,0,3,separated,17_11_2014 level23_spatial_Mini 10_07 log.txt,37,37,1216,67.0,0.0,2014-11-17,False,right
19,150.7423,1,936,1551,2975,4263,509,-6.0,200,1,0,152.0356,0,2,separated,17_11_2014 level23_spatial_Mini 10_07 log.txt,37,37,1216,63.0,-4.0,2014-11-17,False,left
22,174.6696,1,936,1551,2975,4263,506,-13.0,200,1,0,175.7099,0,2,separated,17_11_2014 level23_spatial_Mini 10_07 log.txt,37,37,1216,70.0,3.0,2014-11-17,False,left
24,189.4549,1,437,2761,2975,4263,511,-8.0,200,0,0,190.4235,1,2,separated,17_11_2014 level23_spatial_Mini 10_07 log.txt,37,37,1216,65.0,-2.0,2014-11-17,False,left
25,198.9169,0,936,1551,2975,4263,508,-8.0,200,1,1,200.213,1,5,single_speaker,17_11_2014 level23_spatial_Mini 10_07 log.txt,37,37,1216,65.0,-2.0,2014-11-17,False,right
26,208.6287,0,936,1551,2975,4263,505,-8.0,200,1,0,209.4066,0,2,separated,17_11_2014 level23_spatial_Mini 10_07 log.txt,37,37,1216,65.0,-2.0,2014-11-17,False,left
28,219.2728,0,936,1551,2975,4263,504,-10.0,200,1,0,220.2198,0,5,single_speaker,17_11_2014 level23_spatial_Mini 10_07 log.txt,37,37,1216,67.0,0.0,2014-11-17,False,right
30,237.5461,1,936,1551,2975,4263,509,-15.0,200,1,0,240.6537,0,1,colocated,17_11_2014 level23_spatial_Mini 10_07 log.txt,37,37,1216,72.0,5.0,2014-11-17,False,right
33,283.5736,0,437,2761,2975,4263,510,-15.0,200,0,0,284.6031,1,0,colocated,17_11_2014 level23_spatial_Mini 10_07 log.txt,37,37,1216,72.0,5.0,2014-11-17,False,left
34,300.1902,0,437,2761,2975,4263,501,-6.0,200,0,0,301.3751,1,3,separated,17_11_2014 level23_spatial_Mini 10_07 log.txt,37,37,1216,63.0,-4.0,2014-11-17,False,right
35,313.8881,0,437,2761,2975,4263,507,-6.0,200,0,0,315.2732,1,0,colocated,17_11_2014 level23_spatial_Mini 10_07 log.txt,37,37,1216,63.0,-4.0,2014-11-17,False,left
36,317.1097,0,437,2761,2975,4263,503,-15.0,200,0,0,318.6615,1,2,separated,17_11_2014 level23_spatial_Mini 10_07 log.txt,37,37,1216,72.0,5.0,2014-11-17,False,left
37,321.1927,0,437,2761,2975,4263,506,-6.0,200,0,0,322.6923,1,2,separated,17_11_2014 level23_spatial_Mini 10_07 log.txt,37,37,1216,63.0,-4.0,2014-11-17,False,left
38,325.4312,0,936,1551,2975,4263,506,-10.0,200,1,1,327.9487,1,2,separated,17_11_2014 level23_spatial_Mini 10_07 log.txt,37,37,1216,67.0,0.0,2014-11-17,False,left
39,332.2028,1,437,2761,2975,4263,504,-15.0,200,0,1,333.2895,0,3,separated,17_11_2014 level23_spatial_Mini 10_07 log.txt,37,37,1216,72.0,5.0,2014-11-17,False,right
41,343.4342,0,437,2761,2975,4263,505,-10.0,200,0,0,344.1533,1,4,single_speaker,17_11_2014 level23_spatial_Mini 10_07 log.txt,37,37,1216,67.0,0.0,2014-11-17,False,left
42,345.6587,1,936,1551,2975,4263,501,-8.0,200,1,1,351.53,1,1,colocated,17_11_2014 level23_spatial_Mini 10_07 log.txt,37,37,1216,65.0,-2.0,2014-11-17,False,right
43,355.632,0,936,1551,2975,4263,507,-13.0,200,1,0,357.3082,0,3,separated,17_11_2014 level23_spatial_Mini 10_07 log.txt,37,37,1216,70.0,3.0,2014-11-17,False,right
49,446.708,0,437,2761,2975,4263,510,-8.0,200,0,0,447.1488,1,4,single_speaker,17_11_2014 level23_spatial_Mini 10_07 log.txt,37,37,1216,65.0,-2.0,2014-11-17,False,left
50,453.8669,0,936,1551,2975,4263,502,-10.0,200,1,0,454.9818,0,4,single_speaker,17_11_2014 level23_spatial_Mini 10_07 log.txt,37,37,1216,67.0,0.0,2014-11-17,False,left
52,462.6452,0,437,2761,2975,4263,503,-6.0,200,0,0,463.2971,1,4,single_speaker,17_11_2014 level23_spatial_Mini 10_07 log.txt,37,37,1216,63.0,-4.0,2014-11-17,False,left
53,470.2657,0,936,1551,2975,4263,508,-8.0,200,1,0,471.3203,0,0,colocated,17_11_2014 level23_spatial_Mini 10_07 log.txt,37,37,1216,65.0,-2.0,2014-11-17,False,left
56,484.2621,0,936,1551,2975,4263,511,-10.0,200,1,1,485.3617,1,0,colocated,17_11_2014 level23_spatial_Mini 10_07 log.txt,37,37,1216,67.0,0.0,2014-11-17,False,left
57,487.6337,0,936,1551,2975,4263,510,-13.0,200,1,0,488.624,0,0,colocated,17_11_2014 level23_spatial_Mini 10_07 log.txt,37,37,1216,70.0,3.0,2014-11-17,False,left
61,520.2914,0,936,1551,2975,4263,509,-13.0,200,1,1,521.874,1,1,colocated,17_11_2014 level23_spatial_Mini 10_07 log.txt,37,37,1216,70.0,3.0,2014-11-17,False,right
62,533.9686,0,936,1551,2975,4263,504,-6.0,200,1,1,535.4502,1,4,single_speaker,17_11_2014 level23_spatial_Mini 10_07 log.txt,37,37,1216,63.0,-4.0,2014-11-17,False,left
63,538.4771,1,437,2761,2975,4263,502,-13.0,200,0,0,539.4376,1,2,separated,17_11_2014 level23_spatial_Mini 10_07 log.txt,37,37,1216,70.0,3.0,2014-11-17,False,left
64,547.0699,0,437,2761,2975,4263,501,-8.0,200,0,0,547.9695,1,3,separated,17_11_2014 level23_spatial_Mini 10_07 log.txt,37,37,1216,65.0,-2.0,2014-11-17,False,right
65,558.5087,1,437,2761,2975,4263,505,-10.0,200,0,0,559.3884,1,5,single_speaker,17_11_2014 level23_spatial_Mini 10_07 log.txt,37,37,1216,67.0,0.0,2014-11-17,False,right
66,565.6273,0,437,2761,2975,4263,506,-15.0,200,0,0,566.0291,1,5,single_speaker,17_11_2014 level23_spatial_Mini 10_07 log.txt,37,37,1216,72.0,5.0,2014-11-17,False,right
67,574.4552,1,437,2761,2975,4263,503,-13.0,200,0,0,574.7791,1,4,single_speaker,17_11_2014 level23_spatial_Mini 10_07 log.txt,37,37,1216,70.0,3.0,2014-11-17,False,left
68,580.6787,0,936,1551,2975,4263,507,-13.0,200,1,0,581.0103,0,5,single_speaker,17_11_2014 level23_spatial_Mini 10_07 log.txt,37,37,1216,70.0,3.0,2014-11-17,False,right
74,599.4707,1,936,1551,2975,4263,511,-6.0,200,1,1,600.4013,1,0,colocated,17_11_2014 level23_spatial_Mini 10_07 log.txt,37,37,1216,63.0,-4.0,2014-11-17,False,left
75,603.2986,0,936,1551,2975,4263,505,-15.0,200,1,0,603.8317,0,3,separated,17_11_2014 level23_spatial_Mini 10_07 log.txt,37,37,1216,72.0,5.0,2014-11-17,False,right
78,621.3281,0,437,2761,2975,4263,504,-10.0,200,0,0,622.3287,1,1,colocated,17_11_2014 level23_spatial_Mini 10_07 log.txt,37,37,1216,67.0,0.0,2014-11-17,False,right
79,631.6582,1,437,2761,2975,4263,507,-13.0,200,0,0,632.3618,1,1,colocated,17_11_2014 level23_spatial_Mini 10_07 log.txt,37,37,1216,70.0,3.0,2014-11-17,False,right
80,645.6043,0,437,2761,2975,4263,506,-13.0,200,0,0,646.0506,1,5,single_speaker,17_11_2014 level23_spatial_Mini 10_07 log.txt,37,37,1216,70.0,3.0,2014-11-17,False,right
81,652.3915,1,437,2761,2975,4263,508,-8.0,200,0,0,652.9202,1,1,colocated,17_11_2014 level23_spatial_Mini 10_07 log.txt,37,37,1216,65.0,-2.0,2014-11-17,False,right
82,663.9701,1,437,2761,2975,4263,503,-15.0,200,0,0,664.7008,1,4,single_speaker,17_11_2014 level23_spatial_Mini 10_07 log.txt,37,37,1216,72.0,5.0,2014-11-17,False,left
83,667.9321,1,936,1551,2975,4263,509,-15.0,200,1,0,668.3918,0,4,single_speaker,17_11_2014 level23_spatial_Mini 10_07 log.txt,37,37,1216,72.0,5.0,2014-11-17,False,left
86,684.6335,1,936,1551,2975,4263,502,-8.0,200,1,0,685.6154,0,4,single_speaker,17_11_2014 level23_spatial_Mini 10_07 log.txt,37,37,1216,65.0,-2.0,2014-11-17,False,left
90,709.6105,0,936,1551,2975,4263,510,-8.0,200,1,0,710.5632,0,3,separated,17_11_2014 level23_spatial_Mini 10_07 log.txt,37,37,1216,65.0,-2.0,2014-11-17,False,right
93,725.7201,0,437,2761,2975,4263,511,-10.0,200,0,0,726.2004,1,2,separated,17_11_2014 level23_spatial_Mini 10_07 log.txt,37,37,1216,67.0,0.0,2014-11-17,False,left
94,733.6551,1,936,1551,2975,4263,509,-10.0,200,1,0,734.2222,0,1,colocated,17_11_2014 level23_spatial_Mini 10_07 log.txt,37,37,1216,67.0,0.0,2014-11-17,False,right
98,759.9709,0,936,1551,2975,4263,506,-13.0,200,1,0,760.8698,0,4,single_speaker,17_11_2014 level23_spatial_Mini 10_07 log.txt,37,37,1216,70.0,3.0,2014-11-17,False,left
101,786.8888,1,437,2761,2975,4263,502,-13.0,200,0,0,791.6873,1,0,colocated,17_11_2014 level23_spatial_Mini 10_07 log.txt,37,37,1216,70.0,3.0,2014-11-17,False,left
102,795.9911,1,437,2761,2975,4263,503,-10.0,200,0,0,797.6804,1,0,colocated,17_11_2014 level23_spatial_Mini 10_07 log.txt,37,37,1216,67.0,0.0,2014-11-17,False,left
103,801.9093,1,437,2761,2975,4263,511,-13.0,200,0,0,804.2115,1,3,separated,17_11_2014 level23_spatial_Mini 10_07 log.txt,37,37,1216,70.0,3.0,2014-11-17,False,right
104,809.1392,0,437,2761,2975,4263,501,-10.0,200,0,0,810.7474,1,3,separated,17_11_2014 level23_spatial_Mini 10_07 log.txt,37,37,1216,67.0,0.0,2014-11-17,False,right
105,817.4448,0,936,1551,2975,4263,507,-15.0,200,1,0,819.287,0,0,colocated,17_11_2014 level23_spatial_Mini 10_07 log.txt,37,37,1216,72.0,5.0,2014-11-17,False,left
108,849.2244,0,936,1551,2975,4263,504,-6.0,200,1,0,850.5409,0,1,colocated,17_11_2014 level23_spatial_Mini 10_07 log.txt,37,37,1216,63.0,-4.0,2014-11-17,False,right
112,869.7981,0,437,2761,2975,4263,508,-8.0,200,0,1,871.2906,0,5,single_speaker,17_11_2014 level23_spatial_Mini 10_07 log.txt,37,37,1216,65.0,-2.0,2014-11-17,False,right
114,879.2818,1,936,1551,2975,4263,510,-15.0,200,1,0,879.9636,0,5,single_speaker,17_11_2014 level23_spatial_Mini 10_07 log.txt,37,37,1216,72.0,5.0,2014-11-17,False,right
119,911.6032,1,936,1551,2975,4263,506,-13.0,200,1,0,913.3072,0,1,colocated,17_11_2014 level23_spatial_Mini 10_07 log.txt,37,37,1216,70.0,3.0,2014-11-17,False,right
123,944.1015,1,437,2761,2975,4263,511,-10.0,200,0,0,948.8015,1,3,separated,17_11_2014 level23_spatial_Mini 10_07 log.txt,37,37,1216,67.0,0.0,2014-11-17,False,right
124,953.8376,1,437,2761,2975,4263,502,-15.0,200,0,0,955.9927,1,1,colocated,17_11_2014 level23_spatial_Mini 10_07 log.txt,37,37,1216,72.0,5.0,2014-11-17,False,right
125,962.0186,1,936,1551,2975,4263,503,-10.0,200,1,0,964.2934,0,4,single_speaker,17_11_2014 level23_spatial_Mini 10_07 log.txt,37,37,1216,67.0,0.0,2014-11-17,False,left
128,980.895,0,936,1551,2975,4263,504,-10.0,200,1,1,982.7304,1,5,single_speaker,17_11_2014 level23_spatial_Mini 10_07 log.txt,37,37,1216,67.0,0.0,2014-11-17,False,right
129,996.505,1,437,2761,2975,4263,508,-13.0,200,0,0,998.7542,1,2,separated,17_11_2014 level23_spatial_Mini 10_07 log.txt,37,37,1216,70.0,3.0,2014-11-17,False,left
130,1004.2968,1,936,1551,2975,4263,507,-8.0,200,1,0,1006.6873,0,5,single_speaker,17_11_2014 level23_spatial_Mini 10_07 log.txt,37,37,1216,65.0,-2.0,2014-11-17,False,right
133,1021.2241,1,936,1551,2975,4263,501,-10.0,200,1,0,1023.7281,0,0,colocated,17_11_2014 level23_spatial_Mini 10_07 log.txt,37,37,1216,67.0,0.0,2014-11-17,False,left
135,1033.2956,1,437,2761,2975,4263,509,-10.0,200,0,0,1035.3236,1,4,single_speaker,17_11_2014 level23_spatial_Mini 10_07 log.txt,37,37,1216,67.0,0.0,2014-11-17,False,left
136,1040.0011,1,936,1551,2975,4263,510,-10.0,200,1,0,1045.6479,0,3,separated,17_11_2014 level23_spatial_Mini 10_07 log.txt,37,37,1216,67.0,0.0,2014-11-17,False,right
138,1058.2933,0,936,1551,2975,4263,510,-8.0,200,1,1,1059.6476,1,1,colocated,17_11_2014 level23_spatial_Mini 10_07 log.txt,37,37,1216,65.0,-2.0,2014-11-17,False,right
139,1070.9215,1,437,2761,2975,4263,503,-10.0,200,0,0,1073.3079,1,1,colocated,17_11_2014 level23_spatial_Mini 10_07 log.txt,37,37,1216,67.0,0.0,2014-11-17,False,right
140,1077.1979,1,437,2761,2975,4263,509,-8.0,200,0,0,1079.7643,1,0,colocated,17_11_2014 level23_spatial_Mini 10_07 log.txt,37,37,1216,65.0,-2.0,2014-11-17,False,left
141,1083.7874,0,936,1551,2975,4263,501,-10.0,200,1,0,1085.2209,0,2,separated,17_11_2014 level23_spatial_Mini 10_07 log.txt,37,37,1216,67.0,0.0,2014-11-17,False,left
145,1100.2361,1,936,1551,2975,4263,505,-10.0,200,1,1,1102.8918,1,1,colocated,17_11_2014 level23_spatial_Mini 10_07 log.txt,37,37,1216,67.0,0.0,2014-11-17,False,right
146,1106.2827,0,437,2761,2975,4263,511,-10.0,200,0,1,1107.5091,0,5,single_speaker,17_11_2014 level23_spatial_Mini 10_07 log.txt,37,37,1216,67.0,0.0,2014-11-17,False,right
148,1114.5637,0,936,1551,2975,4263,507,-15.0,200,1,0,1115.6509,0,5,single_speaker,17_11_2014 level23_spatial_Mini 10_07 log.txt,37,37,1216,72.0,5.0,2014-11-17,False,right
155,1158.7437,1,437,2761,2975,4263,504,-6.0,200,0,0,1160.8982,1,3,separated,17_11_2014 level23_spatial_Mini 10_07 log.txt,37,37,1216,63.0,-4.0,2014-11-17,False,right
156,1163.7434,1,936,1551,2975,4263,506,-15.0,200,1,0,1166.1887,0,0,colocated,17_11_2014 level23_spatial_Mini 10_07 log.txt,37,37,1216,72.0,5.0,2014-11-17,False,left
158,1176.4335,0,437,2761,2975,4263,508,-6.0,200,0,0,1177.7819,1,2,separated,17_11_2014 level23_spatial_Mini 10_07 log.txt,37,37,1216,63.0,-4.0,2014-11-17,False,left
159,1182.0763,0,437,2761,2975,4263,504,-6.0,200,0,1,1183.788,0,4,single_speaker,17_11_2014 level23_spatial_Mini 10_07 log.txt,37,37,1216,63.0,-4.0,2014-11-17,False,left
161,1193.0579,1,936,1551,2975,4263,508,-13.0,200,1,1,1195.9107,1,2,separated,17_11_2014 level23_spatial_Mini 10_07 log.txt,37,37,1216,70.0,3.0,2014-11-17,False,left
162,1199.5158,0,437,2761,2975,4263,501,-13.0,200,0,0,1200.5741,1,4,single_speaker,17_11_2014 level23_spatial_Mini 10_07 log.txt,37,37,1216,70.0,3.0,2014-11-17,False,left
163,1205.6221,0,936,1551,2975,4263,502,-8.0,200,1,1,1207.0054,1,4,single_speaker,17_11_2014 level23_spatial_Mini 10_07 log.txt,37,37,1216,65.0,-2.0,2014-11-17,False,left
164,1210.5058,0,437,2761,2975,4263,511,-8.0,200,0,0,1211.6849,1,3,separated,17_11_2014 level23_spatial_Mini 10_07 log.txt,37,37,1216,65.0,-2.0,2014-11-17,False,right
165,1215.806,0,936,1551,2975,4263,507,-6.0,200,1,1,1216.9698,1,0,colocated,17_11_2014 level23_spatial_Mini 10_07 log.txt,37,37,1216,63.0,-4.0,2014-11-17,False,left
166,1220.3217,1,437,2761,2975,4263,503,-13.0,200,0,0,1222.7677,1,5,single_speaker,17_11_2014 level23_spatial_Mini 10_07 log.txt,37,37,1216,70.0,3.0,2014-11-17,False,right
167,1227.6235,1,936,1551,2975,4263,505,-13.0,200,1,1,1231.6102,1,4,single_speaker,17_11_2014 level23_spatial_Mini 10_07 log.txt,37,37,1216,70.0,3.0,2014-11-17,False,left
168,1235.6819,0,936,1551,2975,4263,506,-13.0,200,1,0,1237.1322,0,0,colocated,17_11_2014 level23_spatial_Mini 10_07 log.txt,37,37,1216,70.0,3.0,2014-11-17,False,left
170,1245.3369,1,936,1551,2975,4263,510,-8.0,200,1,0,1247.6782,0,0,colocated,17_11_2014 level23_spatial_Mini 10_07 log.txt,37,37,1216,65.0,-2.0,2014-11-17,False,left
172,1255.6385,0,936,1551,2975,4263,511,-15.0,200,1,0,1256.7682,0,2,separated,17_11_2014 level23_spatial_Mini 10_07 log.txt,37,37,1216,72.0,5.0,2014-11-17,False,left
174,1264.445,1,437,2761,2975,4263,504,-8.0,200,0,0,1267.6787,1,5,single_speaker,17_11_2014 level23_spatial_Mini 10_07 log.txt,37,37,1216,65.0,-2.0,2014-11-17,False,right
175,1273.6439,1,437,2761,2975,4263,507,-15.0,200,0,0,1275.8946,1,4,single_speaker,17_11_2014 level23_spatial_Mini 10_07 log.txt,37,37,1216,72.0,5.0,2014-11-17,False,left
176,1283.5853,1,936,1551,2975,4263,510,-6.0,200,1,0,1286.2763,0,1,colocated,17_11_2014 level23_spatial_Mini 10_07 log.txt,37,37,1216,63.0,-4.0,2014-11-17,False,right
179,1306.4461,1,437,2761,2975,4263,506,-13.0,200,0,0,1308.3459,1,1,colocated,17_11_2014 level23_spatial_Mini 10_07 log.txt,37,37,1216,70.0,3.0,2014-11-17,False,right
180,1312.0544,0,936,1551,2975,4263,501,-15.0,200,1,0,1313.3767,0,3,separated,17_11_2014 level23_spatial_Mini 10_07 log.txt,37,37,1216,72.0,5.0,2014-11-17,False,right
182,1322.0387,1,936,1551,2975,4263,502,-13.0,200,1,0,1324.7701,0,5,single_speaker,17_11_2014 level23_spatial_Mini 10_07 log.txt,37,37,1216,70.0,3.0,2014-11-17,False,right
184,1339.4662,1,936,1551,2975,4263,503,-6.0,200,1,0,1341.433,0,2,separated,17_11_2014 level23_spatial_Mini 10_07 log.txt,37,37,1216,63.0,-4.0,2014-11-17,False,left
186,1351.6399,1,437,2761,2975,4263,509,-15.0,200,0,0,1353.6251,1,3,separated,17_11_2014 level23_spatial_Mini 10_07 log.txt,37,37,1216,72.0,5.0,2014-11-17,False,right
187,1356.3938,0,437,2761,2975,4263,505,-13.0,200,0,1,1358.1713,0,3,separated,17_11_2014 level23_spatial_Mini 10_07 log.txt,37,37,1216,70.0,3.0,2014-11-17,False,right
190,1405.1743,0,936,1551,2975,4263,501,-6.0,200,1,1,1406.3501,1,3,separated,17_11_2014 level23_spatial_Mini 10_07 log.txt,37,37,1216,63.0,-4.0,2014-11-17,False,right
191,1410.1193,1,437,2761,2975,4263,507,-6.0,200,0,0,1412.3814,1,0,colocated,17_11_2014 level23_spatial_Mini 10_07 log.txt,37,37,1216,63.0,-4.0,2014-11-17,False,left
192,1553.71,0,437,2761,2975,4263,510,-8.0,200,0,0,1554.6607,1,2,separated,17_11_2014 level23_spatial_Mini 10_07 log.txt,37,37,1216,65.0,-2.0,2014-11-17,False,left
193,1559.8638,1,437,2761,2975,4263,511,-10.0,200,0,0,1561.7303,1,2,separated,17_11_2014 level23_spatial_Mini 10_07 log.txt,37,37,1216,67.0,0.0,2014-11-17,False,left
194,1568.8648,0,936,1551,2975,4263,503,-15.0,200,1,0,1570.9661,0,4,single_speaker,17_11_2014 level23_spatial_Mini 10_07 log.txt,37,37,1216,72.0,5.0,2014-11-17,False,left
1,80.8603,0,437,2761,2975,4263,508,-15.0,200,0,0,83.8786,1,0,colocated,13_03_2014 level23_spatial_Mini 08_35 log.txt,37,37,1216,72.0,5.0,2014-03-13,False,left
2,85.5069,1,437,2761,2975,4263,507,-10.0,200,0,1,89.3323,0,4,single_speaker,13_03_2014 level23_spatial_Mini 08_35 log.txt,37,37,1216,67.0,0.0,2014-03-13,False,left
5,104.1771,0,437,2761,2975,4263,502,-6.0,200,0,1,108.8723,0,1,colocated,13_03_2014 level23_spatial_Mini 08_35 log.txt,37,37,1216,63.0,-4.0,2014-03-13,False,right
9,136.4373,0,437,2761,2975,4263,504,-13.0,200,0,1,137.6719,0,4,single_speaker,13_03_2014 level23_spatial_Mini 08_35 log.txt,37,37,1216,70.0,3.0,2014-03-13,False,left
11,149.1496,0,936,1551,2975,4263,510,-15.0,200,1,1,150.0704,1,0,colocated,13_03_2014 level23_spatial_Mini 08_35 log.txt,37,37,1216,72.0,5.0,2014-03-13,False,left
12,153.8668,1,936,1551,2975,4263,506,-13.0,200,1,1,156.2296,1,0,colocated,13_03_2014 level23_spatial_Mini 08_35 log.txt,37,37,1216,70.0,3.0,2014-03-13,False,left
13,159.1233,0,437,2761,2975,4263,511,-10.0,200,0,0,161.4413,1,3,separated,13_03_2014 level23_spatial_Mini 08_35 log.txt,37,37,1216,67.0,0.0,2014-03-13,False,right
14,165.6938,0,437,2761,2975,4263,503,-10.0,200,0,0,167.4121,1,5,single_speaker,13_03_2014 level23_spatial_Mini 08_35 log.txt,37,37,1216,67.0,0.0,2014-03-13,False,right
15,171.0814,1,936,1551,2975,4263,505,-8.0,200,1,1,171.6459,1,3,separated,13_03_2014 level23_spatial_Mini 08_35 log.txt,37,37,1216,65.0,-2.0,2014-03-13,False,right
16,175.513,1,437,2761,2975,4263,509,-8.0,200,0,1,178.4779,0,5,single_speaker,13_03_2014 level23_spatial_Mini 08_35 log.txt,37,37,1216,65.0,-2.0,2014-03-13,False,right
18,190.8326,0,936,1551,2975,4263,503,-6.0,200,1,1,191.4045,1,4,single_speaker,13_03_2014 level23_spatial_Mini 08_35 log.txt,37,37,1216,63.0,-4.0,2014-03-13,False,left
19,194.2276,1,437,2761,2975,4263,505,-8.0,200,0,1,196.2663,0,0,colocated,13_03_2014 level23_spatial_Mini 08_35 log.txt,37,37,1216,65.0,-2.0,2014-03-13,False,left
21,206.5562,1,936,1551,2975,4263,507,-15.0,200,1,1,207.3035,1,4,single_speaker,13_03_2014 level23_spatial_Mini 08_35 log.txt,37,37,1216,72.0,5.0,2014-03-13,False,left
22,209.6045,0,437,2761,2975,4263,509,-6.0,200,0,1,211.2432,0,5,single_speaker,13_03_2014 level23_spatial_Mini 08_35 log.txt,37,37,1216,63.0,-4.0,2014-03-13,False,right
24,223.9245,1,437,2761,2975,4263,501,-6.0,200,0,0,227.3143,1,2,separated,13_03_2014 level23_spatial_Mini 08_35 log.txt,37,37,1216,63.0,-4.0,2014-03-13,False,left
25,234.9932,0,936,1551,2975,4263,504,-15.0,200,1,1,235.5567,1,2,separated,13_03_2014 level23_spatial_Mini 08_35 log.txt,37,37,1216,72.0,5.0,2014-03-13,False,left
26,238.9962,0,437,2761,2975,4263,506,-6.0,200,0,0,240.5123,1,3,separated,13_03_2014 level23_spatial_Mini 08_35 log.txt,37,37,1216,63.0,-4.0,2014-03-13,False,right
27,244.8534,0,936,1551,2975,4263,510,-10.0,200,1,1,245.3471,1,4,single_speaker,13_03_2014 level23_spatial_Mini 08_35 log.txt,37,37,1216,67.0,0.0,2014-03-13,False,left
28,248.5943,1,936,1551,2975,4263,511,-10.0,200,1,1,250.9785,1,1,colocated,13_03_2014 level23_spatial_Mini 08_35 log.txt,37,37,1216,67.0,0.0,2014-03-13,False,right
29,254.0792,0,936,1551,2975,4263,508,-6.0,200,1,0,255.5261,0,3,separated,13_03_2014 level23_spatial_Mini 08_35 log.txt,37,37,1216,63.0,-4.0,2014-03-13,False,right
31,262.7796,1,936,1551,2975,4263,510,-15.0,200,1,1,265.8909,1,1,colocated,13_03_2014 level23_spatial_Mini 08_35 log.txt,37,37,1216,72.0,5.0,2014-03-13,False,right
32,269.5388,0,936,1551,2975,4263,505,-13.0,200,1,0,271.618,0,4,single_speaker,13_03_2014 level23_spatial_Mini 08_35 log.txt,37,37,1216,70.0,3.0,2014-03-13,False,left
34,278.2032,0,936,1551,2975,4263,507,-8.0,200,1,1,279.0964,1,1,colocated,13_03_2014 level23_spatial_Mini 08_35 log.txt,37,37,1216,65.0,-2.0,2014-03-13,False,right
35,282.2881,0,936,1551,2975,4263,501,-6.0,200,1,1,286.1888,1,0,colocated,13_03_2014 level23_spatial_Mini 08_35 log.txt,37,37,1216,63.0,-4.0,2014-03-13,False,left
36,290.0826,1,936,1551,2975,4263,509,-8.0,200,1,1,292.1478,1,4,single_speaker,13_03_2014 level23_spatial_Mini 08_35 log.txt,37,37,1216,65.0,-2.0,2014-03-13,False,left
37,296.4551,0,437,2761,2975,4263,506,-8.0,200,0,1,299.8903,0,3,separated,13_03_2014 level23_spatial_Mini 08_35 log.txt,37,37,1216,65.0,-2.0,2014-03-13,False,right
40,318.9712,0,437,2761,2975,4263,503,-13.0,200,0,1,319.4178,0,0,colocated,13_03_2014 level23_spatial_Mini 08_35 log.txt,37,37,1216,70.0,3.0,2014-03-13,False,left
42,330.5943,0,437,2761,2975,4263,511,-13.0,200,0,0,331.9707,1,1,colocated,13_03_2014 level23_spatial_Mini 08_35 log.txt,37,37,1216,70.0,3.0,2014-03-13,False,right
43,337.5575,1,437,2761,2975,4263,502,-8.0,200,0,1,343.0451,0,4,single_speaker,13_03_2014 level23_spatial_Mini 08_35 log.txt,37,37,1216,65.0,-2.0,2014-03-13,False,left
46,361.4197,1,437,2761,2975,4263,504,-15.0,200,0,0,364.4345,1,5,single_speaker,13_03_2014 level23_spatial_Mini 08_35 log.txt,37,37,1216,72.0,5.0,2014-03-13,False,right
47,368.2454,0,936,1551,2975,4263,511,-10.0,200,1,1,369.2477,1,2,separated,13_03_2014 level23_spatial_Mini 08_35 log.txt,37,37,1216,67.0,0.0,2014-03-13,False,left
48,372.9447,1,936,1551,2975,4263,503,-10.0,200,1,1,375.0278,1,3,separated,13_03_2014 level23_spatial_Mini 08_35 log.txt,37,37,1216,67.0,0.0,2014-03-13,False,right
49,379.3584,1,936,1551,2975,4263,508,-15.0,200,1,1,381.6585,1,3,separated,13_03_2014 level23_spatial_Mini 08_35 log.txt,37,37,1216,72.0,5.0,2014-03-13,False,right
50,384.8577,0,437,2761,2975,4263,507,-8.0,200,0,0,386.8161,1,2,separated,13_03_2014 level23_spatial_Mini 08_35 log.txt,37,37,1216,65.0,-2.0,2014-03-13,False,left
51,392.5549,1,936,1551,2975,4263,510,-13.0,200,1,1,393.2439,1,1,colocated,13_03_2014 level23_spatial_Mini 08_35 log.txt,37,37,1216,70.0,3.0,2014-03-13,False,right
52,396.3508,1,437,2761,2975,4263,502,-13.0,200,0,1,398.8641,0,5,single_speaker,13_03_2014 level23_spatial_Mini 08_35 log.txt,37,37,1216,70.0,3.0,2014-03-13,False,right
54,406.255,0,936,1551,2975,4263,506,-8.0,200,1,1,407.3258,1,2,separated,13_03_2014 level23_spatial_Mini 08_35 log.txt,37,37,1216,65.0,-2.0,2014-03-13,False,left
55,410.066,1,437,2761,2975,4263,501,-8.0,200,0,1,412.6722,0,1,colocated,13_03_2014 level23_spatial_Mini 08_35 log.txt,37,37,1216,65.0,-2.0,2014-03-13,False,right
59,456.5207,0,936,1551,2975,4263,504,-10.0,200,1,1,457.3678,1,5,single_speaker,13_03_2014 level23_spatial_Mini 08_35 log.txt,37,37,1216,67.0,0.0,2014-03-13,False,right
60,459.944,1,936,1551,2975,4263,509,-15.0,200,1,1,462.1408,1,5,single_speaker,13_03_2014 level23_spatial_Mini 08_35 log.txt,37,37,1216,72.0,5.0,2014-03-13,False,right
61,465.6145,1,936,1551,2975,4263,511,-13.0,200,1,1,468.2463,1,2,separated,13_03_2014 level23_spatial_Mini 08_35 log.txt,37,37,1216,70.0,3.0,2014-03-13,False,left
62,471.8553,1,437,2761,2975,4263,501,-13.0,200,0,1,473.5527,0,2,separated,13_03_2014 level23_spatial_Mini 08_35 log.txt,37,37,1216,70.0,3.0,2014-03-13,False,left
65,500.7062,0,936,1551,2975,4263,503,-8.0,200,1,1,501.6464,1,0,colocated,13_03_2014 level23_spatial_Mini 08_35 log.txt,37,37,1216,65.0,-2.0,2014-03-13,False,left
66,504.8396,1,437,2761,2975,4263,505,-6.0,200,0,1,507.8279,0,4,single_speaker,13_03_2014 level23_spatial_Mini 08_35 log.txt,37,37,1216,63.0,-4.0,2014-03-13,False,left
68,518.6893,0,936,1551,2975,4263,508,-13.0,200,1,1,519.6606,1,3,separated,13_03_2014 level23_spatial_Mini 08_35 log.txt,37,37,1216,70.0,3.0,2014-03-13,False,right
69,522.0391,1,437,2761,2975,4263,506,-10.0,200,0,1,524.4572,0,0,colocated,13_03_2014 level23_spatial_Mini 08_35 log.txt,37,37,1216,67.0,0.0,2014-03-13,False,left
72,557.425,0,437,2761,2975,4263,502,-15.0,200,0,1,557.9866,0,2,separated,13_03_2014 level23_spatial_Mini 08_35 log.txt,37,37,1216,72.0,5.0,2014-03-13,False,left
1,14.8103,0,437,2761,2975,4263,701,-14.0,200,0,0,15.8939,1,5,single_speaker,27_11_2014 level23_spatial_Mini 15_16 log.txt,37,37,1216,71.0,4.0,2014-11-27,False,right
2,21.324,0,936,1551,2975,4263,676,-11.0,200,1,0,21.7716,0,2,separated,27_11_2014 level23_spatial_Mini 15_16 log.txt,37,37,1216,68.0,1.0,2014-11-27,False,left
8,120.1791,0,437,2761,2975,4263,576,-10.0,200,0,0,122.0927,1,1,colocated,27_11_2014 level23_spatial_Mini 15_16 log.txt,37,37,1216,67.0,0.0,2014-11-27,False,right
9,127.0699,1,936,1551,2975,4263,501,-10.0,200,1,0,129.7505,0,1,colocated,27_11_2014 level23_spatial_Mini 15_16 log.txt,37,37,1216,67.0,0.0,2014-11-27,False,right
11,146.5056,0,437,2761,2975,4263,651,-10.0,200,0,0,147.6623,1,2,separated,27_11_2014 level23_spatial_Mini 15_16 log.txt,37,37,1216,67.0,0.0,2014-11-27,False,left
12,153.3382,0,437,2761,2975,4263,726,-11.0,200,0,0,154.0967,1,3,separated,27_11_2014 level23_spatial_Mini 15_16 log.txt,37,37,1216,68.0,1.0,2014-11-27,False,right
13,159.4726,0,437,2761,2975,4263,551,-15.0,200,0,0,160.2585,1,0,colocated,27_11_2014 level23_spatial_Mini 15_16 log.txt,37,37,1216,72.0,5.0,2014-11-27,False,left
14,165.4854,0,936,1551,2975,4263,626,-12.0,200,1,1,166.5264,1,4,single_speaker,27_11_2014 level23_spatial_Mini 15_16 log.txt,37,37,1216,69.0,2.0,2014-11-27,False,left
15,172.486,0,437,2761,2975,4263,601,-15.0,200,0,0,173.1845,1,1,colocated,27_11_2014 level23_spatial_Mini 15_16 log.txt,37,37,1216,72.0,5.0,2014-11-27,False,right
16,177.8504,0,437,2761,2975,4263,526,-11.0,200,0,0,178.2826,1,4,single_speaker,27_11_2014 level23_spatial_Mini 15_16 log.txt,37,37,1216,68.0,1.0,2014-11-27,False,left
17,182.7537,0,437,2761,2975,4263,501,-12.0,200,0,0,183.4204,1,5,single_speaker,27_11_2014 level23_spatial_Mini 15_16 log.txt,37,37,1216,69.0,2.0,2014-11-27,False,right
18,188.6962,0,936,1551,2975,4263,626,-10.0,200,1,1,189.3075,1,4,single_speaker,27_11_2014 level23_spatial_Mini 15_16 log.txt,37,37,1216,67.0,0.0,2014-11-27,False,left
19,195.5565,0,936,1551,2975,4263,601,-12.0,200,1,0,196.5907,0,2,separated,27_11_2014 level23_spatial_Mini 15_16 log.txt,37,37,1216,69.0,2.0,2014-11-27,False,left
21,210.2788,0,936,1551,2975,4263,701,-14.0,200,1,1,210.908,1,3,separated,27_11_2014 level23_spatial_Mini 15_16 log.txt,37,37,1216,71.0,4.0,2014-11-27,False,right
22,217.7837,0,936,1551,2975,4263,726,-11.0,200,1,1,218.5482,1,1,colocated,27_11_2014 level23_spatial_Mini 15_16 log.txt,37,37,1216,68.0,1.0,2014-11-27,False,right
23,225.7022,0,936,1551,2975,4263,551,-12.0,200,1,0,226.5554,0,0,colocated,27_11_2014 level23_spatial_Mini 15_16 log.txt,37,37,1216,69.0,2.0,2014-11-27,False,left
27,269.6485,1,437,2761,2975,4263,751,-11.0,200,0,0,270.8599,1,5,single_speaker,27_11_2014 level23_spatial_Mini 15_16 log.txt,37,37,1216,68.0,1.0,2014-11-27,False,right
28,274.2896,0,936,1551,2975,4263,651,-14.0,200,1,1,275.6957,1,1,colocated,27_11_2014 level23_spatial_Mini 15_16 log.txt,37,37,1216,71.0,4.0,2014-11-27,False,right
29,279.9931,0,437,2761,2975,4263,526,-15.0,200,0,0,280.9018,1,2,separated,27_11_2014 level23_spatial_Mini 15_16 log.txt,37,37,1216,72.0,5.0,2014-11-27,False,left
30,285.9279,0,437,2761,2975,4263,576,-15.0,200,0,0,286.6916,1,5,single_speaker,27_11_2014 level23_spatial_Mini 15_16 log.txt,37,37,1216,72.0,5.0,2014-11-27,False,right
31,291.444,0,437,2761,2975,4263,676,-11.0,200,0,0,292.6366,1,0,colocated,27_11_2014 level23_spatial_Mini 15_16 log.txt,37,37,1216,68.0,1.0,2014-11-27,False,left
32,298.8891,0,437,2761,2975,4263,601,-14.0,200,0,0,300.1564,1,1,colocated,27_11_2014 level23_spatial_Mini 15_16 log.txt,37,37,1216,71.0,4.0,2014-11-27,False,right
33,314.964,0,936,1551,2975,4263,726,-11.0,200,1,0,317.0355,0,3,separated,27_11_2014 level23_spatial_Mini 15_16 log.txt,37,37,1216,68.0,1.0,2014-11-27,False,right
35,341.1409,0,936,1551,2975,4263,651,-10.0,200,1,1,341.9186,1,5,single_speaker,27_11_2014 level23_spatial_Mini 15_16 log.txt,37,37,1216,67.0,0.0,2014-11-27,False,right
36,345.4436,0,437,2761,2975,4263,551,-12.0,200,0,0,346.484,1,0,colocated,27_11_2014 level23_spatial_Mini 15_16 log.txt,37,37,1216,69.0,2.0,2014-11-27,False,left
37,350.6649,0,437,2761,2975,4263,626,-12.0,200,0,0,351.136,1,4,single_speaker,27_11_2014 level23_spatial_Mini 15_16 log.txt,37,37,1216,69.0,2.0,2014-11-27,False,left
38,412.5315,0,936,1551,2975,4263,576,-15.0,200,1,1,416.6565,1,0,colocated,27_11_2014 level23_spatial_Mini 15_16 log.txt,37,37,1216,72.0,5.0,2014-11-27,False,left
39,444.9636,0,936,1551,2975,4263,526,-15.0,200,1,1,445.4769,1,4,single_speaker,27_11_2014 level23_spatial_Mini 15_16 log.txt,37,37,1216,72.0,5.0,2014-11-27,False,left
40,450.5217,0,437,2761,2975,4263,701,-12.0,200,0,1,450.7961,0,2,separated,27_11_2014 level23_spatial_Mini 15_16 log.txt,37,37,1216,69.0,2.0,2014-11-27,False,left
42,462.0116,1,936,1551,2975,4263,501,-10.0,200,1,0,463.4263,0,0,colocated,27_11_2014 level23_spatial_Mini 15_16 log.txt,37,37,1216,67.0,0.0,2014-11-27,False,left
44,475.8449,0,437,2761,2975,4263,626,-15.0,200,0,0,476.5907,1,4,single_speaker,27_11_2014 level23_spatial_Mini 15_16 log.txt,37,37,1216,72.0,5.0,2014-11-27,False,left
45,480.0064,0,936,1551,2975,4263,601,-10.0,200,1,1,481.1774,1,3,separated,27_11_2014 level23_spatial_Mini 15_16 log.txt,37,37,1216,67.0,0.0,2014-11-27,False,right
46,485.1643,0,936,1551,2975,4263,576,-11.0,200,1,1,486.1543,1,5,single_speaker,27_11_2014 level23_spatial_Mini 15_16 log.txt,37,37,1216,68.0,1.0,2014-11-27,False,right
47,494.4644,0,437,2761,2975,4263,701,-10.0,200,0,1,494.9616,0,0,colocated,27_11_2014 level23_spatial_Mini 15_16 log.txt,37,37,1216,67.0,0.0,2014-11-27,False,left
49,510.1146,0,437,2761,2975,4263,526,-12.0,200,0,0,510.8355,1,1,colocated,27_11_2014 level23_spatial_Mini 15_16 log.txt,37,37,1216,69.0,2.0,2014-11-27,False,right
50,515.1631,0,437,2761,2975,4263,551,-11.0,200,0,0,515.4798,1,2,separated,27_11_2014 level23_spatial_Mini 15_16 log.txt,37,37,1216,68.0,1.0,2014-11-27,False,left
