Trial,StartTime,CenterReward,F1,F2,F3,F4,HoldTime,Atten,Pitch,Side,Response,RespTime,Correct,SpatialMask,UniversalStartTime,originalFile,LeftTemperature,RightTemperature,fNum,day,meanTemp,treatment,vowel_level,SNR,SpatialCondition,VowelLocation
1,3.0629,1,936,1551,2975,4263,508,-6.0,200,0,0,4.0701,1,2,735935.409757672,02_12_2014 level23_spatial_Magnum 09_50 log.txt,37.0,37.0,1311,2014-12-02,37.0,False,63.0,-4.0,separated,left
2,7.8397,0,437,2761,2975,4263,501,-6.0,200,1,0,8.6794,0,3,735935.409812959,02_12_2014 level23_spatial_Magnum 09_50 log.txt,37.0,37.0,1311,2014-12-02,37.0,False,63.0,-4.0,separated,right
4,18.5086,1,437,2761,2975,4263,507,-12.0,200,1,0,21.2692,0,2,735935.409936442,02_12_2014 level23_spatial_Magnum 09_50 log.txt,37.0,37.0,1311,2014-12-02,37.0,False,69.0,2.0,separated,left
6,35.0257,1,437,2761,2975,4263,505,-12.0,200,1,1,38.2811,1,0,735935.410127612,02_12_2014 level23_spatial_Magnum 09_50 log.txt,37.0,37.0,1311,2014-12-02,37.0,False,69.0,2.0,colocated,left
7,40.5428,1,936,1551,2975,4263,509,-9.0,200,0,0,42.2971,1,0,735935.410191468,02_12_2014 level23_spatial_Magnum 09_50 log.txt,37.0,37.0,1311,2014-12-02,37.0,False,66.0,-1.0,colocated,left
8,45.6769,0,936,1551,2975,4263,506,-15.0,200,0,0,46.6333,1,2,735935.41025089,02_12_2014 level23_spatial_Magnum 09_50 log.txt,37.0,37.0,1311,2014-12-02,37.0,False,72.0,5.0,separated,left
9,49.8429,0,936,1551,2975,4263,511,-6.0,200,0,0,50.8347,1,3,735935.410299108,02_12_2014 level23_spatial_Magnum 09_50 log.txt,37.0,37.0,1311,2014-12-02,37.0,False,63.0,-4.0,separated,right
10,54.1396,0,936,1551,2975,4263,503,-15.0,200,0,0,55.1004,1,3,735935.410348838,02_12_2014 level23_spatial_Magnum 09_50 log.txt,37.0,37.0,1311,2014-12-02,37.0,False,72.0,5.0,separated,right
11,58.1612,0,437,2761,2975,4263,510,-9.0,200,1,1,59.5496,1,1,735935.410395384,02_12_2014 level23_spatial_Magnum 09_50 log.txt,37.0,37.0,1311,2014-12-02,37.0,False,66.0,-1.0,colocated,right
12,65.8409,1,437,2761,2975,4263,504,-12.0,200,1,1,69.1461,1,5,735935.41048427,02_12_2014 level23_spatial_Magnum 09_50 log.txt,37.0,37.0,1311,2014-12-02,37.0,False,69.0,2.0,single_speaker,right
13,71.0022,0,437,2761,2975,4263,509,-12.0,200,1,0,71.6792,0,2,735935.410544007,02_12_2014 level23_spatial_Magnum 09_50 log.txt,37.0,37.0,1311,2014-12-02,37.0,False,69.0,2.0,separated,left
15,81.0294,0,437,2761,2975,4263,501,-12.0,200,1,1,82.8373,1,1,735935.410660063,02_12_2014 level23_spatial_Magnum 09_50 log.txt,37.0,37.0,1311,2014-12-02,37.0,False,69.0,2.0,colocated,right
16,88.5222,0,437,2761,2975,4263,503,-9.0,200,1,1,90.0558,1,5,735935.410746785,02_12_2014 level23_spatial_Magnum 09_50 log.txt,37.0,37.0,1311,2014-12-02,37.0,False,66.0,-1.0,single_speaker,right
17,92.02,1,936,1551,2975,4263,510,-12.0,200,0,0,93.7594,1,0,735935.410787269,02_12_2014 level23_spatial_Magnum 09_50 log.txt,37.0,37.0,1311,2014-12-02,37.0,False,69.0,2.0,colocated,left
18,96.6743,0,936,1551,2975,4263,508,-12.0,200,0,1,98.8034,0,3,735935.410841138,02_12_2014 level23_spatial_Magnum 09_50 log.txt,37.0,37.0,1311,2014-12-02,37.0,False,69.0,2.0,separated,right
20,107.1312,1,936,1551,2975,4263,507,-9.0,200,0,0,108.6599,1,1,735935.410962167,02_12_2014 level23_spatial_Magnum 09_50 log.txt,37.0,37.0,1311,2014-12-02,37.0,False,66.0,-1.0,colocated,right
21,111.5041,0,936,1551,2975,4263,506,-9.0,200,0,0,112.3122,1,3,735935.411012779,02_12_2014 level23_spatial_Magnum 09_50 log.txt,37.0,37.0,1311,2014-12-02,37.0,False,66.0,-1.0,separated,right
22,115.577,0,437,2761,2975,4263,504,-9.0,200,1,0,116.3808,0,2,735935.411059919,02_12_2014 level23_spatial_Magnum 09_50 log.txt,37.0,37.0,1311,2014-12-02,37.0,False,66.0,-1.0,separated,left
24,130.5185,0,936,1551,2975,4263,505,-9.0,200,0,0,131.1993,1,5,735935.411232853,02_12_2014 level23_spatial_Magnum 09_50 log.txt,37.0,37.0,1311,2014-12-02,37.0,False,66.0,-1.0,single_speaker,right
25,134.3442,0,936,1551,2975,4263,502,-12.0,200,0,0,135.1347,1,2,735935.411277132,02_12_2014 level23_spatial_Magnum 09_50 log.txt,37.0,37.0,1311,2014-12-02,37.0,False,69.0,2.0,separated,left
26,138.2485,0,936,1551,2975,4263,506,-12.0,200,0,0,139.0195,1,0,735935.411322321,02_12_2014 level23_spatial_Magnum 09_50 log.txt,37.0,37.0,1311,2014-12-02,37.0,False,69.0,2.0,colocated,left
27,142.4052,1,936,1551,2975,4263,509,-15.0,200,0,0,143.3992,1,4,735935.411370431,02_12_2014 level23_spatial_Magnum 09_50 log.txt,37.0,37.0,1311,2014-12-02,37.0,False,72.0,5.0,single_speaker,left
28,149.4569,1,437,2761,2975,4263,503,-15.0,200,1,1,151.2078,1,4,735935.411452048,02_12_2014 level23_spatial_Magnum 09_50 log.txt,37.0,37.0,1311,2014-12-02,37.0,False,72.0,5.0,single_speaker,left
29,157.4777,0,437,2761,2975,4263,507,-12.0,200,1,0,158.2691,0,5,735935.411544881,02_12_2014 level23_spatial_Magnum 09_50 log.txt,37.0,37.0,1311,2014-12-02,37.0,False,69.0,2.0,single_speaker,right
31,165.2604,0,936,1551,2975,4263,505,-6.0,200,0,0,165.9297,1,0,735935.411634958,02_12_2014 level23_spatial_Magnum 09_50 log.txt,37.0,37.0,1311,2014-12-02,37.0,False,63.0,-4.0,colocated,left
32,169.0254,0,936,1551,2975,4263,508,-15.0,200,0,0,170.1955,1,1,735935.411678535,02_12_2014 level23_spatial_Magnum 09_50 log.txt,37.0,37.0,1311,2014-12-02,37.0,False,72.0,5.0,colocated,right
33,174.2688,0,437,2761,2975,4263,502,-6.0,200,1,1,176.8604,1,5,735935.411739222,02_12_2014 level23_spatial_Magnum 09_50 log.txt,37.0,37.0,1311,2014-12-02,37.0,False,63.0,-4.0,single_speaker,right
34,177.9414,1,437,2761,2975,4263,511,-12.0,200,1,1,180.7825,1,3,735935.411781729,02_12_2014 level23_spatial_Magnum 09_50 log.txt,37.0,37.0,1311,2014-12-02,37.0,False,69.0,2.0,separated,right
35,188.8568,0,437,2761,2975,4263,504,-12.0,200,1,0,189.4416,0,4,735935.411908065,02_12_2014 level23_spatial_Magnum 09_50 log.txt,37.0,37.0,1311,2014-12-02,37.0,False,69.0,2.0,single_speaker,left
37,202.1048,1,437,2761,2975,4263,510,-6.0,200,1,1,206.2414,1,2,735935.412061398,02_12_2014 level23_spatial_Magnum 09_50 log.txt,37.0,37.0,1311,2014-12-02,37.0,False,63.0,-4.0,separated,left
38,211.8946,1,936,1551,2975,4263,509,-6.0,200,0,1,218.0393,0,1,735935.412174706,02_12_2014 level23_spatial_Magnum 09_50 log.txt,37.0,37.0,1311,2014-12-02,37.0,False,63.0,-4.0,colocated,right
40,227.3618,0,437,2761,2975,4263,503,-12.0,200,1,1,229.1501,1,0,735935.412353725,02_12_2014 level23_spatial_Magnum 09_50 log.txt,37.0,37.0,1311,2014-12-02,37.0,False,69.0,2.0,colocated,left
41,230.5468,1,936,1551,2975,4263,508,-12.0,200,0,0,232.368,1,4,735935.412390588,02_12_2014 level23_spatial_Magnum 09_50 log.txt,37.0,37.0,1311,2014-12-02,37.0,False,69.0,2.0,single_speaker,left
42,235.5672,0,936,1551,2975,4263,510,-12.0,200,0,0,236.5935,1,3,735935.412448694,02_12_2014 level23_spatial_Magnum 09_50 log.txt,37.0,37.0,1311,2014-12-02,37.0,False,69.0,2.0,separated,right
43,239.7713,0,936,1551,2975,4263,501,-6.0,200,0,0,240.601,1,4,735935.412497353,02_12_2014 level23_spatial_Magnum 09_50 log.txt,37.0,37.0,1311,2014-12-02,37.0,False,63.0,-4.0,single_speaker,left
44,243.9229,1,936,1551,2975,4263,502,-12.0,200,0,0,246.6398,1,1,735935.412545404,02_12_2014 level23_spatial_Magnum 09_50 log.txt,37.0,37.0,1311,2014-12-02,37.0,False,69.0,2.0,colocated,right
45,250.4469,0,936,1551,2975,4263,506,-15.0,200,0,0,251.3714,1,5,735935.412620913,02_12_2014 level23_spatial_Magnum 09_50 log.txt,37.0,37.0,1311,2014-12-02,37.0,False,72.0,5.0,single_speaker,right
46,255.2148,0,437,2761,2975,4263,504,-12.0,200,1,1,256.7794,1,4,735935.412676097,02_12_2014 level23_spatial_Magnum 09_50 log.txt,37.0,37.0,1311,2014-12-02,37.0,False,69.0,2.0,single_speaker,left
47,260.4768,0,437,2761,2975,4263,511,-9.0,200,1,1,262.3879,1,4,735935.412737,02_12_2014 level23_spatial_Magnum 09_50 log.txt,37.0,37.0,1311,2014-12-02,37.0,False,66.0,-1.0,single_speaker,left
48,265.6162,0,437,2761,2975,4263,505,-12.0,200,1,1,267.4417,1,1,735935.412796484,02_12_2014 level23_spatial_Magnum 09_50 log.txt,37.0,37.0,1311,2014-12-02,37.0,False,69.0,2.0,colocated,right
49,275.3827,0,936,1551,2975,4263,505,-12.0,200,0,0,276.1081,1,5,735935.412909522,02_12_2014 level23_spatial_Magnum 09_50 log.txt,37.0,37.0,1311,2014-12-02,37.0,False,69.0,2.0,single_speaker,right
50,279.2013,0,936,1551,2975,4263,504,-12.0,200,0,0,279.9415,1,2,735935.412953719,02_12_2014 level23_spatial_Magnum 09_50 log.txt,37.0,37.0,1311,2014-12-02,37.0,False,69.0,2.0,separated,left
51,283.3406,1,437,2761,2975,4263,507,-9.0,200,1,1,287.0667,1,3,735935.413001627,02_12_2014 level23_spatial_Magnum 09_50 log.txt,37.0,37.0,1311,2014-12-02,37.0,False,66.0,-1.0,separated,right
52,291.4675,0,936,1551,2975,4263,503,-6.0,200,0,0,292.4137,1,5,735935.413095689,02_12_2014 level23_spatial_Magnum 09_50 log.txt,37.0,37.0,1311,2014-12-02,37.0,False,63.0,-4.0,single_speaker,right
53,295.8932,0,936,1551,2975,4263,506,-12.0,200,0,0,296.6843,1,5,735935.413146912,02_12_2014 level23_spatial_Magnum 09_50 log.txt,37.0,37.0,1311,2014-12-02,37.0,False,69.0,2.0,single_speaker,right
54,300.0219,1,437,2761,2975,4263,508,-15.0,200,1,0,303.2266,0,2,735935.413194698,02_12_2014 level23_spatial_Magnum 09_50 log.txt,37.0,37.0,1311,2014-12-02,37.0,False,72.0,5.0,separated,left
56,315.9333,1,437,2761,2975,4263,502,-12.0,200,1,1,318.7961,1,3,735935.413378858,02_12_2014 level23_spatial_Magnum 09_50 log.txt,37.0,37.0,1311,2014-12-02,37.0,False,69.0,2.0,separated,right
57,326.0484,1,936,1551,2975,4263,509,-12.0,200,0,1,330.2636,0,1,735935.413495931,02_12_2014 level23_spatial_Magnum 09_50 log.txt,37.0,37.0,1311,2014-12-02,37.0,False,69.0,2.0,colocated,right
59,339.6632,0,936,1551,2975,4263,510,-15.0,200,0,0,340.5428,1,0,735935.413653509,02_12_2014 level23_spatial_Magnum 09_50 log.txt,37.0,37.0,1311,2014-12-02,37.0,False,72.0,5.0,colocated,left
60,344.0896,1,437,2761,2975,4263,501,-15.0,200,1,0,347.4952,0,0,735935.413704741,02_12_2014 level23_spatial_Magnum 09_50 log.txt,37.0,37.0,1311,2014-12-02,37.0,False,72.0,5.0,colocated,left
62,353.9794,0,437,2761,2975,4263,506,-15.0,200,1,1,355.6246,1,3,735935.413819206,02_12_2014 level23_spatial_Magnum 09_50 log.txt,37.0,37.0,1311,2014-12-02,37.0,False,72.0,5.0,separated,right
63,358.5716,1,936,1551,2975,4263,504,-9.0,200,0,0,360.5685,1,2,735935.413872357,02_12_2014 level23_spatial_Magnum 09_50 log.txt,37.0,37.0,1311,2014-12-02,37.0,False,66.0,-1.0,separated,left
64,363.4945,1,437,2761,2975,4263,508,-15.0,200,1,1,368.2398,1,1,735935.413929334,02_12_2014 level23_spatial_Magnum 09_50 log.txt,37.0,37.0,1311,2014-12-02,37.0,False,72.0,5.0,colocated,right
65,370.8064,0,437,2761,2975,4263,507,-15.0,200,1,1,372.4114,1,5,735935.414013963,02_12_2014 level23_spatial_Magnum 09_50 log.txt,37.0,37.0,1311,2014-12-02,37.0,False,72.0,5.0,single_speaker,right
66,383.173,0,437,2761,2975,4263,501,-9.0,200,1,0,383.9247,0,0,735935.414157095,02_12_2014 level23_spatial_Magnum 09_50 log.txt,37.0,37.0,1311,2014-12-02,37.0,False,66.0,-1.0,colocated,left
69,393.6447,0,437,2761,2975,4263,509,-6.0,200,1,1,395.14,1,1,735935.414278295,02_12_2014 level23_spatial_Magnum 09_50 log.txt,37.0,37.0,1311,2014-12-02,37.0,False,63.0,-4.0,colocated,right
70,397.5488,1,437,2761,2975,4263,511,-6.0,200,1,1,400.9505,1,0,735935.414323481,02_12_2014 level23_spatial_Magnum 09_50 log.txt,37.0,37.0,1311,2014-12-02,37.0,False,63.0,-4.0,colocated,left
71,410.4149,0,936,1551,2975,4263,502,-9.0,200,0,0,411.2813,1,4,735935.414472395,02_12_2014 level23_spatial_Magnum 09_50 log.txt,37.0,37.0,1311,2014-12-02,37.0,False,66.0,-1.0,single_speaker,left
72,414.3878,1,437,2761,2975,4263,505,-6.0,200,1,1,418.7617,1,4,735935.414518377,02_12_2014 level23_spatial_Magnum 09_50 log.txt,37.0,37.0,1311,2014-12-02,37.0,False,63.0,-4.0,single_speaker,left
73,420.1585,0,936,1551,2975,4263,503,-12.0,200,0,0,420.9186,1,4,735935.414585168,02_12_2014 level23_spatial_Magnum 09_50 log.txt,37.0,37.0,1311,2014-12-02,37.0,False,69.0,2.0,single_speaker,left
74,424.4416,1,437,2761,2975,4263,501,-6.0,200,1,0,428.5453,0,0,735935.414634741,02_12_2014 level23_spatial_Magnum 09_50 log.txt,37.0,37.0,1311,2014-12-02,37.0,False,63.0,-4.0,colocated,left
76,441.3997,1,437,2761,2975,4263,507,-6.0,200,1,1,452.4932,1,1,735935.414831015,02_12_2014 level23_spatial_Magnum 09_50 log.txt,37.0,37.0,1311,2014-12-02,37.0,False,63.0,-4.0,colocated,right
77,456.7664,1,936,1551,2975,4263,509,-15.0,200,0,0,465.2522,1,4,735935.41500887,02_12_2014 level23_spatial_Magnum 09_50 log.txt,37.0,37.0,1311,2014-12-02,37.0,False,72.0,5.0,single_speaker,left
78,468.4524,1,936,1551,2975,4263,502,-12.0,200,0,0,470.659,1,2,735935.415144125,02_12_2014 level23_spatial_Magnum 09_50 log.txt,37.0,37.0,1311,2014-12-02,37.0,False,69.0,2.0,separated,left
79,475.0068,1,936,1551,2975,4263,506,-9.0,200,0,0,476.7104,1,4,735935.415219986,02_12_2014 level23_spatial_Magnum 09_50 log.txt,37.0,37.0,1311,2014-12-02,37.0,False,66.0,-1.0,single_speaker,left
80,479.6148,0,437,2761,2975,4263,511,-15.0,200,1,1,481.6033,1,0,735935.415273319,02_12_2014 level23_spatial_Magnum 09_50 log.txt,37.0,37.0,1311,2014-12-02,37.0,False,72.0,5.0,colocated,left
81,483.1824,1,437,2761,2975,4263,510,-9.0,200,1,1,486.9453,1,4,735935.415314611,02_12_2014 level23_spatial_Magnum 09_50 log.txt,37.0,37.0,1311,2014-12-02,37.0,False,66.0,-1.0,single_speaker,left
82,489.004,1,936,1551,2975,4263,504,-9.0,200,0,0,490.7924,1,5,735935.415381991,02_12_2014 level23_spatial_Magnum 09_50 log.txt,37.0,37.0,1311,2014-12-02,37.0,False,66.0,-1.0,single_speaker,right
83,494.1185,0,437,2761,2975,4263,503,-15.0,200,1,1,496.3212,1,1,735935.415441186,02_12_2014 level23_spatial_Magnum 09_50 log.txt,37.0,37.0,1311,2014-12-02,37.0,False,72.0,5.0,colocated,right
84,506.4648,0,936,1551,2975,4263,508,-9.0,200,0,0,507.261,1,0,735935.415584083,02_12_2014 level23_spatial_Magnum 09_50 log.txt,37.0,37.0,1311,2014-12-02,37.0,False,66.0,-1.0,colocated,left
85,510.6885,1,437,2761,2975,4263,510,-12.0,200,1,0,512.9122,0,0,735935.415632969,02_12_2014 level23_spatial_Magnum 09_50 log.txt,37.0,37.0,1311,2014-12-02,37.0,False,69.0,2.0,colocated,left
87,522.1538,1,437,2761,2975,4263,503,-12.0,200,1,1,527.0274,1,5,735935.415765669,02_12_2014 level23_spatial_Magnum 09_50 log.txt,37.0,37.0,1311,2014-12-02,37.0,False,69.0,2.0,single_speaker,right
88,531.0086,1,437,2761,2975,4263,501,-9.0,200,1,0,532.9195,0,2,735935.415868155,02_12_2014 level23_spatial_Magnum 09_50 log.txt,37.0,37.0,1311,2014-12-02,37.0,False,66.0,-1.0,separated,left
93,560.5059,0,936,1551,2975,4263,507,-12.0,200,0,0,561.3079,1,5,735935.416209559,02_12_2014 level23_spatial_Magnum 09_50 log.txt,37.0,37.0,1311,2014-12-02,37.0,False,69.0,2.0,single_speaker,right
94,564.4459,0,936,1551,2975,4263,508,-15.0,200,0,0,565.2301,1,0,735935.416255161,02_12_2014 level23_spatial_Magnum 09_50 log.txt,37.0,37.0,1311,2014-12-02,37.0,False,72.0,5.0,colocated,left
95,568.1382,1,936,1551,2975,4263,505,-12.0,200,0,0,569.8113,1,4,735935.416297896,02_12_2014 level23_spatial_Magnum 09_50 log.txt,37.0,37.0,1311,2014-12-02,37.0,False,69.0,2.0,single_speaker,left
96,579.163,0,437,2761,2975,4263,502,-12.0,200,1,1,580.7139,1,3,735935.416425498,02_12_2014 level23_spatial_Magnum 09_50 log.txt,37.0,37.0,1311,2014-12-02,37.0,False,69.0,2.0,separated,right
97,582.868,0,936,1551,2975,4263,511,-12.0,200,0,0,583.7217,1,3,735935.41646838,02_12_2014 level23_spatial_Magnum 09_50 log.txt,37.0,37.0,1311,2014-12-02,37.0,False,69.0,2.0,separated,right
98,587.1638,1,437,2761,2975,4263,504,-12.0,200,1,1,590.2061,1,0,735935.4165181,02_12_2014 level23_spatial_Magnum 09_50 log.txt,37.0,37.0,1311,2014-12-02,37.0,False,69.0,2.0,colocated,left
99,599.1433,1,437,2761,2975,4263,506,-12.0,200,1,0,601.6879,0,2,735935.416656751,02_12_2014 level23_spatial_Magnum 09_50 log.txt,37.0,37.0,1311,2014-12-02,37.0,False,69.0,2.0,separated,left
101,610.4264,1,437,2761,2975,4263,508,-9.0,200,1,1,614.2396,1,1,735935.416787343,02_12_2014 level23_spatial_Magnum 09_50 log.txt,37.0,37.0,1311,2014-12-02,37.0,False,66.0,-1.0,colocated,right
102,616.4662,1,936,1551,2975,4263,504,-9.0,200,0,0,618.8296,1,3,735935.416857248,02_12_2014 level23_spatial_Magnum 09_50 log.txt,37.0,37.0,1311,2014-12-02,37.0,False,66.0,-1.0,separated,right
103,622.0016,0,936,1551,2975,4263,501,-12.0,200,0,0,623.0338,1,1,735935.416921315,02_12_2014 level23_spatial_Magnum 09_50 log.txt,37.0,37.0,1311,2014-12-02,37.0,False,69.0,2.0,colocated,right
104,626.9631,1,936,1551,2975,4263,502,-12.0,200,0,0,629.0507,1,2,735935.41697874,02_12_2014 level23_spatial_Magnum 09_50 log.txt,37.0,37.0,1311,2014-12-02,37.0,False,69.0,2.0,separated,left
105,633.3204,1,437,2761,2975,4263,507,-9.0,200,1,1,640.716,1,3,735935.41705232,02_12_2014 level23_spatial_Magnum 09_50 log.txt,37.0,37.0,1311,2014-12-02,37.0,False,66.0,-1.0,separated,right
106,646.1797,1,437,2761,2975,4263,506,-12.0,200,1,1,651.3533,1,3,735935.417201154,02_12_2014 level23_spatial_Magnum 09_50 log.txt,37.0,37.0,1311,2014-12-02,37.0,False,69.0,2.0,separated,right
107,655.0207,0,437,2761,2975,4263,503,-12.0,200,1,0,655.9844,0,4,735935.41730348,02_12_2014 level23_spatial_Magnum 09_50 log.txt,37.0,37.0,1311,2014-12-02,37.0,False,69.0,2.0,single_speaker,left
109,663.5142,1,437,2761,2975,4263,509,-12.0,200,1,1,666.0784,1,4,735935.417401785,02_12_2014 level23_spatial_Magnum 09_50 log.txt,37.0,37.0,1311,2014-12-02,37.0,False,69.0,2.0,single_speaker,left
110,674.9458,0,437,2761,2975,4263,510,-6.0,200,1,1,677.1167,1,2,735935.417534095,02_12_2014 level23_spatial_Magnum 09_50 log.txt,37.0,37.0,1311,2014-12-02,37.0,False,63.0,-4.0,separated,left
111,680.4905,1,936,1551,2975,4263,511,-15.0,200,0,0,682.4399,1,5,735935.41759827,02_12_2014 level23_spatial_Magnum 09_50 log.txt,37.0,37.0,1311,2014-12-02,37.0,False,72.0,5.0,single_speaker,right
112,685.5859,1,936,1551,2975,4263,505,-6.0,200,0,0,688.7196,1,4,735935.417657244,02_12_2014 level23_spatial_Magnum 09_50 log.txt,37.0,37.0,1311,2014-12-02,37.0,False,63.0,-4.0,single_speaker,left
113,692.3712,1,437,2761,2975,4263,507,-15.0,200,1,1,696.1489,1,3,735935.417735778,02_12_2014 level23_spatial_Magnum 09_50 log.txt,37.0,37.0,1311,2014-12-02,37.0,False,72.0,5.0,separated,right
114,702.976,1,437,2761,2975,4263,510,-9.0,200,1,1,706.0212,1,5,735935.417858519,02_12_2014 level23_spatial_Magnum 09_50 log.txt,37.0,37.0,1311,2014-12-02,37.0,False,66.0,-1.0,single_speaker,right
115,708.1302,1,936,1551,2975,4263,502,-9.0,200,0,0,709.9036,1,1,735935.417918174,02_12_2014 level23_spatial_Magnum 09_50 log.txt,37.0,37.0,1311,2014-12-02,37.0,False,66.0,-1.0,colocated,right
116,714.7559,1,936,1551,2975,4263,501,-12.0,200,0,1,718.5563,0,0,735935.41799486,02_12_2014 level23_spatial_Magnum 09_50 log.txt,37.0,37.0,1311,2014-12-02,37.0,False,69.0,2.0,colocated,left
118,725.8214,1,936,1551,2975,4263,508,-12.0,200,0,1,729.9899,0,1,735935.418122933,02_12_2014 level23_spatial_Magnum 09_50 log.txt,37.0,37.0,1311,2014-12-02,37.0,False,69.0,2.0,colocated,right
120,740.0363,1,936,1551,2975,4263,503,-9.0,200,0,0,741.9047,1,2,735935.418287457,02_12_2014 level23_spatial_Magnum 09_50 log.txt,37.0,37.0,1311,2014-12-02,37.0,False,66.0,-1.0,separated,left
121,744.846,1,936,1551,2975,4263,506,-6.0,200,0,0,747.0597,1,5,735935.418343125,02_12_2014 level23_spatial_Magnum 09_50 log.txt,37.0,37.0,1311,2014-12-02,37.0,False,63.0,-4.0,single_speaker,right
122,750.6702,0,437,2761,2975,4263,511,-12.0,200,1,1,752.5439,1,5,735935.418410535,02_12_2014 level23_spatial_Magnum 09_50 log.txt,37.0,37.0,1311,2014-12-02,37.0,False,69.0,2.0,single_speaker,right
123,754.2476,0,936,1551,2975,4263,504,-15.0,200,0,1,756.096,0,3,735935.41845194,02_12_2014 level23_spatial_Magnum 09_50 log.txt,37.0,37.0,1311,2014-12-02,37.0,False,72.0,5.0,separated,right
125,764.972,0,936,1551,2975,4263,504,-12.0,200,0,0,765.9341,1,5,735935.418576065,02_12_2014 level23_spatial_Magnum 09_50 log.txt,37.0,37.0,1311,2014-12-02,37.0,False,69.0,2.0,single_speaker,right
126,768.8877,0,936,1551,2975,4263,509,-12.0,200,0,0,769.7544,1,4,735935.418621385,02_12_2014 level23_spatial_Magnum 09_50 log.txt,37.0,37.0,1311,2014-12-02,37.0,False,69.0,2.0,single_speaker,left
127,773.3057,1,437,2761,2975,4263,503,-12.0,200,1,1,775.6413,1,2,735935.41867252,02_12_2014 level23_spatial_Magnum 09_50 log.txt,37.0,37.0,1311,2014-12-02,37.0,False,69.0,2.0,separated,left
128,777.6081,0,437,2761,2975,4263,508,-15.0,200,1,1,779.3395,1,5,735935.418722316,02_12_2014 level23_spatial_Magnum 09_50 log.txt,37.0,37.0,1311,2014-12-02,37.0,False,72.0,5.0,single_speaker,right
129,781.5408,1,936,1551,2975,4263,507,-6.0,200,0,1,784.1632,0,1,735935.418767833,02_12_2014 level23_spatial_Magnum 09_50 log.txt,37.0,37.0,1311,2014-12-02,37.0,False,63.0,-4.0,colocated,right
131,792.199,0,437,2761,2975,4263,502,-12.0,200,1,1,793.2672,1,1,735935.418891192,02_12_2014 level23_spatial_Magnum 09_50 log.txt,37.0,37.0,1311,2014-12-02,37.0,False,69.0,2.0,colocated,right
132,804.1777,1,437,2761,2975,4263,501,-6.0,200,1,0,806.1219,0,4,735935.419029835,02_12_2014 level23_spatial_Magnum 09_50 log.txt,37.0,37.0,1311,2014-12-02,37.0,False,63.0,-4.0,single_speaker,left
136,832.7201,1,936,1551,2975,4263,505,-6.0,200,0,0,834.8221,1,2,735935.419360186,02_12_2014 level23_spatial_Magnum 09_50 log.txt,37.0,37.0,1311,2014-12-02,37.0,False,63.0,-4.0,separated,left
137,850.1387,0,437,2761,2975,4263,510,-9.0,200,1,0,851.038,0,0,735935.419561791,02_12_2014 level23_spatial_Magnum 09_50 log.txt,37.0,37.0,1311,2014-12-02,37.0,False,66.0,-1.0,colocated,left
1,10.6182,0,936,1551,2975,4263,502,-15.0,200,0,1,11.9055,0,1,735692.448734007,03_04_2014 level23_spatial_Magnum 10_46 log.txt,37.0,37.0,1311,2014-04-03,37.0,False,72.0,5.0,colocated,right
4,48.8989,1,936,1551,2975,4263,511,-12.0,200,0,1,50.2059,0,5,735692.449177071,03_04_2014 level23_spatial_Magnum 10_46 log.txt,37.0,37.0,1311,2014-04-03,37.0,False,69.0,2.0,single_speaker,right
8,85.2283,0,936,1551,2975,4263,504,-15.0,200,0,0,89.4936,1,3,735692.44959755,03_04_2014 level23_spatial_Magnum 10_46 log.txt,37.0,37.0,1311,2014-04-03,37.0,False,72.0,5.0,separated,right
9,99.2745,1,936,1551,2975,4263,507,-12.0,200,0,1,103.2018,0,2,735692.449760122,03_04_2014 level23_spatial_Magnum 10_46 log.txt,37.0,37.0,1311,2014-04-03,37.0,False,69.0,2.0,separated,left
11,120.1348,0,437,2761,2975,4263,508,-15.0,200,1,1,121.0916,1,3,735692.45000156,03_04_2014 level23_spatial_Magnum 10_46 log.txt,37.0,37.0,1311,2014-04-03,37.0,False,72.0,5.0,separated,right
13,133.1922,1,936,1551,2975,4263,503,-12.0,200,0,0,136.7955,1,0,735692.450152687,03_04_2014 level23_spatial_Magnum 10_46 log.txt,37.0,37.0,1311,2014-04-03,37.0,False,69.0,2.0,colocated,left
16,154.5714,1,936,1551,2975,4263,505,-12.0,200,0,0,158.8491,1,4,735692.450400132,03_04_2014 level23_spatial_Magnum 10_46 log.txt,37.0,37.0,1311,2014-04-03,37.0,False,69.0,2.0,single_speaker,left
17,165.1151,1,437,2761,2975,4263,509,-6.0,200,1,0,170.8477,0,1,735692.450522166,03_04_2014 level23_spatial_Magnum 10_46 log.txt,37.0,37.0,1311,2014-04-03,37.0,False,63.0,-4.0,colocated,right
19,177.9904,0,437,2761,2975,4263,508,-12.0,200,1,1,178.9736,1,4,735692.450671185,03_04_2014 level23_spatial_Magnum 10_46 log.txt,37.0,37.0,1311,2014-04-03,37.0,False,69.0,2.0,single_speaker,left
20,182.7796,1,936,1551,2975,4263,504,-12.0,200,0,1,185.0217,0,0,735692.450726616,03_04_2014 level23_spatial_Magnum 10_46 log.txt,37.0,37.0,1311,2014-04-03,37.0,False,69.0,2.0,colocated,left
22,199.1445,1,437,2761,2975,4263,502,-6.0,200,1,1,201.9944,1,0,735692.450916024,03_04_2014 level23_spatial_Magnum 10_46 log.txt,37.0,37.0,1311,2014-04-03,37.0,False,63.0,-4.0,colocated,left
27,234.0502,1,437,2761,2975,4263,501,-6.0,200,1,0,238.4213,0,4,735692.451320025,03_04_2014 level23_spatial_Magnum 10_46 log.txt,37.0,37.0,1311,2014-04-03,37.0,False,63.0,-4.0,single_speaker,left
30,257.4203,1,437,2761,2975,4263,503,-9.0,200,1,1,262.1736,1,1,735692.451590513,03_04_2014 level23_spatial_Magnum 10_46 log.txt,37.0,37.0,1311,2014-04-03,37.0,False,66.0,-1.0,colocated,right
31,265.4591,0,437,2761,2975,4263,506,-12.0,200,1,1,266.2009,1,5,735692.451683554,03_04_2014 level23_spatial_Magnum 10_46 log.txt,37.0,37.0,1311,2014-04-03,37.0,False,69.0,2.0,single_speaker,right
32,269.5177,1,936,1551,2975,4263,502,-12.0,200,0,0,271.8511,1,1,735692.451730529,03_04_2014 level23_spatial_Magnum 10_46 log.txt,37.0,37.0,1311,2014-04-03,37.0,False,69.0,2.0,colocated,right
33,276.5609,0,437,2761,2975,4263,504,-6.0,200,1,1,279.6498,1,3,735692.451812048,03_04_2014 level23_spatial_Magnum 10_46 log.txt,37.0,37.0,1311,2014-04-03,37.0,False,63.0,-4.0,separated,right
34,282.7336,1,437,2761,2975,4263,511,-6.0,200,1,0,285.2944,0,2,735692.451883491,03_04_2014 level23_spatial_Magnum 10_46 log.txt,37.0,37.0,1311,2014-04-03,37.0,False,63.0,-4.0,separated,left
36,293.6631,0,936,1551,2975,4263,510,-12.0,200,0,1,294.3528,0,4,735692.45200999,03_04_2014 level23_spatial_Magnum 10_46 log.txt,37.0,37.0,1311,2014-04-03,37.0,False,69.0,2.0,single_speaker,left
39,316.1551,1,936,1551,2975,4263,501,-12.0,200,0,0,320.3285,1,2,735692.452270314,03_04_2014 level23_spatial_Magnum 10_46 log.txt,37.0,37.0,1311,2014-04-03,37.0,False,69.0,2.0,separated,left
40,326.0015,1,437,2761,2975,4263,507,-12.0,200,1,1,328.7678,1,3,735692.452384277,03_04_2014 level23_spatial_Magnum 10_46 log.txt,37.0,37.0,1311,2014-04-03,37.0,False,69.0,2.0,separated,right
41,332.0437,0,936,1551,2975,4263,509,-15.0,200,0,0,334.4212,1,2,735692.45245421,03_04_2014 level23_spatial_Magnum 10_46 log.txt,37.0,37.0,1311,2014-04-03,37.0,False,72.0,5.0,separated,left
42,339.7031,0,437,2761,2975,4263,506,-15.0,200,1,0,341.9661,0,0,735692.45254286,03_04_2014 level23_spatial_Magnum 10_46 log.txt,37.0,37.0,1311,2014-04-03,37.0,False,72.0,5.0,colocated,left
45,355.471,1,437,2761,2975,4263,502,-15.0,200,1,1,355.7766,1,5,735692.452725359,03_04_2014 level23_spatial_Magnum 10_46 log.txt,37.0,37.0,1311,2014-04-03,37.0,False,72.0,5.0,single_speaker,right
46,362.1649,0,437,2761,2975,4263,511,-9.0,200,1,1,364.8987,1,3,735692.452802835,03_04_2014 level23_spatial_Magnum 10_46 log.txt,37.0,37.0,1311,2014-04-03,37.0,False,66.0,-1.0,separated,right
47,368.1544,1,437,2761,2975,4263,508,-9.0,200,1,1,371.0237,1,4,735692.452872157,03_04_2014 level23_spatial_Magnum 10_46 log.txt,37.0,37.0,1311,2014-04-03,37.0,False,66.0,-1.0,single_speaker,left
48,374.1694,1,437,2761,2975,4263,503,-12.0,200,1,0,379.3474,0,4,735692.452941776,03_04_2014 level23_spatial_Magnum 10_46 log.txt,37.0,37.0,1311,2014-04-03,37.0,False,69.0,2.0,single_speaker,left
50,388.297,1,437,2761,2975,4263,504,-12.0,200,1,1,391.1549,1,3,735692.453105289,03_04_2014 level23_spatial_Magnum 10_46 log.txt,37.0,37.0,1311,2014-04-03,37.0,False,69.0,2.0,separated,right
51,394.9446,1,437,2761,2975,4263,507,-12.0,200,1,1,397.4841,1,2,735692.453182229,03_04_2014 level23_spatial_Magnum 10_46 log.txt,37.0,37.0,1311,2014-04-03,37.0,False,69.0,2.0,separated,left
52,400.728,0,936,1551,2975,4263,510,-12.0,200,0,0,411.3686,1,1,735692.453249167,03_04_2014 level23_spatial_Magnum 10_46 log.txt,37.0,37.0,1311,2014-04-03,37.0,False,69.0,2.0,colocated,right
53,417.6443,1,936,1551,2975,4263,501,-12.0,200,0,0,422.1717,1,3,735692.453444957,03_04_2014 level23_spatial_Magnum 10_46 log.txt,37.0,37.0,1311,2014-04-03,37.0,False,69.0,2.0,separated,right
54,427.4917,0,437,2761,2975,4263,505,-15.0,200,1,1,428.7685,1,1,735692.453558932,03_04_2014 level23_spatial_Magnum 10_46 log.txt,37.0,37.0,1311,2014-04-03,37.0,False,72.0,5.0,colocated,right
55,431.936,0,936,1551,2975,4263,506,-15.0,200,0,0,433.7709,1,4,735692.45361037,03_04_2014 level23_spatial_Magnum 10_46 log.txt,37.0,37.0,1311,2014-04-03,37.0,False,72.0,5.0,single_speaker,left
56,438.3803,0,437,2761,2975,4263,511,-9.0,200,1,1,439.4972,1,0,735692.453684957,03_04_2014 level23_spatial_Magnum 10_46 log.txt,37.0,37.0,1311,2014-04-03,37.0,False,66.0,-1.0,colocated,left
57,443.2067,0,437,2761,2975,4263,501,-15.0,200,1,1,444.0603,1,4,735692.453740818,03_04_2014 level23_spatial_Magnum 10_46 log.txt,37.0,37.0,1311,2014-04-03,37.0,False,72.0,5.0,single_speaker,left
58,447.6129,1,437,2761,2975,4263,510,-6.0,200,1,1,450.5029,1,5,735692.453791816,03_04_2014 level23_spatial_Magnum 10_46 log.txt,37.0,37.0,1311,2014-04-03,37.0,False,63.0,-4.0,single_speaker,right
59,453.8963,0,437,2761,2975,4263,508,-12.0,200,1,0,455.8488,0,2,735692.453864541,03_04_2014 level23_spatial_Magnum 10_46 log.txt,37.0,37.0,1311,2014-04-03,37.0,False,69.0,2.0,separated,left
61,464.7514,1,437,2761,2975,4263,504,-9.0,200,1,1,467.344,1,5,735692.453990178,03_04_2014 level23_spatial_Magnum 10_46 log.txt,37.0,37.0,1311,2014-04-03,37.0,False,66.0,-1.0,single_speaker,right
62,470.6737,0,936,1551,2975,4263,505,-15.0,200,0,0,472.3658,1,5,735692.454058723,03_04_2014 level23_spatial_Magnum 10_46 log.txt,37.0,37.0,1311,2014-04-03,37.0,False,72.0,5.0,single_speaker,right
63,477.7278,1,437,2761,2975,4263,502,-15.0,200,1,1,481.2134,1,2,735692.454140368,03_04_2014 level23_spatial_Magnum 10_46 log.txt,37.0,37.0,1311,2014-04-03,37.0,False,72.0,5.0,separated,left
64,484.3189,1,437,2761,2975,4263,503,-9.0,200,1,1,487.1837,1,2,735692.454216654,03_04_2014 level23_spatial_Magnum 10_46 log.txt,37.0,37.0,1311,2014-04-03,37.0,False,66.0,-1.0,separated,left
65,490.211,1,936,1551,2975,4263,509,-12.0,200,0,1,493.6346,0,3,735692.45428485,03_04_2014 level23_spatial_Magnum 10_46 log.txt,37.0,37.0,1311,2014-04-03,37.0,False,69.0,2.0,separated,right
67,507.7718,1,437,2761,2975,4263,504,-12.0,200,1,1,511.119,1,5,735692.4544881,03_04_2014 level23_spatial_Magnum 10_46 log.txt,37.0,37.0,1311,2014-04-03,37.0,False,69.0,2.0,single_speaker,right
68,514.0673,0,437,2761,2975,4263,511,-12.0,200,1,0,515.8273,0,1,735692.454560964,03_04_2014 level23_spatial_Magnum 10_46 log.txt,37.0,37.0,1311,2014-04-03,37.0,False,69.0,2.0,colocated,right
71,530.1117,1,437,2761,2975,4263,503,-12.0,200,1,0,534.6277,0,0,735692.454746663,03_04_2014 level23_spatial_Magnum 10_46 log.txt,37.0,37.0,1311,2014-04-03,37.0,False,69.0,2.0,colocated,left
78,574.7111,0,437,2761,2975,4263,508,-12.0,200,1,1,576.2236,1,0,735692.45526286,03_04_2014 level23_spatial_Magnum 10_46 log.txt,37.0,37.0,1311,2014-04-03,37.0,False,69.0,2.0,colocated,left
79,579.432,0,936,1551,2975,4263,510,-15.0,200,0,0,581.6462,1,0,735692.4553175,03_04_2014 level23_spatial_Magnum 10_46 log.txt,37.0,37.0,1311,2014-04-03,37.0,False,72.0,5.0,colocated,left
80,586.9706,1,936,1551,2975,4263,507,-12.0,200,0,0,590.09,1,5,735692.455404752,03_04_2014 level23_spatial_Magnum 10_46 log.txt,37.0,37.0,1311,2014-04-03,37.0,False,69.0,2.0,single_speaker,right
81,595.1142,0,437,2761,2975,4263,506,-12.0,200,1,1,596.4619,1,1,735692.455499007,03_04_2014 level23_spatial_Magnum 10_46 log.txt,37.0,37.0,1311,2014-04-03,37.0,False,69.0,2.0,colocated,right
82,599.5357,0,437,2761,2975,4263,508,-6.0,200,1,0,601.6952,0,2,735692.455550182,03_04_2014 level23_spatial_Magnum 10_46 log.txt,37.0,37.0,1311,2014-04-03,37.0,False,63.0,-4.0,separated,left
84,608.5741,1,437,2761,2975,4263,503,-9.0,200,1,1,610.9949,1,2,735692.455654793,03_04_2014 level23_spatial_Magnum 10_46 log.txt,37.0,37.0,1311,2014-04-03,37.0,False,66.0,-1.0,separated,left
85,614.4798,1,936,1551,2975,4263,507,-15.0,200,0,0,617.6213,1,2,735692.455723146,03_04_2014 level23_spatial_Magnum 10_46 log.txt,37.0,37.0,1311,2014-04-03,37.0,False,72.0,5.0,separated,left
86,623.2424,1,437,2761,2975,4263,505,-6.0,200,1,1,627.2308,1,1,735692.455824565,03_04_2014 level23_spatial_Magnum 10_46 log.txt,37.0,37.0,1311,2014-04-03,37.0,False,63.0,-4.0,colocated,right
90,652.1247,0,936,1551,2975,4263,510,-12.0,200,0,0,653.81,1,3,735692.456158851,03_04_2014 level23_spatial_Magnum 10_46 log.txt,37.0,37.0,1311,2014-04-03,37.0,False,69.0,2.0,separated,right
91,659.7575,0,936,1551,2975,4263,501,-12.0,200,0,0,661.8551,1,2,735692.456247193,03_04_2014 level23_spatial_Magnum 10_46 log.txt,37.0,37.0,1311,2014-04-03,37.0,False,69.0,2.0,separated,left
92,666.9779,1,437,2761,2975,4263,509,-12.0,200,1,1,669.5841,1,1,735692.456330763,03_04_2014 level23_spatial_Magnum 10_46 log.txt,37.0,37.0,1311,2014-04-03,37.0,False,69.0,2.0,colocated,right
93,672.5658,1,437,2761,2975,4263,511,-15.0,200,1,1,674.4197,1,1,735692.456395438,03_04_2014 level23_spatial_Magnum 10_46 log.txt,37.0,37.0,1311,2014-04-03,37.0,False,72.0,5.0,colocated,right
94,677.938,0,437,2761,2975,4263,502,-15.0,200,1,1,679.2224,1,5,735692.456457616,03_04_2014 level23_spatial_Magnum 10_46 log.txt,37.0,37.0,1311,2014-04-03,37.0,False,72.0,5.0,single_speaker,right
95,682.8313,1,936,1551,2975,4263,507,-12.0,200,0,0,687.5736,1,0,735692.456514251,03_04_2014 level23_spatial_Magnum 10_46 log.txt,37.0,37.0,1311,2014-04-03,37.0,False,69.0,2.0,colocated,left
96,692.1551,0,437,2761,2975,4263,506,-6.0,200,1,0,694.129,0,0,735692.456622166,03_04_2014 level23_spatial_Magnum 10_46 log.txt,37.0,37.0,1311,2014-04-03,37.0,False,63.0,-4.0,colocated,left
98,702.9968,1,437,2761,2975,4263,501,-9.0,200,1,1,706.0118,1,1,735692.456747648,03_04_2014 level23_spatial_Magnum 10_46 log.txt,37.0,37.0,1311,2014-04-03,37.0,False,66.0,-1.0,colocated,right
99,709.3223,1,936,1551,2975,4263,510,-15.0,200,0,1,712.7834,0,3,735692.45682086,03_04_2014 level23_spatial_Magnum 10_46 log.txt,37.0,37.0,1311,2014-04-03,37.0,False,72.0,5.0,separated,right
103,738.6358,1,437,2761,2975,4263,503,-12.0,200,1,1,741.0275,1,4,735692.457160137,03_04_2014 level23_spatial_Magnum 10_46 log.txt,37.0,37.0,1311,2014-04-03,37.0,False,69.0,2.0,single_speaker,left
104,744.2031,1,936,1551,2975,4263,504,-12.0,200,0,0,746.9222,1,5,735692.457224573,03_04_2014 level23_spatial_Magnum 10_46 log.txt,37.0,37.0,1311,2014-04-03,37.0,False,69.0,2.0,single_speaker,right
105,751.8466,0,437,2761,2975,4263,502,-9.0,200,1,1,753.3516,1,5,735692.457313039,03_04_2014 level23_spatial_Magnum 10_46 log.txt,37.0,37.0,1311,2014-04-03,37.0,False,66.0,-1.0,single_speaker,right
106,756.2804,0,437,2761,2975,4263,509,-12.0,200,1,1,757.3262,1,2,735692.457364356,03_04_2014 level23_spatial_Magnum 10_46 log.txt,37.0,37.0,1311,2014-04-03,37.0,False,69.0,2.0,separated,left
109,778.4518,1,437,2761,2975,4263,511,-15.0,200,1,0,782.0882,0,4,735692.45762097,03_04_2014 level23_spatial_Magnum 10_46 log.txt,37.0,37.0,1311,2014-04-03,37.0,False,72.0,5.0,single_speaker,left
111,791.8186,0,936,1551,2975,4263,506,-12.0,200,0,0,794.1158,1,1,735692.457775678,03_04_2014 level23_spatial_Magnum 10_46 log.txt,37.0,37.0,1311,2014-04-03,37.0,False,69.0,2.0,colocated,right
112,799.3453,0,936,1551,2975,4263,503,-12.0,200,0,1,800.4312,0,5,735692.457862793,03_04_2014 level23_spatial_Magnum 10_46 log.txt,37.0,37.0,1311,2014-04-03,37.0,False,69.0,2.0,single_speaker,right
117,823.347,1,437,2761,2975,4263,505,-12.0,200,1,0,826.2582,0,3,735692.45814059,03_04_2014 level23_spatial_Magnum 10_46 log.txt,37.0,37.0,1311,2014-04-03,37.0,False,69.0,2.0,separated,right
119,835.9528,0,437,2761,2975,4263,510,-15.0,200,1,0,837.801,0,2,735692.458286491,03_04_2014 level23_spatial_Magnum 10_46 log.txt,37.0,37.0,1311,2014-04-03,37.0,False,72.0,5.0,separated,left
121,846.268,0,437,2761,2975,4263,509,-6.0,200,1,1,847.1844,1,3,735692.45840588,03_04_2014 level23_spatial_Magnum 10_46 log.txt,37.0,37.0,1311,2014-04-03,37.0,False,63.0,-4.0,separated,right
123,858.4706,1,437,2761,2975,4263,502,-9.0,200,1,1,862.5451,1,0,735692.458547113,03_04_2014 level23_spatial_Magnum 10_46 log.txt,37.0,37.0,1311,2014-04-03,37.0,False,66.0,-1.0,colocated,left
127,885.7258,0,936,1551,2975,4263,501,-12.0,200,0,0,888.0579,1,4,735692.458862567,03_04_2014 level23_spatial_Magnum 10_46 log.txt,37.0,37.0,1311,2014-04-03,37.0,False,69.0,2.0,single_speaker,left
128,892.7908,0,437,2761,2975,4263,502,-6.0,200,1,1,893.8148,1,4,735692.458944338,03_04_2014 level23_spatial_Magnum 10_46 log.txt,37.0,37.0,1311,2014-04-03,37.0,False,63.0,-4.0,single_speaker,left
134,934.4323,0,437,2761,2975,4263,509,-12.0,200,1,1,935.6507,1,1,735692.4594263,03_04_2014 level23_spatial_Magnum 10_46 log.txt,37.0,37.0,1311,2014-04-03,37.0,False,69.0,2.0,colocated,right
135,938.2849,0,437,2761,2975,4263,503,-12.0,200,1,1,939.3803,1,0,735692.45947089,03_04_2014 level23_spatial_Magnum 10_46 log.txt,37.0,37.0,1311,2014-04-03,37.0,False,69.0,2.0,colocated,left
136,941.9791,1,936,1551,2975,4263,504,-15.0,200,0,0,945.4263,1,4,735692.459513647,03_04_2014 level23_spatial_Magnum 10_46 log.txt,37.0,37.0,1311,2014-04-03,37.0,False,72.0,5.0,single_speaker,left
137,949.3419,0,437,2761,2975,4263,505,-9.0,200,1,1,950.6282,1,4,735692.459598865,03_04_2014 level23_spatial_Magnum 10_46 log.txt,37.0,37.0,1311,2014-04-03,37.0,False,66.0,-1.0,single_speaker,left
138,953.6608,0,437,2761,2975,4263,510,-15.0,200,1,1,954.6754,1,0,735692.459648852,03_04_2014 level23_spatial_Magnum 10_46 log.txt,37.0,37.0,1311,2014-04-03,37.0,False,72.0,5.0,colocated,left
139,957.5469,0,437,2761,2975,4263,511,-12.0,200,1,0,959.755,0,0,735692.45969383,03_04_2014 level23_spatial_Magnum 10_46 log.txt,37.0,37.0,1311,2014-04-03,37.0,False,69.0,2.0,colocated,left
142,973.9032,1,936,1551,2975,4263,502,-15.0,200,0,1,976.1531,0,5,735692.459883139,03_04_2014 level23_spatial_Magnum 10_46 log.txt,37.0,37.0,1311,2014-04-03,37.0,False,72.0,5.0,single_speaker,right
145,992.7884,0,437,2761,2975,4263,503,-12.0,200,1,1,993.9824,1,3,735692.460101718,03_04_2014 level23_spatial_Magnum 10_46 log.txt,37.0,37.0,1311,2014-04-03,37.0,False,69.0,2.0,separated,right
146,997.0494,0,936,1551,2975,4263,505,-15.0,200,0,1,998.0408,0,0,735692.460151035,03_04_2014 level23_spatial_Magnum 10_46 log.txt,37.0,37.0,1311,2014-04-03,37.0,False,72.0,5.0,colocated,left
148,1011.5382,0,437,2761,2975,4263,510,-6.0,200,1,1,1012.5306,1,5,735692.460318729,03_04_2014 level23_spatial_Magnum 10_46 log.txt,37.0,37.0,1311,2014-04-03,37.0,False,63.0,-4.0,single_speaker,right
151,1037.747,1,936,1551,2975,4263,501,-15.0,200,0,0,1040.6102,1,1,735692.460622072,03_04_2014 level23_spatial_Magnum 10_46 log.txt,37.0,37.0,1311,2014-04-03,37.0,False,72.0,5.0,colocated,right
152,1045.5043,1,437,2761,2975,4263,509,-12.0,200,1,0,1049.3881,0,2,735692.460711855,03_04_2014 level23_spatial_Magnum 10_46 log.txt,37.0,37.0,1311,2014-04-03,37.0,False,69.0,2.0,separated,left
154,1056.3617,0,437,2761,2975,4263,504,-12.0,200,1,1,1057.2914,1,5,735692.46083752,03_04_2014 level23_spatial_Magnum 10_46 log.txt,37.0,37.0,1311,2014-04-03,37.0,False,69.0,2.0,single_speaker,right
155,1060.7575,0,437,2761,2975,4263,508,-15.0,200,1,1,1061.6659,1,3,735692.460888397,03_04_2014 level23_spatial_Magnum 10_46 log.txt,37.0,37.0,1311,2014-04-03,37.0,False,72.0,5.0,separated,right
1,1.3933,0,437,2761,2975,4263,507,-6.0,200,1,0,2.3857,0,3,735936.430571682,03_12_2014 level23_spatial_Magnum 10_20 log.txt,37.0,37.0,1311,2014-12-03,37.0,False,63.0,-4.0,separated,right
4,16.4903,0,936,1551,2975,4263,506,-15.0,200,0,0,17.302,1,2,735936.430746416,03_12_2014 level23_spatial_Magnum 10_20 log.txt,37.0,37.0,1311,2014-12-03,37.0,False,72.0,5.0,separated,left
5,21.2501,0,936,1551,2975,4263,510,-6.0,200,0,0,21.9253,1,3,735936.430801506,03_12_2014 level23_spatial_Magnum 10_20 log.txt,37.0,37.0,1311,2014-12-03,37.0,False,63.0,-4.0,separated,right
6,25.5523,1,437,2761,2975,4263,503,-6.0,200,1,0,26.8111,0,2,735936.4308513,03_12_2014 level23_spatial_Magnum 10_20 log.txt,37.0,37.0,1311,2014-12-03,37.0,False,63.0,-4.0,separated,left
9,41.8543,0,936,1551,2975,4263,511,-6.0,200,0,0,42.5578,1,0,735936.43103998,03_12_2014 level23_spatial_Magnum 10_20 log.txt,37.0,37.0,1311,2014-12-03,37.0,False,63.0,-4.0,colocated,left
10,46.021,0,437,2761,2975,4263,501,-15.0,200,1,0,47.0018,0,2,735936.431088206,03_12_2014 level23_spatial_Magnum 10_20 log.txt,37.0,37.0,1311,2014-12-03,37.0,False,72.0,5.0,separated,left
12,58.0881,0,437,2761,2975,4263,509,-12.0,200,1,1,59.6051,1,3,735936.431227871,03_12_2014 level23_spatial_Magnum 10_20 log.txt,37.0,37.0,1311,2014-12-03,37.0,False,69.0,2.0,separated,right
13,69.7366,1,936,1551,2975,4263,502,-9.0,200,0,0,72.2327,1,4,735936.431362692,03_12_2014 level23_spatial_Magnum 10_20 log.txt,37.0,37.0,1311,2014-12-03,37.0,False,66.0,-1.0,single_speaker,left
14,75.4417,1,936,1551,2975,4263,505,-15.0,200,0,0,76.633,1,0,735936.431428723,03_12_2014 level23_spatial_Magnum 10_20 log.txt,37.0,37.0,1311,2014-12-03,37.0,False,72.0,5.0,colocated,left
15,81.0458,1,936,1551,2975,4263,504,-12.0,200,0,0,82.2702,1,0,735936.431493586,03_12_2014 level23_spatial_Magnum 10_20 log.txt,37.0,37.0,1311,2014-12-03,37.0,False,69.0,2.0,colocated,left
16,85.5256,1,437,2761,2975,4263,509,-12.0,200,1,1,87.2559,1,1,735936.431545435,03_12_2014 level23_spatial_Magnum 10_20 log.txt,37.0,37.0,1311,2014-12-03,37.0,False,69.0,2.0,colocated,right
17,89.3541,0,437,2761,2975,4263,501,-9.0,200,1,1,90.8337,1,1,735936.431589746,03_12_2014 level23_spatial_Magnum 10_20 log.txt,37.0,37.0,1311,2014-12-03,37.0,False,66.0,-1.0,colocated,right
18,97.929,0,936,1551,2975,4263,503,-12.0,200,0,0,98.6745,1,1,735936.431688993,03_12_2014 level23_spatial_Magnum 10_20 log.txt,37.0,37.0,1311,2014-12-03,37.0,False,69.0,2.0,colocated,right
19,101.7333,1,936,1551,2975,4263,508,-15.0,200,0,0,102.4466,1,5,735936.431733024,03_12_2014 level23_spatial_Magnum 10_20 log.txt,37.0,37.0,1311,2014-12-03,37.0,False,72.0,5.0,single_speaker,right
20,105.6853,1,437,2761,2975,4263,510,-15.0,200,1,0,108.2336,0,4,735936.431778765,03_12_2014 level23_spatial_Magnum 10_20 log.txt,37.0,37.0,1311,2014-12-03,37.0,False,72.0,5.0,single_speaker,left
22,118.0026,1,936,1551,2975,4263,502,-9.0,200,0,0,118.6158,1,0,735936.431921326,03_12_2014 level23_spatial_Magnum 10_20 log.txt,37.0,37.0,1311,2014-12-03,37.0,False,66.0,-1.0,colocated,left
23,121.5931,0,936,1551,2975,4263,511,-9.0,200,0,0,125.5059,1,1,735936.431962883,03_12_2014 level23_spatial_Magnum 10_20 log.txt,37.0,37.0,1311,2014-12-03,37.0,False,66.0,-1.0,colocated,right
24,128.8234,1,437,2761,2975,4263,507,-12.0,200,1,0,133.2001,0,4,735936.432046567,03_12_2014 level23_spatial_Magnum 10_20 log.txt,37.0,37.0,1311,2014-12-03,37.0,False,69.0,2.0,single_speaker,left
26,144.0336,1,936,1551,2975,4263,506,-6.0,200,0,1,146.4527,0,1,735936.432222611,03_12_2014 level23_spatial_Magnum 10_20 log.txt,37.0,37.0,1311,2014-12-03,37.0,False,63.0,-4.0,colocated,right
28,154.4253,0,936,1551,2975,4263,504,-12.0,200,0,1,155.9769,0,3,735936.432342885,03_12_2014 level23_spatial_Magnum 10_20 log.txt,37.0,37.0,1311,2014-12-03,37.0,False,69.0,2.0,separated,right
31,168.5571,0,936,1551,2975,4263,504,-12.0,200,0,0,169.3426,1,2,735936.432506448,03_12_2014 level23_spatial_Magnum 10_20 log.txt,37.0,37.0,1311,2014-12-03,37.0,False,69.0,2.0,separated,left
32,175.0371,1,936,1551,2975,4263,506,-6.0,200,0,0,177.2205,1,2,735936.432581448,03_12_2014 level23_spatial_Magnum 10_20 log.txt,37.0,37.0,1311,2014-12-03,37.0,False,63.0,-4.0,separated,left
33,180.6894,0,936,1551,2975,4263,502,-12.0,200,0,0,181.65,1,5,735936.432646868,03_12_2014 level23_spatial_Magnum 10_20 log.txt,37.0,37.0,1311,2014-12-03,37.0,False,69.0,2.0,single_speaker,right
34,184.7632,1,936,1551,2975,4263,511,-15.0,200,0,0,187.1399,1,4,735936.432694018,03_12_2014 level23_spatial_Magnum 10_20 log.txt,37.0,37.0,1311,2014-12-03,37.0,False,72.0,5.0,single_speaker,left
35,190.169,0,437,2761,2975,4263,505,-15.0,200,1,1,191.344,1,3,735936.432756586,03_12_2014 level23_spatial_Magnum 10_20 log.txt,37.0,37.0,1311,2014-12-03,37.0,False,72.0,5.0,separated,right
36,194.1179,0,437,2761,2975,4263,508,-12.0,200,1,1,195.6786,1,5,735936.43280229,03_12_2014 level23_spatial_Magnum 10_20 log.txt,37.0,37.0,1311,2014-12-03,37.0,False,69.0,2.0,single_speaker,right
37,198.2263,0,936,1551,2975,4263,501,-12.0,200,0,0,199.0134,1,2,735936.432849841,03_12_2014 level23_spatial_Magnum 10_20 log.txt,37.0,37.0,1311,2014-12-03,37.0,False,69.0,2.0,separated,left
38,202.2795,0,936,1551,2975,4263,510,-9.0,200,0,0,203.0663,1,5,735936.432896753,03_12_2014 level23_spatial_Magnum 10_20 log.txt,37.0,37.0,1311,2014-12-03,37.0,False,66.0,-1.0,single_speaker,right
39,206.1396,1,936,1551,2975,4263,507,-12.0,200,0,0,208.5368,1,1,735936.43294143,03_12_2014 level23_spatial_Magnum 10_20 log.txt,37.0,37.0,1311,2014-12-03,37.0,False,69.0,2.0,colocated,right
40,211.9885,1,936,1551,2975,4263,503,-9.0,200,0,0,216.1329,1,2,735936.433009126,03_12_2014 level23_spatial_Magnum 10_20 log.txt,37.0,37.0,1311,2014-12-03,37.0,False,66.0,-1.0,separated,left
41,219.576,0,437,2761,2975,4263,503,-6.0,200,1,1,221.036,1,5,735936.433096944,03_12_2014 level23_spatial_Magnum 10_20 log.txt,37.0,37.0,1311,2014-12-03,37.0,False,63.0,-4.0,single_speaker,right
42,230.8189,1,936,1551,2975,4263,507,-12.0,200,0,0,232.8875,1,4,735936.433227071,03_12_2014 level23_spatial_Magnum 10_20 log.txt,37.0,37.0,1311,2014-12-03,37.0,False,69.0,2.0,single_speaker,left
43,236.2302,0,936,1551,2975,4263,504,-15.0,200,0,0,237.1898,1,3,735936.433289701,03_12_2014 level23_spatial_Magnum 10_20 log.txt,37.0,37.0,1311,2014-12-03,37.0,False,72.0,5.0,separated,right
44,243.551,0,437,2761,2975,4263,511,-12.0,200,1,1,244.9717,1,4,735936.433374433,03_12_2014 level23_spatial_Magnum 10_20 log.txt,37.0,37.0,1311,2014-12-03,37.0,False,69.0,2.0,single_speaker,left
45,247.4736,1,936,1551,2975,4263,502,-12.0,200,0,0,249.6405,1,4,735936.433419833,03_12_2014 level23_spatial_Magnum 10_20 log.txt,37.0,37.0,1311,2014-12-03,37.0,False,69.0,2.0,single_speaker,left
46,252.961,0,936,1551,2975,4263,508,-6.0,200,0,0,253.7863,1,5,735936.433483345,03_12_2014 level23_spatial_Magnum 10_20 log.txt,37.0,37.0,1311,2014-12-03,37.0,False,63.0,-4.0,single_speaker,right
47,256.8608,0,437,2761,2975,4263,505,-12.0,200,1,1,258.4722,1,3,735936.433528481,03_12_2014 level23_spatial_Magnum 10_20 log.txt,37.0,37.0,1311,2014-12-03,37.0,False,69.0,2.0,separated,right
48,262.5309,1,437,2761,2975,4263,510,-12.0,200,1,1,266.5614,1,2,735936.433594108,03_12_2014 level23_spatial_Magnum 10_20 log.txt,37.0,37.0,1311,2014-12-03,37.0,False,69.0,2.0,separated,left
49,275.0862,0,437,2761,2975,4263,501,-12.0,200,1,0,276.0267,0,1,735936.433739424,03_12_2014 level23_spatial_Magnum 10_20 log.txt,37.0,37.0,1311,2014-12-03,37.0,False,69.0,2.0,colocated,right
51,297.4121,1,437,2761,2975,4263,506,-15.0,200,1,1,301.0494,1,0,735936.433997825,03_12_2014 level23_spatial_Magnum 10_20 log.txt,37.0,37.0,1311,2014-12-03,37.0,False,72.0,5.0,colocated,left
52,309.1995,0,437,2761,2975,4263,505,-9.0,200,1,0,311.0055,0,5,735936.434134253,03_12_2014 level23_spatial_Magnum 10_20 log.txt,37.0,37.0,1311,2014-12-03,37.0,False,66.0,-1.0,single_speaker,right
54,322.3758,1,437,2761,2975,4263,503,-12.0,200,1,1,326.4863,1,2,735936.434286757,03_12_2014 level23_spatial_Magnum 10_20 log.txt,37.0,37.0,1311,2014-12-03,37.0,False,69.0,2.0,separated,left
55,334.8633,0,936,1551,2975,4263,501,-12.0,200,0,0,335.915,1,3,735936.434431288,03_12_2014 level23_spatial_Magnum 10_20 log.txt,37.0,37.0,1311,2014-12-03,37.0,False,69.0,2.0,separated,right
56,339.3846,1,936,1551,2975,4263,506,-9.0,200,0,0,343.5713,1,3,735936.434483618,03_12_2014 level23_spatial_Magnum 10_20 log.txt,37.0,37.0,1311,2014-12-03,37.0,False,66.0,-1.0,separated,right
57,346.7699,1,437,2761,2975,4263,510,-12.0,200,1,0,350.2414,0,5,735936.434569096,03_12_2014 level23_spatial_Magnum 10_20 log.txt,37.0,37.0,1311,2014-12-03,37.0,False,69.0,2.0,single_speaker,right
59,361.0979,1,437,2761,2975,4263,509,-9.0,200,1,1,364.6552,1,0,735936.434734929,03_12_2014 level23_spatial_Magnum 10_20 log.txt,37.0,37.0,1311,2014-12-03,37.0,False,66.0,-1.0,colocated,left
60,370.0523,0,437,2761,2975,4263,507,-12.0,200,1,1,372.2974,1,0,735936.434838568,03_12_2014 level23_spatial_Magnum 10_20 log.txt,37.0,37.0,1311,2014-12-03,37.0,False,69.0,2.0,colocated,left
61,381.0209,0,437,2761,2975,4263,502,-6.0,200,1,0,382.0,0,1,735936.43496552,03_12_2014 level23_spatial_Magnum 10_20 log.txt,37.0,37.0,1311,2014-12-03,37.0,False,63.0,-4.0,colocated,right
63,396.5622,1,437,2761,2975,4263,504,-9.0,200,1,1,400.6665,1,2,735936.435145396,03_12_2014 level23_spatial_Magnum 10_20 log.txt,37.0,37.0,1311,2014-12-03,37.0,False,66.0,-1.0,separated,left
64,408.5851,0,437,2761,2975,4263,508,-12.0,200,1,0,409.4151,0,0,735936.43528455,03_12_2014 level23_spatial_Magnum 10_20 log.txt,37.0,37.0,1311,2014-12-03,37.0,False,69.0,2.0,colocated,left
67,423.12,1,437,2761,2975,4263,511,-9.0,200,1,1,426.8569,1,3,735936.435452778,03_12_2014 level23_spatial_Magnum 10_20 log.txt,37.0,37.0,1311,2014-12-03,37.0,False,66.0,-1.0,separated,right
68,432.2242,1,936,1551,2975,4263,506,-6.0,200,0,0,434.234,1,4,735936.43555815,03_12_2014 level23_spatial_Magnum 10_20 log.txt,37.0,37.0,1311,2014-12-03,37.0,False,63.0,-4.0,single_speaker,left
69,437.6821,1,437,2761,2975,4263,501,-15.0,200,1,0,442.6642,0,1,735936.435621321,03_12_2014 level23_spatial_Magnum 10_20 log.txt,37.0,37.0,1311,2014-12-03,37.0,False,72.0,5.0,colocated,right
71,451.8947,0,936,1551,2975,4263,504,-12.0,200,0,0,452.9114,1,0,735936.435785818,03_12_2014 level23_spatial_Magnum 10_20 log.txt,37.0,37.0,1311,2014-12-03,37.0,False,69.0,2.0,colocated,left
72,456.7259,1,936,1551,2975,4263,509,-12.0,200,0,0,458.8774,1,5,735936.435841735,03_12_2014 level23_spatial_Magnum 10_20 log.txt,37.0,37.0,1311,2014-12-03,37.0,False,69.0,2.0,single_speaker,right
73,462.6139,0,437,2761,2975,4263,510,-15.0,200,1,1,464.2483,1,5,735936.435909883,03_12_2014 level23_spatial_Magnum 10_20 log.txt,37.0,37.0,1311,2014-12-03,37.0,False,72.0,5.0,single_speaker,right
74,466.3536,0,437,2761,2975,4263,505,-6.0,200,1,1,467.9619,1,4,735936.435953167,03_12_2014 level23_spatial_Magnum 10_20 log.txt,37.0,37.0,1311,2014-12-03,37.0,False,63.0,-4.0,single_speaker,left
75,473.6374,0,437,2761,2975,4263,508,-9.0,200,1,0,474.4455,0,4,735936.43603747,03_12_2014 level23_spatial_Magnum 10_20 log.txt,37.0,37.0,1311,2014-12-03,37.0,False,66.0,-1.0,single_speaker,left
77,483.9039,1,936,1551,2975,4263,503,-15.0,200,0,0,490.104,1,1,735936.436156295,03_12_2014 level23_spatial_Magnum 10_20 log.txt,37.0,37.0,1311,2014-12-03,37.0,False,72.0,5.0,colocated,right
78,493.4093,0,437,2761,2975,4263,502,-6.0,200,1,0,494.4386,0,0,735936.436266311,03_12_2014 level23_spatial_Magnum 10_20 log.txt,37.0,37.0,1311,2014-12-03,37.0,False,63.0,-4.0,colocated,left
80,501.434,0,936,1551,2975,4263,509,-6.0,200,0,0,502.448,1,5,735936.43635919,03_12_2014 level23_spatial_Magnum 10_20 log.txt,37.0,37.0,1311,2014-12-03,37.0,False,63.0,-4.0,single_speaker,right
81,505.6853,0,437,2761,2975,4263,503,-6.0,200,1,0,506.5103,0,5,735936.436408395,03_12_2014 level23_spatial_Magnum 10_20 log.txt,37.0,37.0,1311,2014-12-03,37.0,False,63.0,-4.0,single_speaker,right
83,516.1159,1,936,1551,2975,4263,504,-6.0,200,0,0,519.436,1,0,735936.436529119,03_12_2014 level23_spatial_Magnum 10_20 log.txt,37.0,37.0,1311,2014-12-03,37.0,False,63.0,-4.0,colocated,left
84,523.0354,1,936,1551,2975,4263,502,-9.0,200,0,0,526.9088,1,1,735936.436609206,03_12_2014 level23_spatial_Magnum 10_20 log.txt,37.0,37.0,1311,2014-12-03,37.0,False,66.0,-1.0,colocated,right
85,530.7954,0,936,1551,2975,4263,506,-15.0,200,0,0,531.7385,1,3,735936.436699021,03_12_2014 level23_spatial_Magnum 10_20 log.txt,37.0,37.0,1311,2014-12-03,37.0,False,72.0,5.0,separated,right
86,539.3468,1,936,1551,2975,4263,501,-12.0,200,0,0,541.1424,1,4,735936.436797995,03_12_2014 level23_spatial_Magnum 10_20 log.txt,37.0,37.0,1311,2014-12-03,37.0,False,69.0,2.0,single_speaker,left
87,545.0361,0,437,2761,2975,4263,505,-6.0,200,1,0,546.0971,0,1,735936.436863844,03_12_2014 level23_spatial_Magnum 10_20 log.txt,37.0,37.0,1311,2014-12-03,37.0,False,63.0,-4.0,colocated,right
89,557.4849,0,936,1551,2975,4263,510,-12.0,200,0,0,558.3766,1,5,735936.437007927,03_12_2014 level23_spatial_Magnum 10_20 log.txt,37.0,37.0,1311,2014-12-03,37.0,False,69.0,2.0,single_speaker,right
90,561.446,0,936,1551,2975,4263,511,-9.0,200,0,0,562.2437,1,0,735936.437053773,03_12_2014 level23_spatial_Magnum 10_20 log.txt,37.0,37.0,1311,2014-12-03,37.0,False,66.0,-1.0,colocated,left
91,565.6941,1,936,1551,2975,4263,507,-12.0,200,0,1,566.2727,0,4,735936.437102941,03_12_2014 level23_spatial_Magnum 10_20 log.txt,37.0,37.0,1311,2014-12-03,37.0,False,69.0,2.0,single_speaker,left
93,578.6162,0,437,2761,2975,4263,506,-12.0,200,1,1,580.1857,1,1,735936.437252502,03_12_2014 level23_spatial_Magnum 10_20 log.txt,37.0,37.0,1311,2014-12-03,37.0,False,69.0,2.0,colocated,right
94,586.0818,0,936,1551,2975,4263,509,-12.0,200,0,0,586.9721,1,0,735936.43733891,03_12_2014 level23_spatial_Magnum 10_20 log.txt,37.0,37.0,1311,2014-12-03,37.0,False,69.0,2.0,colocated,left
95,590.3879,1,936,1551,2975,4263,508,-15.0,200,0,0,592.4388,1,5,735936.437388749,03_12_2014 level23_spatial_Magnum 10_20 log.txt,37.0,37.0,1311,2014-12-03,37.0,False,72.0,5.0,single_speaker,right
96,595.6274,1,936,1551,2975,4263,511,-12.0,200,0,0,598.3747,1,5,735936.437449391,03_12_2014 level23_spatial_Magnum 10_20 log.txt,37.0,37.0,1311,2014-12-03,37.0,False,69.0,2.0,single_speaker,right
97,602.8115,0,936,1551,2975,4263,507,-12.0,200,0,0,603.9124,1,2,735936.43753254,03_12_2014 level23_spatial_Magnum 10_20 log.txt,37.0,37.0,1311,2014-12-03,37.0,False,69.0,2.0,separated,left
98,607.4201,1,936,1551,2975,4263,501,-6.0,200,0,0,609.5079,1,3,735936.437585881,03_12_2014 level23_spatial_Magnum 10_20 log.txt,37.0,37.0,1311,2014-12-03,37.0,False,63.0,-4.0,separated,right
99,612.8755,0,437,2761,2975,4263,510,-12.0,200,1,0,614.0613,0,4,735936.437649022,03_12_2014 level23_spatial_Magnum 10_20 log.txt,37.0,37.0,1311,2014-12-03,37.0,False,69.0,2.0,single_speaker,left
101,623.4446,1,437,2761,2975,4263,502,-9.0,200,1,1,628.3199,1,5,735936.437771349,03_12_2014 level23_spatial_Magnum 10_20 log.txt,37.0,37.0,1311,2014-12-03,37.0,False,66.0,-1.0,single_speaker,right
102,643.0283,0,437,2761,2975,4263,504,-15.0,200,1,0,644.0501,0,5,735936.437998013,03_12_2014 level23_spatial_Magnum 10_20 log.txt,37.0,37.0,1311,2014-12-03,37.0,False,72.0,5.0,single_speaker,right
104,652.9429,0,936,1551,2975,4263,505,-15.0,200,0,0,653.6849,1,4,735936.438112765,03_12_2014 level23_spatial_Magnum 10_20 log.txt,37.0,37.0,1311,2014-12-03,37.0,False,72.0,5.0,single_speaker,left
105,656.9344,0,437,2761,2975,4263,508,-15.0,200,1,1,657.8404,1,4,735936.438158963,03_12_2014 level23_spatial_Magnum 10_20 log.txt,37.0,37.0,1311,2014-12-03,37.0,False,72.0,5.0,single_speaker,left
106,661.9444,1,936,1551,2975,4263,501,-12.0,200,0,0,663.7251,1,3,735936.438216949,03_12_2014 level23_spatial_Magnum 10_20 log.txt,37.0,37.0,1311,2014-12-03,37.0,False,69.0,2.0,separated,right
107,666.7104,0,437,2761,2975,4263,511,-12.0,200,1,0,667.506,0,0,735936.438272111,03_12_2014 level23_spatial_Magnum 10_20 log.txt,37.0,37.0,1311,2014-12-03,37.0,False,69.0,2.0,colocated,left
109,682.3928,1,437,2761,2975,4263,510,-9.0,200,1,0,684.9473,0,3,735936.43845362,03_12_2014 level23_spatial_Magnum 10_20 log.txt,37.0,37.0,1311,2014-12-03,37.0,False,66.0,-1.0,separated,right
111,693.0006,1,437,2761,2975,4263,507,-12.0,200,1,0,696.7035,0,5,735936.438576396,03_12_2014 level23_spatial_Magnum 10_20 log.txt,37.0,37.0,1311,2014-12-03,37.0,False,69.0,2.0,single_speaker,right
113,707.0334,1,936,1551,2975,4263,503,-6.0,200,0,0,710.9955,1,1,735936.438738812,03_12_2014 level23_spatial_Magnum 10_20 log.txt,37.0,37.0,1311,2014-12-03,37.0,False,63.0,-4.0,colocated,right
114,714.1181,0,936,1551,2975,4263,506,-12.0,200,0,0,714.9014,1,0,735936.438820811,03_12_2014 level23_spatial_Magnum 10_20 log.txt,37.0,37.0,1311,2014-12-03,37.0,False,69.0,2.0,colocated,left
115,717.9724,1,437,2761,2975,4263,505,-12.0,200,1,0,721.2762,0,1,735936.438865421,03_12_2014 level23_spatial_Magnum 10_20 log.txt,37.0,37.0,1311,2014-12-03,37.0,False,69.0,2.0,colocated,right
117,735.912,1,437,2761,2975,4263,509,-12.0,200,1,0,737.9038,0,5,735936.439073056,03_12_2014 level23_spatial_Magnum 10_20 log.txt,37.0,37.0,1311,2014-12-03,37.0,False,69.0,2.0,single_speaker,right
119,748.7917,0,437,2761,2975,4263,502,-12.0,200,1,1,750.4989,1,4,735936.439222126,03_12_2014 level23_spatial_Magnum 10_20 log.txt,37.0,37.0,1311,2014-12-03,37.0,False,69.0,2.0,single_speaker,left
120,753.288,1,936,1551,2975,4263,505,-9.0,200,0,0,755.1126,1,4,735936.439274167,03_12_2014 level23_spatial_Magnum 10_20 log.txt,37.0,37.0,1311,2014-12-03,37.0,False,66.0,-1.0,single_speaker,left
121,758.1558,0,437,2761,2975,4263,506,-6.0,200,1,1,760.3224,1,2,735936.439330507,03_12_2014 level23_spatial_Magnum 10_20 log.txt,37.0,37.0,1311,2014-12-03,37.0,False,63.0,-4.0,separated,left
122,763.9026,0,936,1551,2975,4263,504,-9.0,200,0,0,764.6306,1,5,735936.439397021,03_12_2014 level23_spatial_Magnum 10_20 log.txt,37.0,37.0,1311,2014-12-03,37.0,False,66.0,-1.0,single_speaker,right
123,767.7915,1,437,2761,2975,4263,507,-9.0,200,1,1,769.4266,1,2,735936.439442031,03_12_2014 level23_spatial_Magnum 10_20 log.txt,37.0,37.0,1311,2014-12-03,37.0,False,66.0,-1.0,separated,left
124,770.7224,1,936,1551,2975,4263,511,-9.0,200,0,0,776.1785,1,2,735936.439475954,03_12_2014 level23_spatial_Magnum 10_20 log.txt,37.0,37.0,1311,2014-12-03,37.0,False,66.0,-1.0,separated,left
125,779.4242,0,437,2761,2975,4263,509,-9.0,200,1,1,787.4174,1,1,735936.439576669,03_12_2014 level23_spatial_Magnum 10_20 log.txt,37.0,37.0,1311,2014-12-03,37.0,False,66.0,-1.0,colocated,right
126,797.5139,1,936,1551,2975,4263,508,-6.0,200,0,0,799.5956,1,4,735936.43978604,03_12_2014 level23_spatial_Magnum 10_20 log.txt,37.0,37.0,1311,2014-12-03,37.0,False,63.0,-4.0,single_speaker,left
127,807.2439,1,936,1551,2975,4263,502,-12.0,200,0,0,809.8857,1,1,735936.439898656,03_12_2014 level23_spatial_Magnum 10_20 log.txt,37.0,37.0,1311,2014-12-03,37.0,False,69.0,2.0,colocated,right
128,813.5057,1,936,1551,2975,4263,503,-12.0,200,0,0,816.4445,1,2,735936.439971131,03_12_2014 level23_spatial_Magnum 10_20 log.txt,37.0,37.0,1311,2014-12-03,37.0,False,69.0,2.0,separated,left
129,819.494,1,437,2761,2975,4263,501,-15.0,200,1,1,822.9686,1,1,735936.44004044,03_12_2014 level23_spatial_Magnum 10_20 log.txt,37.0,37.0,1311,2014-12-03,37.0,False,72.0,5.0,colocated,right
130,827.5782,0,936,1551,2975,4263,509,-12.0,200,0,0,828.5929,1,1,735936.440134007,03_12_2014 level23_spatial_Magnum 10_20 log.txt,37.0,37.0,1311,2014-12-03,37.0,False,69.0,2.0,colocated,right
131,835.5685,1,437,2761,2975,4263,507,-6.0,200,1,0,838.178,0,0,735936.440226487,03_12_2014 level23_spatial_Magnum 10_20 log.txt,37.0,37.0,1311,2014-12-03,37.0,False,63.0,-4.0,colocated,left
133,853.1465,0,936,1551,2975,4263,506,-15.0,200,0,0,853.9125,1,1,735936.440429936,03_12_2014 level23_spatial_Magnum 10_20 log.txt,37.0,37.0,1311,2014-12-03,37.0,False,72.0,5.0,colocated,right
134,857.2931,0,437,2761,2975,4263,503,-12.0,200,1,1,858.2185,1,0,735936.440477929,03_12_2014 level23_spatial_Magnum 10_20 log.txt,37.0,37.0,1311,2014-12-03,37.0,False,69.0,2.0,colocated,left
135,860.7774,1,437,2761,2975,4263,511,-15.0,200,1,0,863.1252,0,3,735936.440518257,03_12_2014 level23_spatial_Magnum 10_20 log.txt,37.0,37.0,1311,2014-12-03,37.0,False,72.0,5.0,separated,right
138,885.8711,0,936,1551,2975,4263,502,-15.0,200,0,0,886.5992,1,2,735936.440808693,03_12_2014 level23_spatial_Magnum 10_20 log.txt,37.0,37.0,1311,2014-12-03,37.0,False,72.0,5.0,separated,left
139,889.4909,0,437,2761,2975,4263,510,-15.0,200,1,0,890.356,0,0,735936.440850589,03_12_2014 level23_spatial_Magnum 10_20 log.txt,37.0,37.0,1311,2014-12-03,37.0,False,72.0,5.0,colocated,left
1,284.0709,1,437,2761,2975,4263,502,-15.0,200,1,1,285.4285,1,4,735937.379676747,04_12_2014 level23_spatial_Magnum 09_02 log.txt,37.0,37.0,1311,2014-12-04,37.0,False,72.0,5.0,single_speaker,left
2,292.5925,0,437,2761,2975,4263,511,-15.0,200,1,0,293.3383,0,0,735937.379775376,04_12_2014 level23_spatial_Magnum 09_02 log.txt,37.0,37.0,1311,2014-12-04,37.0,False,72.0,5.0,colocated,left
5,308.3865,0,437,2761,2975,4263,501,-12.0,200,1,1,309.9865,1,5,735937.379958177,04_12_2014 level23_spatial_Magnum 09_02 log.txt,37.0,37.0,1311,2014-12-04,37.0,False,69.0,2.0,single_speaker,right
6,316.6669,0,936,1551,2975,4263,509,-6.0,200,0,0,317.1332,1,4,735937.380054015,04_12_2014 level23_spatial_Magnum 09_02 log.txt,37.0,37.0,1311,2014-12-04,37.0,False,63.0,-4.0,single_speaker,left
7,320.8195,1,936,1551,2975,4263,508,-15.0,200,0,0,322.4975,1,5,735937.380102078,04_12_2014 level23_spatial_Magnum 09_02 log.txt,37.0,37.0,1311,2014-12-04,37.0,False,72.0,5.0,single_speaker,right
8,325.9109,0,437,2761,2975,4263,504,-9.0,200,1,0,326.7113,0,0,735937.380161006,04_12_2014 level23_spatial_Magnum 09_02 log.txt,37.0,37.0,1311,2014-12-04,37.0,False,66.0,-1.0,colocated,left
10,336.6674,1,437,2761,2975,4263,506,-12.0,200,1,1,341.4084,1,1,735937.380285502,04_12_2014 level23_spatial_Magnum 09_02 log.txt,37.0,37.0,1311,2014-12-04,37.0,False,69.0,2.0,colocated,right
11,347.7116,1,936,1551,2975,4263,503,-12.0,200,0,0,349.6036,1,5,735937.380413329,04_12_2014 level23_spatial_Magnum 09_02 log.txt,37.0,37.0,1311,2014-12-04,37.0,False,69.0,2.0,single_speaker,right
12,352.5569,1,936,1551,2975,4263,507,-12.0,200,0,0,354.449,1,4,735937.380469409,04_12_2014 level23_spatial_Magnum 09_02 log.txt,37.0,37.0,1311,2014-12-04,37.0,False,69.0,2.0,single_speaker,left
13,357.5947,0,437,2761,2975,4263,510,-15.0,200,1,1,359.6528,1,2,735937.380527716,04_12_2014 level23_spatial_Magnum 09_02 log.txt,37.0,37.0,1311,2014-12-04,37.0,False,72.0,5.0,separated,left
14,361.2522,0,437,2761,2975,4263,502,-6.0,200,1,1,362.7314,1,2,735937.380570049,04_12_2014 level23_spatial_Magnum 09_02 log.txt,37.0,37.0,1311,2014-12-04,37.0,False,63.0,-4.0,separated,left
15,365.4222,1,936,1551,2975,4263,508,-15.0,200,0,0,367.2767,1,4,735937.380618313,04_12_2014 level23_spatial_Magnum 09_02 log.txt,37.0,37.0,1311,2014-12-04,37.0,False,72.0,5.0,single_speaker,left
16,370.6116,0,936,1551,2975,4263,503,-6.0,200,0,0,371.6531,1,2,735937.380678375,04_12_2014 level23_spatial_Magnum 09_02 log.txt,37.0,37.0,1311,2014-12-04,37.0,False,63.0,-4.0,separated,left
17,374.9279,0,936,1551,2975,4263,504,-15.0,200,0,0,375.832,1,2,735937.380728332,04_12_2014 level23_spatial_Magnum 09_02 log.txt,37.0,37.0,1311,2014-12-04,37.0,False,72.0,5.0,separated,left
18,378.8202,1,437,2761,2975,4263,507,-15.0,200,1,1,384.7784,1,1,735937.380773382,04_12_2014 level23_spatial_Magnum 09_02 log.txt,37.0,37.0,1311,2014-12-04,37.0,False,72.0,5.0,colocated,right
19,392.1654,1,437,2761,2975,4263,501,-15.0,200,1,1,395.5894,1,3,735937.38092784,04_12_2014 level23_spatial_Magnum 09_02 log.txt,37.0,37.0,1311,2014-12-04,37.0,False,72.0,5.0,separated,right
20,397.936,0,437,2761,2975,4263,506,-15.0,200,1,0,398.734,0,5,735937.38099463,04_12_2014 level23_spatial_Magnum 09_02 log.txt,37.0,37.0,1311,2014-12-04,37.0,False,72.0,5.0,single_speaker,right
22,410.041,0,936,1551,2975,4263,510,-9.0,200,0,0,410.8364,1,0,735937.381134734,04_12_2014 level23_spatial_Magnum 09_02 log.txt,37.0,37.0,1311,2014-12-04,37.0,False,66.0,-1.0,colocated,left
23,414.1336,1,936,1551,2975,4263,511,-6.0,200,0,0,416.8262,1,0,735937.381182102,04_12_2014 level23_spatial_Magnum 09_02 log.txt,37.0,37.0,1311,2014-12-04,37.0,False,63.0,-4.0,colocated,left
24,420.1384,0,437,2761,2975,4263,505,-9.0,200,1,0,421.0917,0,2,735937.381251602,04_12_2014 level23_spatial_Magnum 09_02 log.txt,37.0,37.0,1311,2014-12-04,37.0,False,66.0,-1.0,separated,left
26,431.881,1,437,2761,2975,4263,501,-12.0,200,1,1,435.8212,1,2,735937.381387512,04_12_2014 level23_spatial_Magnum 09_02 log.txt,37.0,37.0,1311,2014-12-04,37.0,False,69.0,2.0,separated,left
27,437.7815,1,936,1551,2975,4263,505,-12.0,200,0,0,441.1073,1,1,735937.381455804,04_12_2014 level23_spatial_Magnum 09_02 log.txt,37.0,37.0,1311,2014-12-04,37.0,False,69.0,2.0,colocated,right
28,444.1324,1,437,2761,2975,4263,502,-9.0,200,1,1,448.1424,1,1,735937.38152931,04_12_2014 level23_spatial_Magnum 09_02 log.txt,37.0,37.0,1311,2014-12-04,37.0,False,66.0,-1.0,colocated,right
29,455.6492,0,936,1551,2975,4263,509,-9.0,200,0,0,456.5442,1,5,735937.381662606,04_12_2014 level23_spatial_Magnum 09_02 log.txt,37.0,37.0,1311,2014-12-04,37.0,False,66.0,-1.0,single_speaker,right
30,459.6882,0,936,1551,2975,4263,510,-12.0,200,0,0,460.5479,1,4,735937.381709354,04_12_2014 level23_spatial_Magnum 09_02 log.txt,37.0,37.0,1311,2014-12-04,37.0,False,69.0,2.0,single_speaker,left
31,464.0037,1,437,2761,2975,4263,508,-12.0,200,1,0,466.8239,0,1,735937.381759302,04_12_2014 level23_spatial_Magnum 09_02 log.txt,37.0,37.0,1311,2014-12-04,37.0,False,69.0,2.0,colocated,right
33,475.8498,0,936,1551,2975,4263,506,-12.0,200,0,0,476.6246,1,2,735937.38189641,04_12_2014 level23_spatial_Magnum 09_02 log.txt,37.0,37.0,1311,2014-12-04,37.0,False,69.0,2.0,separated,left
34,479.9181,1,936,1551,2975,4263,504,-15.0,200,0,0,481.6958,1,3,735937.381943497,04_12_2014 level23_spatial_Magnum 09_02 log.txt,37.0,37.0,1311,2014-12-04,37.0,False,72.0,5.0,separated,right
35,484.6135,1,437,2761,2975,4263,511,-9.0,200,1,0,488.9076,0,4,735937.381997842,04_12_2014 level23_spatial_Magnum 09_02 log.txt,37.0,37.0,1311,2014-12-04,37.0,False,66.0,-1.0,single_speaker,left
37,497.8352,1,437,2761,2975,4263,503,-6.0,200,1,1,500.4244,1,3,735937.38215087,04_12_2014 level23_spatial_Magnum 09_02 log.txt,37.0,37.0,1311,2014-12-04,37.0,False,63.0,-4.0,separated,right
38,506.2644,0,437,2761,2975,4263,503,-9.0,200,1,1,509.1086,1,3,735937.382248431,04_12_2014 level23_spatial_Magnum 09_02 log.txt,37.0,37.0,1311,2014-12-04,37.0,False,66.0,-1.0,separated,right
39,510.1665,1,437,2761,2975,4263,504,-12.0,200,1,0,510.8017,0,4,735937.382293594,04_12_2014 level23_spatial_Magnum 09_02 log.txt,37.0,37.0,1311,2014-12-04,37.0,False,69.0,2.0,single_speaker,left
41,526.5009,1,437,2761,2975,4263,508,-12.0,200,1,0,531.6689,0,3,735937.382482649,04_12_2014 level23_spatial_Magnum 09_02 log.txt,37.0,37.0,1311,2014-12-04,37.0,False,69.0,2.0,separated,right
43,544.2701,1,936,1551,2975,4263,501,-12.0,200,0,0,546.2625,1,3,735937.382688311,04_12_2014 level23_spatial_Magnum 09_02 log.txt,37.0,37.0,1311,2014-12-04,37.0,False,69.0,2.0,separated,right
44,549.4344,1,437,2761,2975,4263,505,-12.0,200,1,0,553.7467,0,0,735937.382748083,04_12_2014 level23_spatial_Magnum 09_02 log.txt,37.0,37.0,1311,2014-12-04,37.0,False,69.0,2.0,colocated,left
46,562.6401,0,936,1551,2975,4263,502,-12.0,200,0,0,563.3844,1,1,735937.382900927,04_12_2014 level23_spatial_Magnum 09_02 log.txt,37.0,37.0,1311,2014-12-04,37.0,False,69.0,2.0,colocated,right
47,566.9742,0,437,2761,2975,4263,510,-6.0,200,1,1,568.1017,1,0,735937.38295109,04_12_2014 level23_spatial_Magnum 09_02 log.txt,37.0,37.0,1311,2014-12-04,37.0,False,63.0,-4.0,colocated,left
48,570.5795,1,437,2761,2975,4263,511,-12.0,200,1,1,574.2979,1,2,735937.382992818,04_12_2014 level23_spatial_Magnum 09_02 log.txt,37.0,37.0,1311,2014-12-04,37.0,False,69.0,2.0,separated,left
49,582.3866,0,936,1551,2975,4263,507,-6.0,200,0,0,583.1948,1,3,735937.383129475,04_12_2014 level23_spatial_Magnum 09_02 log.txt,37.0,37.0,1311,2014-12-04,37.0,False,63.0,-4.0,separated,right
50,586.3497,1,437,2761,2975,4263,506,-12.0,200,1,1,588.2075,1,3,735937.383175344,04_12_2014 level23_spatial_Magnum 09_02 log.txt,37.0,37.0,1311,2014-12-04,37.0,False,69.0,2.0,separated,right
51,595.9281,0,936,1551,2975,4263,505,-9.0,200,0,0,596.8823,1,1,735937.383286205,04_12_2014 level23_spatial_Magnum 09_02 log.txt,37.0,37.0,1311,2014-12-04,37.0,False,66.0,-1.0,colocated,right
52,600.5492,1,936,1551,2975,4263,503,-12.0,200,0,0,602.1495,1,0,735937.38333969,04_12_2014 level23_spatial_Magnum 09_02 log.txt,37.0,37.0,1311,2014-12-04,37.0,False,69.0,2.0,colocated,left
53,605.3673,1,437,2761,2975,4263,502,-12.0,200,1,1,608.7842,1,4,735937.383395455,04_12_2014 level23_spatial_Magnum 09_02 log.txt,37.0,37.0,1311,2014-12-04,37.0,False,69.0,2.0,single_speaker,left
54,611.9463,0,936,1551,2975,4263,501,-12.0,200,0,0,612.9447,1,3,735937.383471601,04_12_2014 level23_spatial_Magnum 09_02 log.txt,37.0,37.0,1311,2014-12-04,37.0,False,69.0,2.0,separated,right
55,616.1302,1,936,1551,2975,4263,510,-12.0,200,0,0,618.1557,1,0,735937.383520026,04_12_2014 level23_spatial_Magnum 09_02 log.txt,37.0,37.0,1311,2014-12-04,37.0,False,69.0,2.0,colocated,left
56,621.1101,0,936,1551,2975,4263,506,-9.0,200,0,0,622.2254,1,4,735937.383577663,04_12_2014 level23_spatial_Magnum 09_02 log.txt,37.0,37.0,1311,2014-12-04,37.0,False,66.0,-1.0,single_speaker,left
57,625.3973,0,936,1551,2975,4263,509,-12.0,200,0,0,626.2486,1,2,735937.383627284,04_12_2014 level23_spatial_Magnum 09_02 log.txt,37.0,37.0,1311,2014-12-04,37.0,False,69.0,2.0,separated,left
58,629.8587,0,437,2761,2975,4263,508,-9.0,200,1,1,632.405,1,5,735937.38367892,04_12_2014 level23_spatial_Magnum 09_02 log.txt,37.0,37.0,1311,2014-12-04,37.0,False,66.0,-1.0,single_speaker,right
59,638.8043,0,936,1551,2975,4263,504,-6.0,200,0,0,639.6448,1,5,735937.383782457,04_12_2014 level23_spatial_Magnum 09_02 log.txt,37.0,37.0,1311,2014-12-04,37.0,False,63.0,-4.0,single_speaker,right
60,642.9385,0,936,1551,2975,4263,507,-6.0,200,0,0,644.1661,1,1,735937.383830307,04_12_2014 level23_spatial_Magnum 09_02 log.txt,37.0,37.0,1311,2014-12-04,37.0,False,63.0,-4.0,colocated,right
61,652.5939,1,936,1551,2975,4263,508,-15.0,200,0,0,654.3328,1,1,735937.383942059,04_12_2014 level23_spatial_Magnum 09_02 log.txt,37.0,37.0,1311,2014-12-04,37.0,False,72.0,5.0,colocated,right
62,657.4848,0,936,1551,2975,4263,505,-15.0,200,0,0,658.4839,1,0,735937.383998667,04_12_2014 level23_spatial_Magnum 09_02 log.txt,37.0,37.0,1311,2014-12-04,37.0,False,72.0,5.0,colocated,left
63,661.9252,0,936,1551,2975,4263,510,-12.0,200,0,0,662.9386,1,5,735937.38405006,04_12_2014 level23_spatial_Magnum 09_02 log.txt,37.0,37.0,1311,2014-12-04,37.0,False,69.0,2.0,single_speaker,right
64,667.0057,1,437,2761,2975,4263,502,-6.0,200,1,1,670.044,1,4,735937.384108862,04_12_2014 level23_spatial_Magnum 09_02 log.txt,37.0,37.0,1311,2014-12-04,37.0,False,63.0,-4.0,single_speaker,left
65,674.8138,1,936,1551,2975,4263,506,-9.0,200,0,0,677.6187,1,3,735937.384199234,04_12_2014 level23_spatial_Magnum 09_02 log.txt,37.0,37.0,1311,2014-12-04,37.0,False,66.0,-1.0,separated,right
66,680.4375,0,437,2761,2975,4263,503,-6.0,200,1,1,682.8503,1,5,735937.384264323,04_12_2014 level23_spatial_Magnum 09_02 log.txt,37.0,37.0,1311,2014-12-04,37.0,False,63.0,-4.0,single_speaker,right
67,686.3261,0,936,1551,2975,4263,504,-9.0,200,0,0,687.2826,1,2,735937.384332478,04_12_2014 level23_spatial_Magnum 09_02 log.txt,37.0,37.0,1311,2014-12-04,37.0,False,66.0,-1.0,separated,left
68,690.0456,0,437,2761,2975,4263,507,-12.0,200,1,0,691.1897,0,5,735937.384375528,04_12_2014 level23_spatial_Magnum 09_02 log.txt,37.0,37.0,1311,2014-12-04,37.0,False,69.0,2.0,single_speaker,right
70,704.3004,1,437,2761,2975,4263,511,-6.0,200,1,1,708.0296,1,1,735937.384540514,04_12_2014 level23_spatial_Magnum 09_02 log.txt,37.0,37.0,1311,2014-12-04,37.0,False,63.0,-4.0,colocated,right
71,713.1425,1,437,2761,2975,4263,509,-12.0,200,1,1,717.9389,1,0,735937.384642853,04_12_2014 level23_spatial_Magnum 09_02 log.txt,37.0,37.0,1311,2014-12-04,37.0,False,69.0,2.0,colocated,left
72,722.9753,1,936,1551,2975,4263,510,-6.0,200,0,0,726.0257,1,2,735937.384756659,04_12_2014 level23_spatial_Magnum 09_02 log.txt,37.0,37.0,1311,2014-12-04,37.0,False,63.0,-4.0,separated,left
73,729.9029,1,437,2761,2975,4263,508,-12.0,200,1,1,735.5514,1,0,735937.384836839,04_12_2014 level23_spatial_Magnum 09_02 log.txt,37.0,37.0,1311,2014-12-04,37.0,False,69.0,2.0,colocated,left
74,739.4252,1,936,1551,2975,4263,504,-6.0,200,0,0,741.9193,1,0,735937.384947051,04_12_2014 level23_spatial_Magnum 09_02 log.txt,37.0,37.0,1311,2014-12-04,37.0,False,63.0,-4.0,colocated,left
75,748.8475,0,936,1551,2975,4263,506,-15.0,200,0,0,749.7423,1,4,735937.385056105,04_12_2014 level23_spatial_Magnum 09_02 log.txt,37.0,37.0,1311,2014-12-04,37.0,False,72.0,5.0,single_speaker,left
76,752.7376,0,437,2761,2975,4263,505,-9.0,200,1,1,754.961,1,3,735937.38510113,04_12_2014 level23_spatial_Magnum 09_02 log.txt,37.0,37.0,1311,2014-12-04,37.0,False,66.0,-1.0,separated,right
77,757.1312,0,936,1551,2975,4263,503,-15.0,200,0,0,757.9755,1,0,735937.385151981,04_12_2014 level23_spatial_Magnum 09_02 log.txt,37.0,37.0,1311,2014-12-04,37.0,False,72.0,5.0,colocated,left
78,761.0765,0,936,1551,2975,4263,502,-6.0,200,0,0,762.0302,1,3,735937.385197645,04_12_2014 level23_spatial_Magnum 09_02 log.txt,37.0,37.0,1311,2014-12-04,37.0,False,63.0,-4.0,separated,right
79,765.3279,0,437,2761,2975,4263,509,-9.0,200,1,1,767.6874,1,2,735937.385246851,04_12_2014 level23_spatial_Magnum 09_02 log.txt,37.0,37.0,1311,2014-12-04,37.0,False,66.0,-1.0,separated,left
80,777.1988,0,936,1551,2975,4263,507,-12.0,200,0,0,778.051,1,5,735937.385384245,04_12_2014 level23_spatial_Magnum 09_02 log.txt,37.0,37.0,1311,2014-12-04,37.0,False,69.0,2.0,single_speaker,right
81,781.1505,0,936,1551,2975,4263,501,-12.0,200,0,0,782.1577,1,3,735937.385429983,04_12_2014 level23_spatial_Magnum 09_02 log.txt,37.0,37.0,1311,2014-12-04,37.0,False,69.0,2.0,separated,right
82,785.5992,0,437,2761,2975,4263,506,-12.0,200,1,1,787.4487,1,1,735937.385481472,04_12_2014 level23_spatial_Magnum 09_02 log.txt,37.0,37.0,1311,2014-12-04,37.0,False,69.0,2.0,colocated,right
83,791.1663,1,936,1551,2975,4263,508,-12.0,200,0,0,793.5057,1,0,735937.385545906,04_12_2014 level23_spatial_Magnum 09_02 log.txt,37.0,37.0,1311,2014-12-04,37.0,False,69.0,2.0,colocated,left
84,796.5856,1,437,2761,2975,4263,503,-6.0,200,1,1,802.5852,1,5,735937.38560863,04_12_2014 level23_spatial_Magnum 09_02 log.txt,37.0,37.0,1311,2014-12-04,37.0,False,63.0,-4.0,single_speaker,right
85,804.1441,1,936,1551,2975,4263,509,-12.0,200,0,0,807.5701,1,1,735937.385696112,04_12_2014 level23_spatial_Magnum 09_02 log.txt,37.0,37.0,1311,2014-12-04,37.0,False,69.0,2.0,colocated,right
86,810.6606,0,936,1551,2975,4263,510,-12.0,200,0,0,811.5782,1,4,735937.385771535,04_12_2014 level23_spatial_Magnum 09_02 log.txt,37.0,37.0,1311,2014-12-04,37.0,False,69.0,2.0,single_speaker,left
87,814.6523,0,936,1551,2975,4263,505,-15.0,200,0,0,815.6706,1,2,735937.385817735,04_12_2014 level23_spatial_Magnum 09_02 log.txt,37.0,37.0,1311,2014-12-04,37.0,False,72.0,5.0,separated,left
88,821.0983,1,437,2761,2975,4263,504,-15.0,200,1,1,824.2408,1,5,735937.385892341,04_12_2014 level23_spatial_Magnum 09_02 log.txt,37.0,37.0,1311,2014-12-04,37.0,False,72.0,5.0,single_speaker,right
89,827.3978,0,437,2761,2975,4263,511,-6.0,200,1,1,829.0447,1,0,735937.385965252,04_12_2014 level23_spatial_Magnum 09_02 log.txt,37.0,37.0,1311,2014-12-04,37.0,False,63.0,-4.0,colocated,left
90,838.691,1,936,1551,2975,4263,502,-15.0,200,0,0,841.0755,1,1,735937.386095961,04_12_2014 level23_spatial_Magnum 09_02 log.txt,37.0,37.0,1311,2014-12-04,37.0,False,72.0,5.0,colocated,right
91,845.2668,1,437,2761,2975,4263,501,-15.0,200,1,1,851.4836,1,4,735937.386172069,04_12_2014 level23_spatial_Magnum 09_02 log.txt,37.0,37.0,1311,2014-12-04,37.0,False,72.0,5.0,single_speaker,left
92,853.7909,0,437,2761,2975,4263,511,-9.0,200,1,1,859.5426,1,4,735937.386270728,04_12_2014 level23_spatial_Magnum 09_02 log.txt,37.0,37.0,1311,2014-12-04,37.0,False,66.0,-1.0,single_speaker,left
93,864.3047,1,936,1551,2975,4263,507,-9.0,200,0,0,866.9911,1,0,735937.386392416,04_12_2014 level23_spatial_Magnum 09_02 log.txt,37.0,37.0,1311,2014-12-04,37.0,False,66.0,-1.0,colocated,left
94,870.5099,1,437,2761,2975,4263,501,-12.0,200,1,1,877.4083,1,2,735937.386464235,04_12_2014 level23_spatial_Magnum 09_02 log.txt,37.0,37.0,1311,2014-12-04,37.0,False,69.0,2.0,separated,left
95,880.3634,0,936,1551,2975,4263,509,-12.0,200,0,0,881.2591,1,3,735937.38657828,04_12_2014 level23_spatial_Magnum 09_02 log.txt,37.0,37.0,1311,2014-12-04,37.0,False,69.0,2.0,separated,right
96,883.8993,0,437,2761,2975,4263,505,-6.0,200,1,1,889.197,1,2,735937.386619205,04_12_2014 level23_spatial_Magnum 09_02 log.txt,37.0,37.0,1311,2014-12-04,37.0,False,63.0,-4.0,separated,left
97,897.6024,1,936,1551,2975,4263,503,-9.0,200,0,0,899.2068,1,3,735937.386777806,04_12_2014 level23_spatial_Magnum 09_02 log.txt,37.0,37.0,1311,2014-12-04,37.0,False,66.0,-1.0,separated,right
98,902.0332,1,936,1551,2975,4263,502,-12.0,200,0,0,904.3353,1,4,735937.386829088,04_12_2014 level23_spatial_Magnum 09_02 log.txt,37.0,37.0,1311,2014-12-04,37.0,False,69.0,2.0,single_speaker,left
99,907.7291,0,437,2761,2975,4263,504,-6.0,200,1,1,910.0065,1,4,735937.386895013,04_12_2014 level23_spatial_Magnum 09_02 log.txt,37.0,37.0,1311,2014-12-04,37.0,False,63.0,-4.0,single_speaker,left
100,911.295,0,936,1551,2975,4263,510,-6.0,200,0,1,913.1736,0,1,735937.386936285,04_12_2014 level23_spatial_Magnum 09_02 log.txt,37.0,37.0,1311,2014-12-04,37.0,False,63.0,-4.0,colocated,right
102,922.4088,1,936,1551,2975,4263,508,-9.0,200,0,1,928.3414,0,1,735937.387064917,04_12_2014 level23_spatial_Magnum 09_02 log.txt,37.0,37.0,1311,2014-12-04,37.0,False,66.0,-1.0,colocated,right
105,938.803,1,936,1551,2975,4263,510,-12.0,200,0,0,945.9862,1,1,735937.387254664,04_12_2014 level23_spatial_Magnum 09_02 log.txt,37.0,37.0,1311,2014-12-04,37.0,False,69.0,2.0,colocated,right
106,949.4687,1,437,2761,2975,4263,503,-12.0,200,1,1,954.0015,1,0,735937.38737811,04_12_2014 level23_spatial_Magnum 09_02 log.txt,37.0,37.0,1311,2014-12-04,37.0,False,69.0,2.0,colocated,left
107,955.4167,1,437,2761,2975,4263,511,-9.0,200,1,0,959.4216,0,5,735937.387446953,04_12_2014 level23_spatial_Magnum 09_02 log.txt,37.0,37.0,1311,2014-12-04,37.0,False,66.0,-1.0,single_speaker,right
110,979.9062,1,437,2761,2975,4263,505,-12.0,200,1,1,983.0291,1,4,735937.387730396,04_12_2014 level23_spatial_Magnum 09_02 log.txt,37.0,37.0,1311,2014-12-04,37.0,False,69.0,2.0,single_speaker,left
111,987.1507,1,437,2761,2975,4263,506,-15.0,200,1,0,988.9949,0,3,735937.387814244,04_12_2014 level23_spatial_Magnum 09_02 log.txt,37.0,37.0,1311,2014-12-04,37.0,False,72.0,5.0,separated,right
113,998.9767,1,936,1551,2975,4263,504,-9.0,200,0,0,1000.9386,1,5,735937.387951119,04_12_2014 level23_spatial_Magnum 09_02 log.txt,37.0,37.0,1311,2014-12-04,37.0,False,66.0,-1.0,single_speaker,right
114,1003.5401,0,936,1551,2975,4263,508,-6.0,200,0,0,1004.7314,1,4,735937.388003936,04_12_2014 level23_spatial_Magnum 09_02 log.txt,37.0,37.0,1311,2014-12-04,37.0,False,63.0,-4.0,single_speaker,left
115,1008.6155,0,437,2761,2975,4263,501,-15.0,200,1,1,1013.5605,1,1,735937.388062679,04_12_2014 level23_spatial_Magnum 09_02 log.txt,37.0,37.0,1311,2014-12-04,37.0,False,72.0,5.0,colocated,right
116,1031.5918,1,437,2761,2975,4263,509,-9.0,200,1,0,1037.5739,0,1,735937.388328609,04_12_2014 level23_spatial_Magnum 09_02 log.txt,37.0,37.0,1311,2014-12-04,37.0,False,66.0,-1.0,colocated,right
118,1056.3545,1,936,1551,2975,4263,507,-12.0,200,0,0,1058.1598,1,2,735937.388615214,04_12_2014 level23_spatial_Magnum 09_02 log.txt,37.0,37.0,1311,2014-12-04,37.0,False,69.0,2.0,separated,left
119,1076.259,1,437,2761,2975,4263,509,-15.0,200,1,0,1078.1078,0,0,735937.38884559,04_12_2014 level23_spatial_Magnum 09_02 log.txt,37.0,37.0,1311,2014-12-04,37.0,False,72.0,5.0,colocated,left
121,1088.2158,1,437,2761,2975,4263,504,-12.0,200,1,1,1093.3986,1,1,735937.388983979,04_12_2014 level23_spatial_Magnum 09_02 log.txt,37.0,37.0,1311,2014-12-04,37.0,False,69.0,2.0,colocated,right
122,1095.6046,0,437,2761,2975,4263,503,-12.0,200,1,0,1096.3493,0,3,735937.389069498,04_12_2014 level23_spatial_Magnum 09_02 log.txt,37.0,37.0,1311,2014-12-04,37.0,False,69.0,2.0,separated,right
124,1108.8566,1,936,1551,2975,4263,511,-6.0,200,0,0,1111.0864,1,5,735937.389222877,04_12_2014 level23_spatial_Magnum 09_02 log.txt,37.0,37.0,1311,2014-12-04,37.0,False,63.0,-4.0,single_speaker,right
125,1336.9571,0,936,1551,2975,4263,502,-15.0,200,0,0,1341.3779,1,5,735937.391862929,04_12_2014 level23_spatial_Magnum 09_02 log.txt,37.0,37.0,1311,2014-12-04,37.0,False,72.0,5.0,single_speaker,right
127,1436.1177,0,936,1551,2975,4263,505,-12.0,200,0,0,1436.8724,1,5,735937.393010622,04_12_2014 level23_spatial_Magnum 09_02 log.txt,37.0,37.0,1311,2014-12-04,37.0,False,69.0,2.0,single_speaker,right
61,832.6864,0,437,2761,2975,4263,506,-12.0,200,1,1,834.2249,1,5,735937.654776463,04_12_2014 level23_spatial_Magnum 15_29 log.txt,35.0,35.0,1311,2014-12-04,35.0,False,69.0,2.0,single_speaker,right
62,838.8166,1,936,1551,2975,4263,510,-12.0,200,0,0,840.7254,1,5,735937.654847414,04_12_2014 level23_spatial_Magnum 15_29 log.txt,35.0,35.0,1311,2014-12-04,35.0,False,69.0,2.0,single_speaker,right
63,844.0132,1,437,2761,2975,4263,505,-12.0,200,1,0,848.4861,0,0,735937.65490756,04_12_2014 level23_spatial_Magnum 15_29 log.txt,35.0,35.0,1311,2014-12-04,35.0,False,69.0,2.0,colocated,left
65,859.8384,0,437,2761,2975,4263,503,-6.0,200,1,1,861.9399,1,3,735937.655090722,04_12_2014 level23_spatial_Magnum 15_29 log.txt,35.0,35.0,1311,2014-12-04,35.0,False,63.0,-4.0,separated,right
66,865.2336,0,936,1551,2975,4263,509,-12.0,200,0,0,866.1953,1,2,735937.655153167,04_12_2014 level23_spatial_Magnum 15_29 log.txt,35.0,35.0,1311,2014-12-04,35.0,False,69.0,2.0,separated,left
67,869.5869,0,936,1551,2975,4263,510,-9.0,200,0,0,870.5615,1,5,735937.655203552,04_12_2014 level23_spatial_Magnum 15_29 log.txt,35.0,35.0,1311,2014-12-04,35.0,False,66.0,-1.0,single_speaker,right
68,874.0071,0,936,1551,2975,4263,506,-6.0,200,0,1,875.431,0,3,735937.655254712,04_12_2014 level23_spatial_Magnum 15_29 log.txt,36.0,35.0,1311,2014-12-04,35.5,False,63.0,-4.0,separated,right
70,882.7668,0,437,2761,2975,4263,507,-12.0,200,1,1,883.9421,1,5,735937.655356097,04_12_2014 level23_spatial_Magnum 15_29 log.txt,36.0,35.0,1311,2014-12-04,35.5,False,69.0,2.0,single_speaker,right
71,886.6815,1,437,2761,2975,4263,508,-12.0,200,1,1,889.7036,1,1,735937.655401406,04_12_2014 level23_spatial_Magnum 15_29 log.txt,36.0,35.0,1311,2014-12-04,35.5,False,69.0,2.0,colocated,right
72,897.4286,1,437,2761,2975,4263,501,-12.0,200,1,0,901.484,0,2,735937.655525794,04_12_2014 level23_spatial_Magnum 15_29 log.txt,36.0,35.0,1311,2014-12-04,35.5,False,69.0,2.0,separated,left
75,923.7566,0,437,2761,2975,4263,505,-12.0,200,1,1,925.6332,1,4,735937.655830516,04_12_2014 level23_spatial_Magnum 15_29 log.txt,36.0,35.0,1311,2014-12-04,35.5,False,69.0,2.0,single_speaker,left
76,928.9761,0,437,2761,2975,4263,504,-12.0,200,1,0,929.8811,0,2,735937.655890927,04_12_2014 level23_spatial_Magnum 15_29 log.txt,36.0,35.0,1311,2014-12-04,35.5,False,69.0,2.0,separated,left
78,947.5281,1,437,2761,2975,4263,502,-15.0,200,1,1,952.2237,1,1,735937.656105649,04_12_2014 level23_spatial_Magnum 15_29 log.txt,36.0,35.0,1311,2014-12-04,35.5,False,72.0,5.0,colocated,right
79,954.9374,1,437,2761,2975,4263,505,-9.0,200,1,1,958.6212,1,1,735937.656191405,04_12_2014 level23_spatial_Magnum 15_29 log.txt,36.0,35.0,1311,2014-12-04,35.5,False,66.0,-1.0,colocated,right
80,960.5215,0,936,1551,2975,4263,504,-9.0,200,0,0,961.3895,1,4,735937.656256036,04_12_2014 level23_spatial_Magnum 15_29 log.txt,36.0,35.0,1311,2014-12-04,35.5,False,66.0,-1.0,single_speaker,left
81,964.8122,1,936,1551,2975,4263,508,-6.0,200,0,0,966.7834,1,3,735937.656305697,04_12_2014 level23_spatial_Magnum 15_29 log.txt,36.0,35.0,1311,2014-12-04,35.5,False,63.0,-4.0,separated,right
82,970.3075,0,936,1551,2975,4263,502,-15.0,200,0,0,971.26,1,2,735937.6563693,04_12_2014 level23_spatial_Magnum 15_29 log.txt,36.0,35.0,1311,2014-12-04,35.5,False,72.0,5.0,separated,left
83,975.0236,0,437,2761,2975,4263,509,-15.0,200,1,0,976.0461,0,3,735937.656423884,04_12_2014 level23_spatial_Magnum 15_29 log.txt,36.0235966244556,35.0,1311,2014-12-04,35.511798312227796,False,72.0,5.0,separated,right
85,988.2211,1,437,2761,2975,4263,501,-9.0,200,1,1,993.8311,1,4,735937.656576633,04_12_2014 level23_spatial_Magnum 15_29 log.txt,36.0,35.0,1311,2014-12-04,35.5,False,66.0,-1.0,single_speaker,left
86,995.3142,0,936,1551,2975,4263,507,-15.0,200,0,1,997.0938,0,5,735937.656658729,04_12_2014 level23_spatial_Magnum 15_29 log.txt,36.0,35.0,1311,2014-12-04,35.5,False,72.0,5.0,single_speaker,right
88,1003.5017,1,936,1551,2975,4263,503,-6.0,200,0,0,1005.2569,1,0,735937.656753492,04_12_2014 level23_spatial_Magnum 15_29 log.txt,36.0,35.0,1311,2014-12-04,35.5,False,63.0,-4.0,colocated,left
89,1008.4588,0,437,2761,2975,4263,506,-6.0,200,1,1,1010.4821,1,0,735937.656810866,04_12_2014 level23_spatial_Magnum 15_29 log.txt,36.0,35.0,1311,2014-12-04,35.5,False,63.0,-4.0,colocated,left
90,1011.7374,1,936,1551,2975,4263,510,-12.0,200,0,0,1013.5853,1,5,735937.656848812,04_12_2014 level23_spatial_Magnum 15_29 log.txt,36.0,35.0,1311,2014-12-04,35.5,False,69.0,2.0,single_speaker,right
91,1016.651,0,437,2761,2975,4263,503,-12.0,200,1,1,1019.0587,1,3,735937.656905683,04_12_2014 level23_spatial_Magnum 15_29 log.txt,36.0,35.0,1311,2014-12-04,35.5,False,69.0,2.0,separated,right
92,1022.2649,1,437,2761,2975,4263,505,-6.0,200,1,0,1031.1326,0,1,735937.656970659,04_12_2014 level23_spatial_Magnum 15_29 log.txt,36.0,35.0,1311,2014-12-04,35.5,False,63.0,-4.0,colocated,right
94,1036.6478,0,936,1551,2975,4263,511,-12.0,200,0,0,1037.5513,1,0,735937.657137127,04_12_2014 level23_spatial_Magnum 15_29 log.txt,36.0,35.0,1311,2014-12-04,35.5,False,69.0,2.0,colocated,left
95,1041.0902,0,936,1551,2975,4263,508,-12.0,200,0,0,1041.9624,1,0,735937.657188544,04_12_2014 level23_spatial_Magnum 15_29 log.txt,36.0,35.0,1311,2014-12-04,35.5,False,69.0,2.0,colocated,left
96,1045.598,1,437,2761,2975,4263,501,-12.0,200,1,1,1049.109,1,1,735937.657240718,04_12_2014 level23_spatial_Magnum 15_29 log.txt,36.0,35.0,1311,2014-12-04,35.5,False,69.0,2.0,colocated,right
97,1064.1968,1,936,1551,2975,4263,506,-15.0,200,0,0,1066.8907,1,0,735937.657455981,04_12_2014 level23_spatial_Magnum 15_29 log.txt,36.0,35.0,1311,2014-12-04,35.5,False,72.0,5.0,colocated,left
98,1070.1261,0,936,1551,2975,4263,504,-9.0,200,0,0,1071.0594,1,5,735937.657524608,04_12_2014 level23_spatial_Magnum 15_29 log.txt,36.0,35.0,1311,2014-12-04,35.5,False,66.0,-1.0,single_speaker,right
99,1074.6032,0,437,2761,2975,4263,510,-15.0,200,1,0,1075.5201,0,0,735937.657576426,04_12_2014 level23_spatial_Magnum 15_29 log.txt,36.0,35.0,1311,2014-12-04,35.5,False,72.0,5.0,colocated,left
101,1083.0252,1,437,2761,2975,4263,507,-9.0,200,1,1,1085.458,1,3,735937.657673903,04_12_2014 level23_spatial_Magnum 15_29 log.txt,36.0,35.0,1311,2014-12-04,35.5,False,66.0,-1.0,separated,right
102,1088.0762,1,437,2761,2975,4263,509,-15.0,200,1,1,1095.29,1,2,735937.657732363,04_12_2014 level23_spatial_Magnum 15_29 log.txt,36.0,35.0,1311,2014-12-04,35.5,False,72.0,5.0,separated,left
103,1103.6029,0,936,1551,2975,4263,509,-9.0,200,0,0,1104.821,1,0,735937.657912071,04_12_2014 level23_spatial_Magnum 15_29 log.txt,36.0,34.3971092626306,1311,2014-12-04,35.198554631315304,False,66.0,-1.0,colocated,left
104,1108.2333,0,936,1551,2975,4263,505,-12.0,200,0,0,1109.1389,1,1,735937.657965663,04_12_2014 level23_spatial_Magnum 15_29 log.txt,36.0,34.0,1311,2014-12-04,35.0,False,69.0,2.0,colocated,right
105,1112.1466,1,437,2761,2975,4263,510,-9.0,200,1,1,1115.5027,1,2,735937.658010956,04_12_2014 level23_spatial_Magnum 15_29 log.txt,36.0,34.0,1311,2014-12-04,35.0,False,66.0,-1.0,separated,left
106,1117.9479,0,437,2761,2975,4263,508,-15.0,200,1,1,1121.031,1,4,735937.658078101,04_12_2014 level23_spatial_Magnum 15_29 log.txt,36.0,34.0,1311,2014-12-04,35.0,False,72.0,5.0,single_speaker,left
107,1128.2048,1,437,2761,2975,4263,511,-12.0,200,1,1,1131.1427,1,3,735937.658196815,04_12_2014 level23_spatial_Magnum 15_29 log.txt,36.0,34.0,1311,2014-12-04,35.0,False,69.0,2.0,separated,right
108,1136.3266,0,936,1551,2975,4263,507,-12.0,200,0,0,1137.3128,1,5,735937.658290817,04_12_2014 level23_spatial_Magnum 15_29 log.txt,36.0,34.0,1311,2014-12-04,35.0,False,69.0,2.0,single_speaker,right
109,1140.809,0,936,1551,2975,4263,504,-15.0,200,0,0,1141.6904,1,3,735937.658342697,04_12_2014 level23_spatial_Magnum 15_29 log.txt,36.0,34.8089940756983,1311,2014-12-04,35.404497037849154,False,72.0,5.0,separated,right
110,1144.9892,0,437,2761,2975,4263,506,-9.0,200,1,0,1146.2821,0,0,735937.658391079,04_12_2014 level23_spatial_Magnum 15_29 log.txt,36.0,35.0,1311,2014-12-04,35.5,False,66.0,-1.0,colocated,left
112,1157.6155,0,437,2761,2975,4263,503,-6.0,200,1,0,1160.0502,0,5,735937.658537216,04_12_2014 level23_spatial_Magnum 15_29 log.txt,36.0,35.0,1311,2014-12-04,35.5,False,63.0,-4.0,single_speaker,right
114,1174.2944,0,437,2761,2975,4263,502,-6.0,200,1,0,1175.1068,0,3,735937.658730259,04_12_2014 level23_spatial_Magnum 15_29 log.txt,36.0,35.0,1311,2014-12-04,35.5,False,63.0,-4.0,separated,right
116,1183.5162,0,936,1551,2975,4263,511,-12.0,200,0,0,1184.3375,1,2,735937.658836993,04_12_2014 level23_spatial_Magnum 15_29 log.txt,36.0,35.0,1311,2014-12-04,35.5,False,69.0,2.0,separated,left
117,1211.2364,0,936,1551,2975,4263,501,-12.0,200,0,0,1212.2799,1,4,735937.659157829,04_12_2014 level23_spatial_Magnum 15_29 log.txt,37.0,35.0,1311,2014-12-04,36.0,False,69.0,2.0,single_speaker,left
118,1215.9069,0,437,2761,2975,4263,505,-15.0,200,1,1,1217.202,1,1,735937.659211885,04_12_2014 level23_spatial_Magnum 15_29 log.txt,37.0,35.0,1311,2014-12-04,36.0,False,72.0,5.0,colocated,right
119,1220.1792,1,437,2761,2975,4263,508,-12.0,200,1,0,1221.0074,0,4,735937.659261333,04_12_2014 level23_spatial_Magnum 15_29 log.txt,37.0,35.0,1311,2014-12-04,36.0,False,69.0,2.0,single_speaker,left
1,7.4992,0,437,2761,2975,4263,501,-9.0,200,1,0,8.4466,0,0,735938.424392352,05_12_2014 level23_spatial_Magnum 10_11 log.txt,37.0,37.0,1311,2014-12-05,37.0,False,66.0,-1.0,colocated,left
3,21.101,0,936,1551,2975,4263,506,-15.0,200,0,0,21.9266,1,5,735938.42454978,05_12_2014 level23_spatial_Magnum 10_11 log.txt,37.0,37.0,1311,2014-12-05,37.0,False,72.0,5.0,single_speaker,right
4,25.6723,0,936,1551,2975,4263,503,-9.0,200,0,0,26.4073,1,2,735938.424602689,05_12_2014 level23_spatial_Magnum 10_11 log.txt,37.0,37.0,1311,2014-12-05,37.0,False,66.0,-1.0,separated,left
5,29.9314,1,437,2761,2975,4263,502,-12.0,200,1,0,32.09,0,3,735938.424651984,05_12_2014 level23_spatial_Magnum 10_11 log.txt,37.0,37.0,1311,2014-12-05,37.0,False,69.0,2.0,separated,right
7,41.3446,0,437,2761,2975,4263,505,-12.0,200,1,0,42.1049,0,2,735938.424784081,05_12_2014 level23_spatial_Magnum 10_11 log.txt,37.0,37.0,1311,2014-12-05,37.0,False,69.0,2.0,separated,left
9,49.323,1,437,2761,2975,4263,509,-12.0,200,1,1,50.7014,1,1,735938.424876424,05_12_2014 level23_spatial_Magnum 10_11 log.txt,37.0,37.0,1311,2014-12-05,37.0,False,69.0,2.0,colocated,right
10,56.0692,1,437,2761,2975,4263,504,-6.0,200,1,0,60.2478,0,1,735938.424954505,05_12_2014 level23_spatial_Magnum 10_11 log.txt,37.0,37.0,1311,2014-12-05,37.0,False,63.0,-4.0,colocated,right
12,73.6225,1,936,1551,2975,4263,508,-15.0,200,0,0,76.4123,1,2,735938.425157668,05_12_2014 level23_spatial_Magnum 10_11 log.txt,37.0,37.0,1311,2014-12-05,37.0,False,72.0,5.0,separated,left
13,79.6184,1,437,2761,2975,4263,510,-9.0,200,1,0,82.3664,0,4,735938.425227065,05_12_2014 level23_spatial_Magnum 10_11 log.txt,37.0,37.0,1311,2014-12-05,37.0,False,66.0,-1.0,single_speaker,left
15,91.6943,0,936,1551,2975,4263,507,-6.0,200,0,1,93.0925,0,3,735938.425366832,05_12_2014 level23_spatial_Magnum 10_11 log.txt,37.0,37.0,1311,2014-12-05,37.0,False,63.0,-4.0,separated,right
17,100.8388,1,936,1551,2975,4263,510,-12.0,200,0,0,103.1003,1,2,735938.425472671,05_12_2014 level23_spatial_Magnum 10_11 log.txt,37.0,37.0,1311,2014-12-05,37.0,False,69.0,2.0,separated,left
18,105.8757,1,437,2761,2975,4263,506,-6.0,200,1,1,111.4667,1,0,735938.425530969,05_12_2014 level23_spatial_Magnum 10_11 log.txt,37.0,37.0,1311,2014-12-05,37.0,False,63.0,-4.0,colocated,left
19,117.7693,0,936,1551,2975,4263,507,-12.0,200,0,0,118.5131,1,5,735938.425668626,05_12_2014 level23_spatial_Magnum 10_11 log.txt,37.0,37.0,1311,2014-12-05,37.0,False,69.0,2.0,single_speaker,right
20,121.5094,1,936,1551,2975,4263,509,-12.0,200,0,1,126.2849,0,1,735938.425711914,05_12_2014 level23_spatial_Magnum 10_11 log.txt,37.0,37.0,1311,2014-12-05,37.0,False,69.0,2.0,colocated,right
22,136.7441,0,437,2761,2975,4263,505,-12.0,200,1,0,137.6081,0,0,735938.425888242,05_12_2014 level23_spatial_Magnum 10_11 log.txt,37.0,37.0,1311,2014-12-05,37.0,False,69.0,2.0,colocated,left
24,151.5539,0,437,2761,2975,4263,508,-12.0,200,1,1,153.1185,1,5,735938.426059652,05_12_2014 level23_spatial_Magnum 10_11 log.txt,37.0,37.0,1311,2014-12-05,37.0,False,69.0,2.0,single_speaker,right
25,159.6655,1,936,1551,2975,4263,504,-15.0,200,0,0,161.4062,1,4,735938.426153536,05_12_2014 level23_spatial_Magnum 10_11 log.txt,37.0,37.0,1311,2014-12-05,37.0,False,72.0,5.0,single_speaker,left
26,164.8112,1,437,2761,2975,4263,501,-6.0,200,1,0,168.4279,0,2,735938.426213093,05_12_2014 level23_spatial_Magnum 10_11 log.txt,37.0,37.0,1311,2014-12-05,37.0,False,63.0,-4.0,separated,left
28,175.6231,0,437,2761,2975,4263,502,-9.0,200,1,1,177.3686,1,2,735938.42633823,05_12_2014 level23_spatial_Magnum 10_11 log.txt,37.0,37.0,1311,2014-12-05,37.0,False,66.0,-1.0,separated,left
29,182.0722,1,437,2761,2975,4263,503,-12.0,200,1,0,185.483,0,2,735938.426412873,05_12_2014 level23_spatial_Magnum 10_11 log.txt,37.0,37.0,1311,2014-12-05,37.0,False,69.0,2.0,separated,left
31,195.5484,1,936,1551,2975,4263,507,-12.0,200,0,0,197.8532,1,4,735938.426568847,05_12_2014 level23_spatial_Magnum 10_11 log.txt,37.0,37.0,1311,2014-12-05,37.0,False,69.0,2.0,single_speaker,left
32,201.0034,1,936,1551,2975,4263,506,-6.0,200,0,0,203.1635,1,4,735938.426631984,05_12_2014 level23_spatial_Magnum 10_11 log.txt,37.0,37.0,1311,2014-12-05,37.0,False,63.0,-4.0,single_speaker,left
33,206.233,0,437,2761,2975,4263,503,-12.0,200,1,1,207.9991,1,4,735938.426692512,05_12_2014 level23_spatial_Magnum 10_11 log.txt,37.0,37.0,1311,2014-12-05,37.0,False,69.0,2.0,single_speaker,left
34,210.1223,0,437,2761,2975,4263,511,-6.0,200,1,1,211.5725,1,4,735938.426737527,05_12_2014 level23_spatial_Magnum 10_11 log.txt,37.0,37.0,1311,2014-12-05,37.0,False,63.0,-4.0,single_speaker,left
35,217.5047,0,936,1551,2975,4263,504,-12.0,200,0,0,218.2949,1,4,735938.426822971,05_12_2014 level23_spatial_Magnum 10_11 log.txt,37.0,37.0,1311,2014-12-05,37.0,False,69.0,2.0,single_speaker,left
36,221.3202,1,936,1551,2975,4263,505,-9.0,200,0,0,223.3173,1,4,735938.426867132,05_12_2014 level23_spatial_Magnum 10_11 log.txt,37.0,37.0,1311,2014-12-05,37.0,False,66.0,-1.0,single_speaker,left
37,226.3462,1,936,1551,2975,4263,501,-12.0,200,0,0,228.6677,1,2,735938.426925303,05_12_2014 level23_spatial_Magnum 10_11 log.txt,37.0,37.0,1311,2014-12-05,37.0,False,69.0,2.0,separated,left
38,231.9851,1,437,2761,2975,4263,510,-15.0,200,1,1,236.4383,1,2,735938.426990568,05_12_2014 level23_spatial_Magnum 10_11 log.txt,37.0,37.0,1311,2014-12-05,37.0,False,72.0,5.0,separated,left
39,239.535,0,936,1551,2975,4263,509,-9.0,200,0,0,240.3768,1,3,735938.427077951,05_12_2014 level23_spatial_Magnum 10_11 log.txt,37.0,37.0,1311,2014-12-05,37.0,False,66.0,-1.0,separated,right
40,244.1182,1,437,2761,2975,4263,508,-12.0,200,1,1,247.168,1,1,735938.427130998,05_12_2014 level23_spatial_Magnum 10_11 log.txt,37.0,37.0,1311,2014-12-05,37.0,False,69.0,2.0,colocated,right
41,255.5954,0,437,2761,2975,4263,507,-15.0,200,1,1,257.2305,1,1,735938.427263836,05_12_2014 level23_spatial_Magnum 10_11 log.txt,37.0,37.0,1311,2014-12-05,37.0,False,72.0,5.0,colocated,right
42,261.174,1,936,1551,2975,4263,501,-9.0,200,0,0,263.6057,1,0,735938.427328403,05_12_2014 level23_spatial_Magnum 10_11 log.txt,37.0,37.0,1311,2014-12-05,37.0,False,66.0,-1.0,colocated,left
43,266.4737,0,437,2761,2975,4263,503,-12.0,200,1,1,268.0229,1,0,735938.427389742,05_12_2014 level23_spatial_Magnum 10_11 log.txt,37.0,37.0,1311,2014-12-05,37.0,False,69.0,2.0,colocated,left
44,269.9419,0,936,1551,2975,4263,511,-12.0,200,0,1,271.5633,0,1,735938.427429883,05_12_2014 level23_spatial_Magnum 10_11 log.txt,37.0,37.0,1311,2014-12-05,37.0,False,69.0,2.0,colocated,right
46,279.8233,0,936,1551,2975,4263,509,-12.0,200,0,0,280.661,1,3,735938.427544251,05_12_2014 level23_spatial_Magnum 10_11 log.txt,37.0,37.0,1311,2014-12-05,37.0,False,69.0,2.0,separated,right
47,283.6214,1,936,1551,2975,4263,504,-15.0,200,0,0,285.5218,1,0,735938.427588211,05_12_2014 level23_spatial_Magnum 10_11 log.txt,37.0,37.0,1311,2014-12-05,37.0,False,72.0,5.0,colocated,left
48,288.5821,1,936,1551,2975,4263,506,-6.0,200,0,0,290.6131,1,0,735938.427645626,05_12_2014 level23_spatial_Magnum 10_11 log.txt,37.0,37.0,1311,2014-12-05,37.0,False,63.0,-4.0,colocated,left
49,293.6315,1,936,1551,2975,4263,508,-12.0,200,0,0,296.858,1,5,735938.427704068,05_12_2014 level23_spatial_Magnum 10_11 log.txt,37.0,37.0,1311,2014-12-05,37.0,False,69.0,2.0,single_speaker,right
50,300.0984,0,437,2761,2975,4263,510,-6.0,200,1,1,301.778,1,3,735938.427778917,05_12_2014 level23_spatial_Magnum 10_11 log.txt,37.0,37.0,1311,2014-12-05,37.0,False,63.0,-4.0,separated,right
51,304.0289,0,437,2761,2975,4263,502,-15.0,200,1,1,305.6734,1,0,735938.427824409,05_12_2014 level23_spatial_Magnum 10_11 log.txt,37.0,37.0,1311,2014-12-05,37.0,False,72.0,5.0,colocated,left
52,313.4291,0,437,2761,2975,4263,507,-15.0,200,1,1,314.4779,1,5,735938.427933207,05_12_2014 level23_spatial_Magnum 10_11 log.txt,37.0,37.0,1311,2014-12-05,37.0,False,72.0,5.0,single_speaker,right
53,317.9157,1,936,1551,2975,4263,505,-12.0,200,0,0,319.8032,1,0,735938.427985135,05_12_2014 level23_spatial_Magnum 10_11 log.txt,37.0,37.0,1311,2014-12-05,37.0,False,69.0,2.0,colocated,left
54,322.7739,0,936,1551,2975,4263,511,-15.0,200,0,0,323.6746,1,3,735938.428041365,05_12_2014 level23_spatial_Magnum 10_11 log.txt,37.0,37.0,1311,2014-12-05,37.0,False,72.0,5.0,separated,right
55,326.7162,0,437,2761,2975,4263,503,-6.0,200,1,0,327.6274,0,5,735938.428086993,05_12_2014 level23_spatial_Magnum 10_11 log.txt,37.0,37.0,1311,2014-12-05,37.0,False,63.0,-4.0,single_speaker,right
57,334.9876,0,437,2761,2975,4263,502,-15.0,200,1,1,336.3276,1,3,735938.428182727,05_12_2014 level23_spatial_Magnum 10_11 log.txt,37.0,37.0,1311,2014-12-05,37.0,False,72.0,5.0,separated,right
58,341.4155,0,437,2761,2975,4263,506,-15.0,200,1,0,342.2221,0,4,735938.428257124,05_12_2014 level23_spatial_Magnum 10_11 log.txt,37.0,37.0,1311,2014-12-05,37.0,False,72.0,5.0,single_speaker,left
61,360.0433,0,936,1551,2975,4263,509,-9.0,200,0,0,360.8982,1,5,735938.428472723,05_12_2014 level23_spatial_Magnum 10_11 log.txt,37.0,37.0,1311,2014-12-05,37.0,False,66.0,-1.0,single_speaker,right
62,363.865,0,437,2761,2975,4263,508,-9.0,200,1,1,366.0301,1,3,735938.428516956,05_12_2014 level23_spatial_Magnum 10_11 log.txt,37.0,37.0,1311,2014-12-05,37.0,False,66.0,-1.0,separated,right
63,367.2057,0,936,1551,2975,4263,504,-6.0,200,0,0,368.0354,1,1,735938.428555622,05_12_2014 level23_spatial_Magnum 10_11 log.txt,37.0,37.0,1311,2014-12-05,37.0,False,63.0,-4.0,colocated,right
64,371.5989,1,437,2761,2975,4263,510,-12.0,200,1,0,373.8335,0,5,735938.428606469,05_12_2014 level23_spatial_Magnum 10_11 log.txt,37.0,37.0,1311,2014-12-05,37.0,False,69.0,2.0,single_speaker,right
66,388.083,0,437,2761,2975,4263,506,-9.0,200,1,0,388.8546,0,5,735938.428797257,05_12_2014 level23_spatial_Magnum 10_11 log.txt,37.0,37.0,1311,2014-12-05,37.0,False,66.0,-1.0,single_speaker,right
69,408.0563,0,936,1551,2975,4263,502,-6.0,200,0,0,408.8242,1,2,735938.429028429,05_12_2014 level23_spatial_Magnum 10_11 log.txt,37.0,37.0,1311,2014-12-05,37.0,False,63.0,-4.0,separated,left
70,412.2541,1,936,1551,2975,4263,510,-6.0,200,0,0,414.8561,1,5,735938.429077015,05_12_2014 level23_spatial_Magnum 10_11 log.txt,37.0,37.0,1311,2014-12-05,37.0,False,63.0,-4.0,single_speaker,right
71,417.6516,1,936,1551,2975,4263,511,-12.0,200,0,0,421.6873,1,3,735938.429139486,05_12_2014 level23_spatial_Magnum 10_11 log.txt,37.0,37.0,1311,2014-12-05,37.0,False,69.0,2.0,separated,right
72,424.7519,1,936,1551,2975,4263,501,-12.0,200,0,0,426.821,1,0,735938.429221665,05_12_2014 level23_spatial_Magnum 10_11 log.txt,37.0,37.0,1311,2014-12-05,37.0,False,69.0,2.0,colocated,left
73,429.8984,0,437,2761,2975,4263,509,-12.0,200,1,1,431.5161,1,3,735938.429281231,05_12_2014 level23_spatial_Magnum 10_11 log.txt,37.0,37.0,1311,2014-12-05,37.0,False,69.0,2.0,separated,right
74,433.9046,0,936,1551,2975,4263,508,-9.0,200,0,1,435.5987,0,1,735938.429327599,05_12_2014 level23_spatial_Magnum 10_11 log.txt,37.0,37.0,1311,2014-12-05,37.0,False,66.0,-1.0,colocated,right
76,450.4124,0,437,2761,2975,4263,503,-9.0,200,1,1,451.6212,1,1,735938.429518662,05_12_2014 level23_spatial_Magnum 10_11 log.txt,37.0,37.0,1311,2014-12-05,37.0,False,66.0,-1.0,colocated,right
77,453.9318,1,437,2761,2975,4263,507,-12.0,200,1,1,456.3662,1,4,735938.429559396,05_12_2014 level23_spatial_Magnum 10_11 log.txt,37.0,37.0,1311,2014-12-05,37.0,False,69.0,2.0,single_speaker,left
78,462.9809,0,936,1551,2975,4263,505,-15.0,200,0,0,463.9641,1,1,735938.429664131,05_12_2014 level23_spatial_Magnum 10_11 log.txt,37.0,37.0,1311,2014-12-05,37.0,False,72.0,5.0,colocated,right
79,468.6263,0,936,1551,2975,4263,511,-15.0,200,0,0,469.4034,1,1,735938.429729471,05_12_2014 level23_spatial_Magnum 10_11 log.txt,37.0,37.0,1311,2014-12-05,37.0,False,72.0,5.0,colocated,right
80,472.6205,1,936,1551,2975,4263,510,-12.0,200,0,0,474.5523,1,4,735938.4297757,05_12_2014 level23_spatial_Magnum 10_11 log.txt,37.0,37.0,1311,2014-12-05,37.0,False,69.0,2.0,single_speaker,left
