Trial,StartTime,CenterReward,F1,F2,F3,F4,HoldTime,Atten,Pitch,Side,Response,RespTime,Correct,SpatialMask,UniversalStartTime,originalFile,LeftTemperature,RightTemperature,fNum,day,meanTemp,treatment,vowel_level,SNR,SpatialCondition,VowelLocation
2,12.4947,1,460,1105,2857,4205,508,2.5,200,0,1,17.768,0,1,736350.350089383,21_01_2016 level23_spatial_Robin 08_23_55.228 log.txt,37.0,37.0,1509,2016-01-21,37.0,False,54.5,-12.5,colocated,right
4,37.378,0,460,1105,2857,4205,507,-9.5,200,0,0,38.7512,1,0,736350.350377384,21_01_2016 level23_spatial_Robin 08_23_55.228 log.txt,37.0,37.0,1509,2016-01-21,37.0,False,66.5,-0.5,colocated,left
15,131.5758,0,730,2058,2857,4205,509,-3.5,200,1,1,137.0217,1,0,736350.351467637,21_01_2016 level23_spatial_Robin 08_23_55.228 log.txt,37.0,37.0,1509,2016-01-21,37.0,False,60.5,-6.5,colocated,left
19,164.8371,0,730,2058,2857,4205,509,2.5,200,1,1,166.5428,1,1,736350.351852605,21_01_2016 level23_spatial_Robin 08_23_55.228 log.txt,37.0,37.0,1509,2016-01-21,37.0,False,54.5,-12.5,colocated,right
20,171.1025,1,460,1105,2857,4205,508,-9.5,200,0,1,174.9826,0,1,736350.351925122,21_01_2016 level23_spatial_Robin 08_23_55.228 log.txt,37.0,37.0,1509,2016-01-21,37.0,False,66.5,-0.5,colocated,right
28,239.0597,1,730,2058,2857,4205,511,-9.5,200,1,1,244.2146,1,1,736350.352711663,21_01_2016 level23_spatial_Robin 08_23_55.228 log.txt,37.0,37.0,1509,2016-01-21,37.0,False,66.5,-0.5,colocated,right
33,280.4023,1,460,1105,2857,4205,510,-0.5,200,0,1,283.7482,0,1,736350.353190165,21_01_2016 level23_spatial_Robin 08_23_55.228 log.txt,37.0,37.0,1509,2016-01-21,37.0,False,57.5,-9.5,colocated,right
43,367.1937,0,460,1105,2857,4205,506,-12.5,200,0,1,369.4726,0,1,736350.354194696,21_01_2016 level23_spatial_Robin 08_23_55.228 log.txt,37.0,37.0,1509,2016-01-21,37.0,False,69.5,2.5,colocated,right
45,382.4891,1,460,1105,2857,4205,502,-12.5,200,0,1,385.9608,0,0,736350.354371726,21_01_2016 level23_spatial_Robin 08_23_55.228 log.txt,37.0,37.0,1509,2016-01-21,37.0,False,69.5,2.5,colocated,left
51,431.7619,1,460,1105,2857,4205,504,2.5,200,0,1,435.6346,0,0,736350.354942013,21_01_2016 level23_spatial_Robin 08_23_55.228 log.txt,37.0,37.0,1509,2016-01-21,37.0,False,54.5,-12.5,colocated,left
53,452.8234,1,730,2058,2857,4205,506,-12.5,200,1,1,456.6165,1,1,736350.35518578,21_01_2016 level23_spatial_Robin 08_23_55.228 log.txt,37.0,37.0,1509,2016-01-21,37.0,False,69.5,2.5,colocated,right
56,480.4076,1,460,1105,2857,4205,507,-0.5,200,0,1,484.3739,0,0,736350.355505042,21_01_2016 level23_spatial_Robin 08_23_55.228 log.txt,37.0,37.0,1509,2016-01-21,37.0,False,57.5,-9.5,colocated,left
60,511.5522,1,460,1105,2857,4205,501,-6.5,200,0,1,515.8089,0,0,736350.355865512,21_01_2016 level23_spatial_Robin 08_23_55.228 log.txt,37.0,37.0,1509,2016-01-21,37.0,False,63.5,-3.5,colocated,left
71,605.9045,1,730,2058,2857,4205,502,2.5,200,1,1,609.4665,1,0,736350.356957552,21_01_2016 level23_spatial_Robin 08_23_55.228 log.txt,37.0,37.0,1509,2016-01-21,37.0,False,54.5,-12.5,colocated,left
22,1378.1769,0,730,2058,2857,4205,502,-3.5,200,1,0,1379.4812,0,1,736350.700751191,21_01_2016 level23_spatial_Robin_cooling 16_26_06.726 log.txt,18.0,18.0,1509,2016-01-21,18.0,True,60.5,-6.5,colocated,right
27,1421.4365,0,460,1105,2857,4205,507,-0.5,200,0,0,1422.8149,1,0,736350.701251881,21_01_2016 level23_spatial_Robin_cooling 16_26_06.726 log.txt,17.0,17.0,1509,2016-01-21,17.0,True,57.5,-9.5,colocated,left
31,1448.2366,0,460,1105,2857,4205,508,-3.5,200,0,1,1449.5803,0,0,736350.701562067,21_01_2016 level23_spatial_Robin_cooling 16_26_06.726 log.txt,16.0,16.0,1509,2016-01-21,16.0,True,60.5,-6.5,colocated,left
35,1497.1301,1,460,1105,2857,4205,509,2.5,200,0,0,1501.8467,1,0,736350.702127964,21_01_2016 level23_spatial_Robin_cooling 16_26_06.726 log.txt,15.0,15.0,1509,2016-01-21,15.0,True,54.5,-12.5,colocated,left
40,1538.5233,1,730,2058,2857,4205,503,-6.5,200,1,0,1542.7451,0,0,736350.702607052,21_01_2016 level23_spatial_Robin_cooling 16_26_06.726 log.txt,14.0,14.0,1509,2016-01-21,14.0,True,63.5,-3.5,colocated,left
43,1568.2064,0,730,2058,2857,4205,510,-0.5,200,1,1,1573.0083,1,1,736350.702950606,21_01_2016 level23_spatial_Robin_cooling 16_26_06.726 log.txt,14.0,14.0,1509,2016-01-21,14.0,True,57.5,-9.5,colocated,right
44,1584.1067,1,730,2058,2857,4205,502,-0.5,200,1,0,1589.3404,0,0,736350.703134638,21_01_2016 level23_spatial_Robin_cooling 16_26_06.726 log.txt,14.0,14.0,1509,2016-01-21,14.0,True,57.5,-9.5,colocated,left
47,1613.9554,0,460,1105,2857,4205,501,2.5,200,0,1,1616.0509,0,1,736350.703480109,21_01_2016 level23_spatial_Robin_cooling 16_26_06.726 log.txt,13.0,13.0,1509,2016-01-21,13.0,True,54.5,-12.5,colocated,right
56,1702.2974,0,730,2058,2857,4205,509,-9.5,200,1,1,1703.9221,1,0,736350.704502586,21_01_2016 level23_spatial_Robin_cooling 16_26_06.726 log.txt,12.0,12.0,1509,2016-01-21,12.0,True,66.5,-0.5,colocated,left
64,1768.5912,0,730,2058,2857,4205,510,-3.5,200,1,1,1770.6017,1,0,736350.705269875,21_01_2016 level23_spatial_Robin_cooling 16_26_06.726 log.txt,11.0,11.0,1509,2016-01-21,11.0,True,60.5,-6.5,colocated,left
67,1795.7023,1,460,1105,2857,4205,508,-6.5,200,0,1,1801.1362,0,0,736350.705583661,21_01_2016 level23_spatial_Robin_cooling 16_26_06.726 log.txt,11.0,11.0,1509,2016-01-21,11.0,True,63.5,-3.5,colocated,left
70,1824.0658,0,730,2058,2857,4205,506,-12.5,200,1,1,1826.6515,1,0,736350.705911942,21_01_2016 level23_spatial_Robin_cooling 16_26_06.726 log.txt,11.0,11.0,1509,2016-01-21,11.0,True,69.5,2.5,colocated,left
72,1842.2768,0,460,1105,2857,4205,507,-9.5,200,0,0,1844.8004,1,1,736350.706122718,21_01_2016 level23_spatial_Robin_cooling 16_26_06.726 log.txt,11.0,11.0,1509,2016-01-21,11.0,True,66.5,-0.5,colocated,right
81,1927.8103,0,730,2058,2857,4205,507,2.5,200,1,1,1929.1193,1,0,736350.707112689,21_01_2016 level23_spatial_Robin_cooling 16_26_06.726 log.txt,10.0,10.0,1509,2016-01-21,10.0,True,54.5,-12.5,colocated,left
82,1933.6049,0,730,2058,2857,4205,502,-6.5,200,1,1,1935.2656,1,1,736350.707179756,21_01_2016 level23_spatial_Robin_cooling 16_26_06.726 log.txt,10.0,10.0,1509,2016-01-21,10.0,True,63.5,-3.5,colocated,right
84,1949.7366,0,730,2058,2857,4205,508,-12.5,200,1,1,1951.6809,1,1,736350.707366465,21_01_2016 level23_spatial_Robin_cooling 16_26_06.726 log.txt,10.0,10.0,1509,2016-01-21,10.0,True,69.5,2.5,colocated,right
86,1967.2993,1,460,1105,2857,4205,511,-3.5,200,0,1,1971.3072,0,1,736350.707569737,21_01_2016 level23_spatial_Robin_cooling 16_26_06.726 log.txt,10.0,10.0,1509,2016-01-21,10.0,True,60.5,-6.5,colocated,right
98,2084.6608,0,460,1105,2857,4205,508,-12.5,200,0,1,2086.1128,0,0,736350.708928088,21_01_2016 level23_spatial_Robin_cooling 16_26_06.726 log.txt,11.0,11.0,1509,2016-01-21,11.0,True,69.5,2.5,colocated,left
101,2117.7083,0,730,2058,2857,4205,506,2.5,200,1,1,2119.2145,1,1,736350.709310582,21_01_2016 level23_spatial_Robin_cooling 16_26_06.726 log.txt,10.0,10.0,1509,2016-01-21,10.0,True,54.5,-12.5,colocated,right
106,2173.9751,1,460,1105,2857,4205,510,-12.5,200,0,0,2177.0188,1,1,736350.709961818,21_01_2016 level23_spatial_Robin_cooling 16_26_06.726 log.txt,10.0,10.0,1509,2016-01-21,10.0,True,69.5,2.5,colocated,right
108,2188.6534,0,460,1105,2857,4205,507,-6.5,200,0,1,2190.9263,0,1,736350.710131706,21_01_2016 level23_spatial_Robin_cooling 16_26_06.726 log.txt,9.0,9.0,1509,2016-01-21,9.0,True,63.5,-3.5,colocated,right
113,2222.8206,0,460,1105,2857,4205,503,-0.5,200,0,0,2224.3647,1,1,736350.71052716,21_01_2016 level23_spatial_Robin_cooling 16_26_06.726 log.txt,9.0,9.0,1509,2016-01-21,9.0,True,57.5,-9.5,colocated,right
1,4.6573,0,460,1105,2857,4205,506,-9.5,200,0,0,8.5738,1,3,736350.349998672,21_01_2016 level23_spatial_Robin 08_23_55.228 log.txt,37.0,37.0,1509,2016-01-21,37.0,False,66.5,-0.5,separated,right
7,56.7437,1,730,2058,2857,4205,511,-3.5,200,1,1,60.7514,1,3,736350.350601524,21_01_2016 level23_spatial_Robin 08_23_55.228 log.txt,37.0,37.0,1509,2016-01-21,37.0,False,60.5,-6.5,separated,right
8,65.3703,1,730,2058,2857,4205,503,-3.5,200,1,0,70.9755,0,2,736350.350701369,21_01_2016 level23_spatial_Robin 08_23_55.228 log.txt,37.0,37.0,1509,2016-01-21,37.0,False,60.5,-6.5,separated,left
13,114.15,0,730,2058,2857,4205,502,-9.5,200,1,0,115.846,0,2,736350.351265949,21_01_2016 level23_spatial_Robin 08_23_55.228 log.txt,37.0,37.0,1509,2016-01-21,37.0,False,66.5,-0.5,separated,left
16,141.6321,1,460,1105,2857,4205,510,-12.5,200,0,1,145.8384,0,3,736350.351584029,21_01_2016 level23_spatial_Robin 08_23_55.228 log.txt,37.0,37.0,1509,2016-01-21,37.0,False,69.5,2.5,separated,right
26,226.5725,0,730,2058,2857,4205,506,-6.5,200,1,1,228.0606,1,2,736350.352567135,21_01_2016 level23_spatial_Robin 08_23_55.228 log.txt,37.0,37.0,1509,2016-01-21,37.0,False,63.5,-3.5,separated,left
29,248.8883,0,460,1105,2857,4205,505,-3.5,200,0,0,251.7732,1,3,736350.35282542,21_01_2016 level23_spatial_Robin 08_23_55.228 log.txt,37.0,37.0,1509,2016-01-21,37.0,False,60.5,-6.5,separated,right
38,323.3949,1,730,2058,2857,4205,503,-0.5,200,1,1,327.8753,1,3,736350.353687765,21_01_2016 level23_spatial_Robin 08_23_55.228 log.txt,37.0,37.0,1509,2016-01-21,37.0,False,57.5,-9.5,separated,right
39,332.8181,0,460,1105,2857,4205,507,-6.5,200,0,1,334.9725,0,2,736350.35379683,21_01_2016 level23_spatial_Robin 08_23_55.228 log.txt,37.0,37.0,1509,2016-01-21,37.0,False,63.5,-3.5,separated,left
41,352.7133,1,460,1105,2857,4205,509,-9.5,200,0,1,358.0077,0,2,736350.354027098,21_01_2016 level23_spatial_Robin 08_23_55.228 log.txt,37.0,37.0,1509,2016-01-21,37.0,False,66.5,-0.5,separated,left
47,396.7636,0,460,1105,2857,4205,501,-3.5,200,0,1,399.3563,0,2,736350.35453694,21_01_2016 level23_spatial_Robin 08_23_55.228 log.txt,37.0,37.0,1509,2016-01-21,37.0,False,60.5,-6.5,separated,left
62,527.363,1,460,1105,2857,4205,511,-0.5,200,0,1,533.1426,0,3,736350.356048507,21_01_2016 level23_spatial_Robin 08_23_55.228 log.txt,37.0,37.0,1509,2016-01-21,37.0,False,57.5,-9.5,separated,right
64,544.9055,0,730,2058,2857,4205,510,-12.5,200,1,1,546.9822,1,2,736350.356251545,21_01_2016 level23_spatial_Robin 08_23_55.228 log.txt,37.0,37.0,1509,2016-01-21,37.0,False,69.5,2.5,separated,left
65,551.3425,1,460,1105,2857,4205,508,-6.5,200,0,1,555.8799,0,3,736350.356326047,21_01_2016 level23_spatial_Robin 08_23_55.228 log.txt,37.0,37.0,1509,2016-01-21,37.0,False,63.5,-3.5,separated,right
68,577.2351,1,730,2058,2857,4205,501,-6.5,200,1,1,581.6565,1,3,736350.35662573,21_01_2016 level23_spatial_Robin 08_23_55.228 log.txt,37.0,37.0,1509,2016-01-21,37.0,False,63.5,-3.5,separated,right
19,1341.7511,0,730,2058,2857,4205,507,-3.5,200,1,1,1343.8812,1,3,736350.700329596,21_01_2016 level23_spatial_Robin_cooling 16_26_06.726 log.txt,19.0,19.0,1509,2016-01-21,19.0,True,60.5,-6.5,separated,right
20,1364.9722,0,460,1105,2857,4205,511,-12.5,200,0,0,1366.6633,1,3,736350.700598359,21_01_2016 level23_spatial_Robin_cooling 16_26_06.726 log.txt,18.0,18.0,1509,2016-01-21,18.0,True,69.5,2.5,separated,right
30,1442.3047,0,460,1105,2857,4205,505,-3.5,200,0,0,1443.6444,1,3,736350.701493411,21_01_2016 level23_spatial_Robin_cooling 16_26_06.726 log.txt,16.0,16.0,1509,2016-01-21,16.0,True,60.5,-6.5,separated,right
33,1479.7328,0,730,2058,2857,4205,510,-12.5,200,1,0,1481.5971,0,3,736350.701926606,21_01_2016 level23_spatial_Robin_cooling 16_26_06.726 log.txt,16.0,16.0,1509,2016-01-21,16.0,True,69.5,2.5,separated,right
36,1506.797,1,460,1105,2857,4205,507,-9.5,200,0,0,1511.0637,1,2,736350.702239849,21_01_2016 level23_spatial_Robin_cooling 16_26_06.726 log.txt,15.0,15.0,1509,2016-01-21,15.0,True,66.5,-0.5,separated,left
37,1515.0447,0,730,2058,2857,4205,504,-9.5,200,1,1,1516.6657,1,3,736350.702335309,21_01_2016 level23_spatial_Robin_cooling 16_26_06.726 log.txt,15.0,15.0,1509,2016-01-21,15.0,True,66.5,-0.5,separated,right
38,1521.3299,0,460,1105,2857,4205,511,-0.5,200,0,1,1523.4041,0,2,736350.702408054,21_01_2016 level23_spatial_Robin_cooling 16_26_06.726 log.txt,14.0,14.0,1509,2016-01-21,14.0,True,57.5,-9.5,separated,left
52,1674.1442,0,730,2058,2857,4205,506,-3.5,200,1,1,1675.8673,1,2,736350.704176738,21_01_2016 level23_spatial_Robin_cooling 16_26_06.726 log.txt,12.0,12.0,1509,2016-01-21,12.0,True,60.5,-6.5,separated,left
57,1716.376,1,460,1105,2857,4205,511,-6.5,200,0,0,1719.7471,1,3,736350.704665532,21_01_2016 level23_spatial_Robin_cooling 16_26_06.726 log.txt,12.0,12.0,1509,2016-01-21,12.0,True,63.5,-3.5,separated,right
60,1739.5973,1,460,1105,2857,4205,503,-6.5,200,0,0,1744.2703,1,2,736350.704934297,21_01_2016 level23_spatial_Robin_cooling 16_26_06.726 log.txt,11.0,11.0,1509,2016-01-21,11.0,True,63.5,-3.5,separated,left
62,1755.1969,0,460,1105,2857,4205,507,-0.5,200,0,1,1758.1203,0,3,736350.705114848,21_01_2016 level23_spatial_Robin_cooling 16_26_06.726 log.txt,11.0,11.0,1509,2016-01-21,11.0,True,57.5,-9.5,separated,right
65,1777.7923,1,730,2058,2857,4205,504,-9.5,200,1,1,1782.621,1,2,736350.705376369,21_01_2016 level23_spatial_Robin_cooling 16_26_06.726 log.txt,11.0,11.0,1509,2016-01-21,11.0,True,66.5,-0.5,separated,left
66,1788.4458,0,460,1105,2857,4205,511,-12.5,200,0,0,1791.1759,1,2,736350.705499674,21_01_2016 level23_spatial_Robin_cooling 16_26_06.726 log.txt,11.0,11.0,1509,2016-01-21,11.0,True,69.5,2.5,separated,left
69,1814.4818,1,730,2058,2857,4205,501,-12.5,200,1,1,1818.8088,1,2,736350.705801016,21_01_2016 level23_spatial_Robin_cooling 16_26_06.726 log.txt,11.0,11.0,1509,2016-01-21,11.0,True,69.5,2.5,separated,left
74,1858.6404,0,730,2058,2857,4205,502,-6.5,200,1,1,1860.6734,1,3,736350.706312111,21_01_2016 level23_spatial_Robin_cooling 16_26_06.726 log.txt,11.0,11.0,1509,2016-01-21,11.0,True,63.5,-3.5,separated,right
77,1890.3504,0,730,2058,2857,4205,504,-6.5,200,1,0,1891.6093,0,2,736350.706679125,21_01_2016 level23_spatial_Robin_cooling 16_26_06.726 log.txt,10.0,10.0,1509,2016-01-21,10.0,True,63.5,-3.5,separated,left
94,2055.1392,0,730,2058,2857,4205,507,-0.5,200,1,1,2056.9868,1,3,736350.708586403,21_01_2016 level23_spatial_Robin_cooling 16_26_06.726 log.txt,11.0,11.0,1509,2016-01-21,11.0,True,57.5,-9.5,separated,right
102,2122.8849,0,730,2058,2857,4205,501,-0.5,200,1,1,2124.8958,1,2,736350.709370497,21_01_2016 level23_spatial_Robin_cooling 16_26_06.726 log.txt,10.0,10.0,1509,2016-01-21,10.0,True,57.5,-9.5,separated,left
110,2201.4873,0,460,1105,2857,4205,505,-9.5,200,0,1,2202.9523,0,3,736350.710280247,21_01_2016 level23_spatial_Robin_cooling 16_26_06.726 log.txt,9.0,9.0,1509,2016-01-21,9.0,True,66.5,-0.5,separated,right
112,2217.3365,0,730,2058,2857,4205,510,-6.5,200,1,1,2218.6797,1,3,736350.710463686,21_01_2016 level23_spatial_Robin_cooling 16_26_06.726 log.txt,9.0,9.0,1509,2016-01-21,9.0,True,63.5,-3.5,separated,right
5,42.521,0,460,1105,2857,4205,505,-12.5,200,0,1,44.426,0,5,736350.35043691,21_01_2016 level23_spatial_Robin 08_23_55.228 log.txt,37.0,37.0,1509,2016-01-21,37.0,False,69.5,2.5,single_speaker,right
10,84.7252,1,730,2058,2857,4205,504,-12.5,200,1,1,91.8277,1,4,736350.350925384,21_01_2016 level23_spatial_Robin 08_23_55.228 log.txt,37.0,37.0,1509,2016-01-21,37.0,False,69.5,2.5,single_speaker,left
11,97.0624,1,730,2058,2857,4205,510,-0.5,200,1,0,101.5787,0,5,736350.351068176,21_01_2016 level23_spatial_Robin 08_23_55.228 log.txt,37.0,37.0,1509,2016-01-21,37.0,False,57.5,-9.5,single_speaker,right
18,157.1587,1,460,1105,2857,4205,504,-0.5,200,0,0,161.1097,1,4,736350.351763735,21_01_2016 level23_spatial_Robin 08_23_55.228 log.txt,37.0,37.0,1509,2016-01-21,37.0,False,57.5,-9.5,single_speaker,left
22,188.3415,1,730,2058,2857,4205,505,-3.5,200,1,1,191.9173,1,5,736350.352124647,21_01_2016 level23_spatial_Robin 08_23_55.228 log.txt,37.0,37.0,1509,2016-01-21,37.0,False,60.5,-6.5,single_speaker,right
23,196.6145,1,730,2058,2857,4205,507,2.5,200,1,1,200.9637,1,4,736350.352220399,21_01_2016 level23_spatial_Robin 08_23_55.228 log.txt,37.0,37.0,1509,2016-01-21,37.0,False,54.5,-12.5,single_speaker,left
24,206.6292,1,460,1105,2857,4205,503,-0.5,200,0,1,210.5968,0,5,736350.35233631,21_01_2016 level23_spatial_Robin 08_23_55.228 log.txt,37.0,37.0,1509,2016-01-21,37.0,False,57.5,-9.5,single_speaker,right
27,232.7696,0,730,2058,2857,4205,502,2.5,200,1,1,234.5652,1,5,736350.352638861,21_01_2016 level23_spatial_Robin 08_23_55.228 log.txt,37.0,37.0,1509,2016-01-21,37.0,False,54.5,-12.5,single_speaker,right
30,255.1404,0,460,1105,2857,4205,511,2.5,200,0,1,256.8924,0,5,736350.352897782,21_01_2016 level23_spatial_Robin 08_23_55.228 log.txt,37.0,37.0,1509,2016-01-21,37.0,False,54.5,-12.5,single_speaker,right
36,303.1472,1,730,2058,2857,4205,508,-3.5,200,1,0,306.9291,0,4,736350.353453417,21_01_2016 level23_spatial_Robin 08_23_55.228 log.txt,37.0,37.0,1509,2016-01-21,37.0,False,60.5,-6.5,single_speaker,left
50,425.2962,0,730,2058,2857,4205,509,-12.5,200,1,1,426.8273,1,5,736350.354867178,21_01_2016 level23_spatial_Robin 08_23_55.228 log.txt,37.0,37.0,1509,2016-01-21,37.0,False,69.5,2.5,single_speaker,right
54,461.5027,0,460,1105,2857,4205,505,-6.5,200,0,1,463.2012,0,5,736350.355286235,21_01_2016 level23_spatial_Robin 08_23_55.228 log.txt,37.0,37.0,1509,2016-01-21,37.0,False,63.5,-3.5,single_speaker,right
59,504.959,0,730,2058,2857,4205,503,-9.5,200,1,1,506.9998,1,4,736350.355789201,21_01_2016 level23_spatial_Robin 08_23_55.228 log.txt,37.0,37.0,1509,2016-01-21,37.0,False,66.5,-0.5,single_speaker,left
67,570.202,1,460,1105,2857,4205,505,-9.5,200,0,0,574.0268,1,5,736350.356544329,21_01_2016 level23_spatial_Robin 08_23_55.228 log.txt,37.0,37.0,1509,2016-01-21,37.0,False,66.5,-0.5,single_speaker,right
69,586.3974,1,460,1105,2857,4205,504,-12.5,200,0,1,591.2914,0,4,736350.356731775,21_01_2016 level23_spatial_Robin 08_23_55.228 log.txt,37.0,37.0,1509,2016-01-21,37.0,False,69.5,2.5,single_speaker,left
72,615.1863,0,460,1105,2857,4205,507,-9.5,200,0,1,616.8898,0,4,736350.35706498,21_01_2016 level23_spatial_Robin 08_23_55.228 log.txt,37.0,37.0,1509,2016-01-21,37.0,False,66.5,-0.5,single_speaker,left
17,1323.305,1,460,1105,2857,4205,509,-12.5,200,0,1,1329.5279,0,4,736350.7001161,21_01_2016 level23_spatial_Robin_cooling 16_26_06.726 log.txt,19.0,19.0,1509,2016-01-21,19.0,True,69.5,2.5,single_speaker,left
21,1372.7055,0,730,2058,2857,4205,506,-0.5,200,1,1,1374.3158,1,5,736350.700687865,21_01_2016 level23_spatial_Robin_cooling 16_26_06.726 log.txt,18.0,18.0,1509,2016-01-21,18.0,True,57.5,-9.5,single_speaker,right
28,1427.4018,0,730,2058,2857,4205,503,-12.5,200,1,1,1428.578,1,4,736350.701320924,21_01_2016 level23_spatial_Robin_cooling 16_26_06.726 log.txt,16.0,16.0,1509,2016-01-21,16.0,True,69.5,2.5,single_speaker,left
29,1434.6491,0,730,2058,2857,4205,504,-6.5,200,1,1,1436.199,1,5,736350.701404804,21_01_2016 level23_spatial_Robin_cooling 16_26_06.726 log.txt,16.0,16.0,1509,2016-01-21,16.0,True,63.5,-3.5,single_speaker,right
51,1668.5684,0,460,1105,2857,4205,508,-3.5,200,0,0,1670.036,1,4,736350.704112204,21_01_2016 level23_spatial_Robin_cooling 16_26_06.726 log.txt,12.0,12.0,1509,2016-01-21,12.0,True,60.5,-6.5,single_speaker,left
53,1680.6581,0,460,1105,2857,4205,502,2.5,200,0,1,1682.645,0,4,736350.704252131,21_01_2016 level23_spatial_Robin_cooling 16_26_06.726 log.txt,12.0,12.0,1509,2016-01-21,12.0,True,54.5,-12.5,single_speaker,left
55,1695.2751,0,730,2058,2857,4205,501,-3.5,200,1,1,1697.1827,1,4,736350.704421309,21_01_2016 level23_spatial_Robin_cooling 16_26_06.726 log.txt,12.0,12.0,1509,2016-01-21,12.0,True,60.5,-6.5,single_speaker,left
58,1724.9632,0,460,1105,2857,4205,508,-6.5,200,0,1,1726.5864,0,5,736350.704764921,21_01_2016 level23_spatial_Robin_cooling 16_26_06.726 log.txt,12.0,12.0,1509,2016-01-21,12.0,True,63.5,-3.5,single_speaker,right
61,1748.4882,0,730,2058,2857,4205,506,-9.5,200,1,1,1750.2136,1,4,736350.705037201,21_01_2016 level23_spatial_Robin_cooling 16_26_06.726 log.txt,11.0,11.0,1509,2016-01-21,11.0,True,66.5,-0.5,single_speaker,left
71,1832.0466,1,730,2058,2857,4205,510,-0.5,200,1,1,1837.1482,1,4,736350.706004312,21_01_2016 level23_spatial_Robin_cooling 16_26_06.726 log.txt,11.0,11.0,1509,2016-01-21,11.0,True,57.5,-9.5,single_speaker,left
73,1852.5082,0,730,2058,2857,4205,505,-9.5,200,1,1,1854.3154,1,5,736350.706241137,21_01_2016 level23_spatial_Robin_cooling 16_26_06.726 log.txt,11.0,11.0,1509,2016-01-21,11.0,True,66.5,-0.5,single_speaker,right
75,1866.5057,0,460,1105,2857,4205,509,-0.5,200,0,0,1867.9665,1,4,736350.706403145,21_01_2016 level23_spatial_Robin_cooling 16_26_06.726 log.txt,11.0,11.0,1509,2016-01-21,11.0,True,57.5,-9.5,single_speaker,left
79,1903.9694,0,730,2058,2857,4205,503,2.5,200,1,1,1906.03,1,4,736350.706836752,21_01_2016 level23_spatial_Robin_cooling 16_26_06.726 log.txt,10.0,10.0,1509,2016-01-21,10.0,True,54.5,-12.5,single_speaker,left
80,1922.5977,0,460,1105,2857,4205,509,-9.5,200,0,0,1924.0644,1,4,736350.707052358,21_01_2016 level23_spatial_Robin_cooling 16_26_06.726 log.txt,10.0,10.0,1509,2016-01-21,10.0,True,66.5,-0.5,single_speaker,left
83,1940.7987,1,730,2058,2857,4205,505,-6.5,200,1,1,1944.671,1,4,736350.707263017,21_01_2016 level23_spatial_Robin_cooling 16_26_06.726 log.txt,10.0,10.0,1509,2016-01-21,10.0,True,63.5,-3.5,single_speaker,left
88,1999.9346,0,460,1105,2857,4205,506,-6.5,200,0,1,2001.8042,0,4,736350.707947461,21_01_2016 level23_spatial_Robin_cooling 16_26_06.726 log.txt,11.0,11.0,1509,2016-01-21,11.0,True,63.5,-3.5,single_speaker,left
90,2017.5056,0,730,2058,2857,4205,504,2.5,200,1,0,2018.7405,0,5,736350.708150829,21_01_2016 level23_spatial_Robin_cooling 16_26_06.726 log.txt,11.0,11.0,1509,2016-01-21,11.0,True,54.5,-12.5,single_speaker,right
93,2048.7735,0,730,2058,2857,4205,511,-3.5,200,1,1,2050.6862,1,5,736350.708512726,21_01_2016 level23_spatial_Robin_cooling 16_26_06.726 log.txt,11.0,11.0,1509,2016-01-21,11.0,True,60.5,-6.5,single_speaker,right
95,2061.3439,0,460,1105,2857,4205,505,-0.5,200,0,1,2063.0372,0,5,736350.708658216,21_01_2016 level23_spatial_Robin_cooling 16_26_06.726 log.txt,11.0,11.0,1509,2016-01-21,11.0,True,57.5,-9.5,single_speaker,right
97,2079.6216,0,460,1105,2857,4205,509,-3.5,200,0,0,2081.1633,1,5,736350.708869764,21_01_2016 level23_spatial_Robin_cooling 16_26_06.726 log.txt,11.0,11.0,1509,2016-01-21,11.0,True,60.5,-6.5,single_speaker,right
103,2139.7814,1,460,1105,2857,4205,503,2.5,200,0,1,2145.4094,0,5,736350.709566058,21_01_2016 level23_spatial_Robin_cooling 16_26_06.726 log.txt,10.0,10.0,1509,2016-01-21,10.0,True,54.5,-12.5,single_speaker,right
107,2180.8502,0,730,2058,2857,4205,504,-12.5,200,1,1,2182.4229,1,5,736350.710041391,21_01_2016 level23_spatial_Robin_cooling 16_26_06.726 log.txt,10.0,10.0,1509,2016-01-21,10.0,True,69.5,2.5,single_speaker,right
114,2231.5595,0,460,1105,2857,4205,508,2.5,200,0,0,2232.6406,1,5,736350.710628304,21_01_2016 level23_spatial_Robin_cooling 16_26_06.726 log.txt,9.0,9.0,1509,2016-01-21,9.0,True,54.5,-12.5,single_speaker,right
115,2239.8565,0,730,2058,2857,4205,509,2.5,200,1,0,2240.7889,0,5,736350.710724334,21_01_2016 level23_spatial_Robin_cooling 16_26_06.726 log.txt,9.0,9.0,1509,2016-01-21,9.0,True,54.5,-12.5,single_speaker,right
3,189.4334,1,730,2058,2857,4205,505,-0.5,200,1,0,194.2113,0,1,736351.372700954,22_01_2016 level23_spatial_Robin 08_53_31.929 log.txt,37.0,37.0,1509,2016-01-22,37.0,False,57.5,-9.5,colocated,right
7,230.6588,1,730,2058,2857,4205,501,-12.5,200,1,1,234.7146,1,0,736351.3731781,22_01_2016 level23_spatial_Robin 08_53_31.929 log.txt,37.0,37.0,1509,2016-01-22,37.0,False,69.5,2.5,colocated,left
15,301.3226,1,460,1105,2857,4205,510,-0.5,200,0,1,303.2452,0,1,736351.373995968,22_01_2016 level23_spatial_Robin 08_53_31.929 log.txt,37.0,37.0,1509,2016-01-22,37.0,False,57.5,-9.5,colocated,right
18,320.9382,1,730,2058,2857,4205,506,-6.5,200,1,1,323.0259,1,0,736351.374223,22_01_2016 level23_spatial_Robin 08_53_31.929 log.txt,37.0,37.0,1509,2016-01-22,37.0,False,63.5,-3.5,colocated,left
20,336.5742,0,460,1105,2857,4205,505,-6.5,200,0,1,338.5269,0,0,736351.374403972,22_01_2016 level23_spatial_Robin 08_53_31.929 log.txt,37.0,37.0,1509,2016-01-22,37.0,False,63.5,-3.5,colocated,left
22,351.2729,0,460,1105,2857,4205,507,-6.5,200,0,0,352.7812,1,1,736351.374574096,22_01_2016 level23_spatial_Robin 08_53_31.929 log.txt,37.0,37.0,1509,2016-01-22,37.0,False,63.5,-3.5,colocated,right
24,363.0637,0,730,2058,2857,4205,504,-12.5,200,1,1,364.6406,1,1,736351.374710564,22_01_2016 level23_spatial_Robin 08_53_31.929 log.txt,37.0,37.0,1509,2016-01-22,37.0,False,69.5,2.5,colocated,right
29,405.0766,1,730,2058,2857,4205,501,-0.5,200,1,0,406.1221,0,0,736351.375196824,22_01_2016 level23_spatial_Robin 08_53_31.929 log.txt,37.0,37.0,1509,2016-01-22,37.0,False,57.5,-9.5,colocated,left
51,538.7525,1,460,1105,2857,4205,509,-12.5,200,0,0,539.9036,1,0,736351.376743999,22_01_2016 level23_spatial_Robin 08_53_31.929 log.txt,37.0,37.0,1509,2016-01-22,37.0,False,69.5,2.5,colocated,left
54,554.3443,1,460,1105,2857,4205,508,-0.5,200,0,1,555.6296,0,0,736351.376924459,22_01_2016 level23_spatial_Robin 08_53_31.929 log.txt,37.0,37.0,1509,2016-01-22,37.0,False,57.5,-9.5,colocated,left
84,761.1453,0,460,1105,2857,4205,508,-12.5,200,0,1,763.8905,0,1,736351.37931799,22_01_2016 level23_spatial_Robin 08_53_31.929 log.txt,37.0,37.0,1509,2016-01-22,37.0,False,69.5,2.5,colocated,right
91,831.4579,0,730,2058,2857,4205,507,-6.5,200,1,1,833.3251,1,1,736351.380131793,22_01_2016 level23_spatial_Robin 08_53_31.929 log.txt,37.0,37.0,1509,2016-01-22,37.0,False,63.5,-3.5,colocated,right
116,1051.3723,1,730,2058,2857,4205,503,-6.5,200,1,1,1055.8449,1,1,736351.382677098,22_01_2016 level23_spatial_Robin 08_53_31.929 log.txt,37.0,37.0,1509,2016-01-22,37.0,False,63.5,-3.5,colocated,right
126,1124.4196,0,460,1105,2857,4205,510,-6.5,200,0,0,1125.9004,1,0,736351.383522553,22_01_2016 level23_spatial_Robin 08_53_31.929 log.txt,37.0,37.0,1509,2016-01-22,37.0,False,63.5,-3.5,colocated,left
28,1058.3658,0,730,2058,2857,4205,510,-12.5,200,1,1,1060.577,1,0,736351.719086468,22_01_2016 level23_spatial_Robin_cooling 16_57_50.705 log.txt,15.0,15.0,1509,2016-01-22,15.0,True,69.5,2.5,colocated,left
32,1089.2024,0,730,2058,2857,4205,501,-6.5,200,1,1,1090.7942,1,0,736351.719443373,22_01_2016 level23_spatial_Robin_cooling 16_57_50.705 log.txt,14.0,14.0,1509,2016-01-22,14.0,True,63.5,-3.5,colocated,left
33,1096.7301,0,730,2058,2857,4205,506,-6.5,200,1,1,1098.4497,1,1,736351.719530499,22_01_2016 level23_spatial_Robin_cooling 16_57_50.705 log.txt,14.0,14.0,1509,2016-01-22,14.0,True,63.5,-3.5,colocated,right
41,1177.458,1,460,1105,2857,4205,503,-6.5,200,0,0,1181.7898,1,0,736351.720464849,22_01_2016 level23_spatial_Robin_cooling 16_57_50.705 log.txt,13.0,13.0,1509,2016-01-22,13.0,True,63.5,-3.5,colocated,left
62,1357.4903,0,460,1105,2857,4205,502,-0.5,200,0,1,1359.8906,0,0,736351.722548557,22_01_2016 level23_spatial_Robin_cooling 16_57_50.705 log.txt,10.0,10.0,1509,2016-01-22,10.0,True,57.5,-9.5,colocated,left
64,1372.3871,1,460,1105,2857,4205,504,-12.5,200,0,1,1377.3408,0,1,736351.722720973,22_01_2016 level23_spatial_Robin_cooling 16_57_50.705 log.txt,10.0,10.0,1509,2016-01-22,10.0,True,69.5,2.5,colocated,right
67,1402.1131,0,460,1105,2857,4205,504,-0.5,200,0,1,1403.9738,0,1,736351.723065024,22_01_2016 level23_spatial_Robin_cooling 16_57_50.705 log.txt,10.0,10.0,1509,2016-01-22,10.0,True,57.5,-9.5,colocated,right
75,1463.5773,0,730,2058,2857,4205,509,-0.5,200,1,1,1466.6572,1,0,736351.723776415,22_01_2016 level23_spatial_Robin_cooling 16_57_50.705 log.txt,9.75461387697861,9.75461387697861,1509,2016-01-22,9.75461387697861,True,57.5,-9.5,colocated,left
76,1472.7694,0,730,2058,2857,4205,507,-12.5,200,1,1,1474.5503,1,1,736351.723882806,22_01_2016 level23_spatial_Robin_cooling 16_57_50.705 log.txt,10.0,10.0,1509,2016-01-22,10.0,True,69.5,2.5,colocated,right
80,1501.9988,0,460,1105,2857,4205,510,-12.5,200,0,1,1504.2712,0,0,736351.724221109,22_01_2016 level23_spatial_Robin_cooling 16_57_50.705 log.txt,10.0,10.0,1509,2016-01-22,10.0,True,69.5,2.5,colocated,left
88,1578.1351,0,460,1105,2857,4205,508,-6.5,200,0,1,1580.8189,0,1,736351.725102316,22_01_2016 level23_spatial_Robin_cooling 16_57_50.705 log.txt,10.0,10.0,1509,2016-01-22,10.0,True,63.5,-3.5,colocated,right
9,254.164,0,460,1105,2857,4205,503,2.5,200,0,0,255.7991,1,3,736351.37345015,22_01_2016 level23_spatial_Robin 08_53_31.929 log.txt,37.0,37.0,1509,2016-01-22,37.0,False,54.5,-12.5,separated,right
10,259.8117,0,730,2058,2857,4205,506,-6.5,200,1,1,261.7434,1,2,736351.373515517,22_01_2016 level23_spatial_Robin 08_53_31.929 log.txt,37.0,37.0,1509,2016-01-22,37.0,False,63.5,-3.5,separated,left
28,393.4812,0,730,2058,2857,4205,502,-6.5,200,1,1,394.8951,1,3,736351.375062618,22_01_2016 level23_spatial_Robin 08_53_31.929 log.txt,37.0,37.0,1509,2016-01-22,37.0,False,63.5,-3.5,separated,right
56,566.7729,1,460,1105,2857,4205,506,-6.5,200,0,0,567.7312,1,3,736351.377068309,22_01_2016 level23_spatial_Robin 08_53_31.929 log.txt,37.0,37.0,1509,2016-01-22,37.0,False,63.5,-3.5,separated,right
59,585.2613,1,730,2058,2857,4205,510,-9.5,200,1,1,586.9077,1,2,736351.377282295,22_01_2016 level23_spatial_Robin 08_53_31.929 log.txt,37.0,37.0,1509,2016-01-22,37.0,False,66.5,-0.5,separated,left
62,604.5091,1,460,1105,2857,4205,504,2.5,200,0,1,606.0388,0,2,736351.377505071,22_01_2016 level23_spatial_Robin 08_53_31.929 log.txt,37.0,37.0,1509,2016-01-22,37.0,False,54.5,-12.5,separated,left
70,651.6292,1,460,1105,2857,4205,504,-9.5,200,0,1,652.9955,0,2,736351.378050442,22_01_2016 level23_spatial_Robin 08_53_31.929 log.txt,37.0,37.0,1509,2016-01-22,37.0,False,66.5,-0.5,separated,left
87,787.3581,1,730,2058,2857,4205,505,2.5,200,1,1,794.8257,1,2,736351.379621378,22_01_2016 level23_spatial_Robin 08_53_31.929 log.txt,37.0,37.0,1509,2016-01-22,37.0,False,54.5,-12.5,separated,left
90,817.72,1,460,1105,2857,4205,501,-9.5,200,0,0,828.1935,1,3,736351.379972789,22_01_2016 level23_spatial_Robin 08_53_31.929 log.txt,37.0,37.0,1509,2016-01-22,37.0,False,66.5,-0.5,separated,right
92,837.3737,0,730,2058,2857,4205,506,2.5,200,1,0,839.4729,0,3,736351.380200263,22_01_2016 level23_spatial_Robin 08_53_31.929 log.txt,37.0,37.0,1509,2016-01-22,37.0,False,54.5,-12.5,separated,right
94,853.2094,1,730,2058,2857,4205,502,-9.5,200,1,1,859.1318,1,3,736351.380383546,22_01_2016 level23_spatial_Robin 08_53_31.929 log.txt,37.0,37.0,1509,2016-01-22,37.0,False,66.5,-0.5,separated,right
97,885.6973,1,460,1105,2857,4205,503,-6.5,200,0,1,892.2816,0,2,736351.380759564,22_01_2016 level23_spatial_Robin 08_53_31.929 log.txt,37.0,37.0,1509,2016-01-22,37.0,False,63.5,-3.5,separated,left
105,951.3255,0,730,2058,2857,4205,505,-9.5,200,1,1,953.7189,1,3,736351.381519149,22_01_2016 level23_spatial_Robin 08_53_31.929 log.txt,37.0,37.0,1509,2016-01-22,37.0,False,66.5,-0.5,separated,right
22,1013.7207,0,730,2058,2857,4205,511,2.5,200,1,1,1016.04,1,3,736351.718569742,22_01_2016 level23_spatial_Robin_cooling 16_57_50.705 log.txt,16.0,16.0,1509,2016-01-22,16.0,True,54.5,-12.5,separated,right
42,1185.1947,1,730,2058,2857,4205,502,2.5,200,1,1,1189.2725,1,2,736351.720554395,22_01_2016 level23_spatial_Robin_cooling 16_57_50.705 log.txt,13.0,13.0,1509,2016-01-22,13.0,True,54.5,-12.5,separated,left
71,1432.3756,1,460,1105,2857,4205,506,2.5,200,0,0,1436.9941,1,3,736351.723415285,22_01_2016 level23_spatial_Robin_cooling 16_57_50.705 log.txt,9.0,9.0,1509,2016-01-22,9.0,True,54.5,-12.5,separated,right
74,1456.178,0,730,2058,2857,4205,505,-9.5,200,1,1,1459.4372,1,2,736351.723690775,22_01_2016 level23_spatial_Robin_cooling 16_57_50.705 log.txt,9.0,9.0,1509,2016-01-22,9.0,True,66.5,-0.5,separated,left
84,1537.0056,1,730,2058,2857,4205,511,-9.5,200,1,0,1541.043,0,3,736351.72462628,22_01_2016 level23_spatial_Robin_cooling 16_57_50.705 log.txt,10.0,10.0,1509,2016-01-22,10.0,True,66.5,-0.5,separated,right
93,1622.0371,0,730,2058,2857,4205,507,-6.5,200,1,1,1626.09,1,2,736351.725610441,22_01_2016 level23_spatial_Robin_cooling 16_57_50.705 log.txt,10.0,10.0,1509,2016-01-22,10.0,True,63.5,-3.5,separated,left
97,1670.6049,1,460,1105,2857,4205,504,-9.5,200,0,0,1673.5253,1,2,736351.726172568,22_01_2016 level23_spatial_Robin_cooling 16_57_50.705 log.txt,10.0,10.0,1509,2016-01-22,10.0,True,66.5,-0.5,separated,left
1,163.0375,1,460,1105,2857,4205,504,-9.5,200,0,1,167.5659,0,5,736351.372395446,22_01_2016 level23_spatial_Robin 08_53_31.929 log.txt,37.0,37.0,1509,2016-01-22,37.0,False,66.5,-0.5,single_speaker,right
5,212.1298,1,460,1105,2857,4205,509,-9.5,200,0,1,217.2757,0,4,736351.372963644,22_01_2016 level23_spatial_Robin 08_53_31.929 log.txt,37.0,37.0,1509,2016-01-22,37.0,False,66.5,-0.5,single_speaker,left
8,244.7839,0,730,2058,2857,4205,507,-3.5,200,1,1,248.2107,1,4,736351.373341584,22_01_2016 level23_spatial_Robin 08_53_31.929 log.txt,37.0,37.0,1509,2016-01-22,37.0,False,60.5,-6.5,single_speaker,left
12,278.0867,0,730,2058,2857,4205,511,-0.5,200,1,1,279.8367,1,4,736351.373727034,22_01_2016 level23_spatial_Robin 08_53_31.929 log.txt,37.0,37.0,1509,2016-01-22,37.0,False,57.5,-9.5,single_speaker,left
14,293.7644,1,730,2058,2857,4205,508,-12.5,200,1,1,295.6798,1,5,736351.373908488,22_01_2016 level23_spatial_Robin 08_53_31.929 log.txt,37.0,37.0,1509,2016-01-22,37.0,False,69.5,2.5,single_speaker,right
19,329.0972,0,730,2058,2857,4205,509,-12.5,200,1,1,330.6675,1,4,736351.374317433,22_01_2016 level23_spatial_Robin 08_53_31.929 log.txt,37.0,37.0,1509,2016-01-22,37.0,False,69.5,2.5,single_speaker,left
26,380.8464,0,460,1105,2857,4205,511,2.5,200,0,0,382.1937,1,4,736351.374916382,22_01_2016 level23_spatial_Robin 08_53_31.929 log.txt,37.0,37.0,1509,2016-01-22,37.0,False,54.5,-12.5,single_speaker,left
32,421.6527,0,730,2058,2857,4205,509,-0.5,200,1,1,422.8256,1,5,736351.375388677,22_01_2016 level23_spatial_Robin 08_53_31.929 log.txt,37.0,37.0,1509,2016-01-22,37.0,False,57.5,-9.5,single_speaker,right
36,445.7936,0,460,1105,2857,4205,508,-6.5,200,0,0,446.6932,1,4,736351.375668086,22_01_2016 level23_spatial_Robin 08_53_31.929 log.txt,37.0,37.0,1509,2016-01-22,37.0,False,63.5,-3.5,single_speaker,left
37,451.0575,0,730,2058,2857,4205,503,-9.5,200,1,1,452.1865,1,5,736351.37572901,22_01_2016 level23_spatial_Robin 08_53_31.929 log.txt,37.0,37.0,1509,2016-01-22,37.0,False,66.5,-0.5,single_speaker,right
42,481.203,0,460,1105,2857,4205,510,-0.5,200,0,0,482.1638,1,4,736351.376077917,22_01_2016 level23_spatial_Robin 08_53_31.929 log.txt,37.0,37.0,1509,2016-01-22,37.0,False,57.5,-9.5,single_speaker,left
43,487.7428,0,730,2058,2857,4205,507,-6.5,200,1,1,488.7046,1,4,736351.376153609,22_01_2016 level23_spatial_Robin 08_53_31.929 log.txt,37.0,37.0,1509,2016-01-22,37.0,False,63.5,-3.5,single_speaker,left
48,517.8066,1,730,2058,2857,4205,504,2.5,200,1,1,519.167,1,4,736351.376501569,22_01_2016 level23_spatial_Robin 08_53_31.929 log.txt,37.0,37.0,1509,2016-01-22,37.0,False,54.5,-12.5,single_speaker,left
49,525.5185,1,730,2058,2857,4205,503,-6.5,200,1,0,526.2415,0,5,736351.376590828,22_01_2016 level23_spatial_Robin 08_53_31.929 log.txt,37.0,37.0,1509,2016-01-22,37.0,False,63.5,-3.5,single_speaker,right
57,575.4042,1,460,1105,2857,4205,502,-12.5,200,0,0,576.4281,1,5,736351.377168208,22_01_2016 level23_spatial_Robin 08_53_31.929 log.txt,37.0,37.0,1509,2016-01-22,37.0,False,69.5,2.5,single_speaker,right
58,580.2967,0,460,1105,2857,4205,507,-3.5,200,0,0,581.4926,1,5,736351.377224835,22_01_2016 level23_spatial_Robin 08_53_31.929 log.txt,37.0,37.0,1509,2016-01-22,37.0,False,60.5,-6.5,single_speaker,right
60,592.5021,1,730,2058,2857,4205,503,-9.5,200,1,1,593.9286,1,4,736351.377366101,22_01_2016 level23_spatial_Robin 08_53_31.929 log.txt,37.0,37.0,1509,2016-01-22,37.0,False,66.5,-0.5,single_speaker,left
61,599.2514,1,460,1105,2857,4205,509,-3.5,200,0,0,600.8051,1,4,736351.377444218,22_01_2016 level23_spatial_Robin 08_53_31.929 log.txt,37.0,37.0,1509,2016-01-22,37.0,False,60.5,-6.5,single_speaker,left
67,633.1055,0,460,1105,2857,4205,511,-6.5,200,0,1,634.8021,0,5,736351.377836047,22_01_2016 level23_spatial_Robin 08_53_31.929 log.txt,37.0,37.0,1509,2016-01-22,37.0,False,63.5,-3.5,single_speaker,right
72,662.3955,1,460,1105,2857,4205,506,-0.5,200,0,0,663.4887,1,5,736351.378175052,22_01_2016 level23_spatial_Robin 08_53_31.929 log.txt,37.0,37.0,1509,2016-01-22,37.0,False,57.5,-9.5,single_speaker,right
73,667.452,0,730,2058,2857,4205,503,-3.5,200,1,1,668.7643,1,5,736351.378233576,22_01_2016 level23_spatial_Robin 08_53_31.929 log.txt,37.0,37.0,1509,2016-01-22,37.0,False,60.5,-6.5,single_speaker,right
74,674.7988,1,460,1105,2857,4205,502,2.5,200,0,1,676.18,0,5,736351.378318609,22_01_2016 level23_spatial_Robin 08_53_31.929 log.txt,37.0,37.0,1509,2016-01-22,37.0,False,54.5,-12.5,single_speaker,right
76,688.6105,1,460,1105,2857,4205,510,-12.5,200,0,0,689.5753,1,4,736351.378478466,22_01_2016 level23_spatial_Robin 08_53_31.929 log.txt,37.0,37.0,1509,2016-01-22,37.0,False,69.5,2.5,single_speaker,left
102,928.0189,0,730,2058,2857,4205,510,2.5,200,1,1,930.4951,1,5,736351.381249397,22_01_2016 level23_spatial_Robin 08_53_31.929 log.txt,37.0,37.0,1509,2016-01-22,37.0,False,54.5,-12.5,single_speaker,right
106,960.2872,0,730,2058,2857,4205,511,-9.5,200,1,1,968.035,1,5,736351.381622873,22_01_2016 level23_spatial_Robin 08_53_31.929 log.txt,37.0,37.0,1509,2016-01-22,37.0,False,66.5,-0.5,single_speaker,right
110,997.9704,1,730,2058,2857,4205,501,-12.5,200,1,0,1002.1605,0,4,736351.382059021,22_01_2016 level23_spatial_Robin 08_53_31.929 log.txt,37.0,37.0,1509,2016-01-22,37.0,False,69.5,2.5,single_speaker,left
119,1074.6126,1,460,1105,2857,4205,503,-9.5,200,0,0,1078.7874,1,5,736351.382946083,22_01_2016 level23_spatial_Robin 08_53_31.929 log.txt,37.0,37.0,1509,2016-01-22,37.0,False,66.5,-0.5,single_speaker,right
124,1113.0648,0,730,2058,2857,4205,509,-3.5,200,1,1,1114.6989,1,4,736351.383391132,22_01_2016 level23_spatial_Robin 08_53_31.929 log.txt,37.0,37.0,1509,2016-01-22,37.0,False,60.5,-6.5,single_speaker,left
125,1118.9912,0,730,2058,2857,4205,504,2.5,200,1,1,1120.5382,1,4,736351.383459725,22_01_2016 level23_spatial_Robin 08_53_31.929 log.txt,37.0,37.0,1509,2016-01-22,37.0,False,54.5,-12.5,single_speaker,left
128,1135.3963,1,460,1105,2857,4205,507,2.5,200,0,1,1141.1799,0,4,736351.383649598,22_01_2016 level23_spatial_Robin 08_53_31.929 log.txt,37.0,37.0,1509,2016-01-22,37.0,False,54.5,-12.5,single_speaker,left
130,1152.2062,1,730,2058,2857,4205,508,-0.5,200,1,1,1157.3731,1,5,736351.383844157,22_01_2016 level23_spatial_Robin 08_53_31.929 log.txt,37.0,37.0,1509,2016-01-22,37.0,False,57.5,-9.5,single_speaker,right
132,1173.1182,1,460,1105,2857,4205,506,-0.5,200,0,0,1176.5019,1,4,736351.384086194,22_01_2016 level23_spatial_Robin 08_53_31.929 log.txt,37.0,37.0,1509,2016-01-22,37.0,False,57.5,-9.5,single_speaker,left
134,1189.1896,1,730,2058,2857,4205,510,-3.5,200,1,0,1193.6657,0,5,736351.384272206,22_01_2016 level23_spatial_Robin 08_53_31.929 log.txt,37.0,37.0,1509,2016-01-22,37.0,False,60.5,-6.5,single_speaker,right
136,1207.0544,1,460,1105,2857,4205,505,-3.5,200,0,0,1210.9899,1,4,736351.384478975,22_01_2016 level23_spatial_Robin 08_53_31.929 log.txt,37.0,37.0,1509,2016-01-22,37.0,False,60.5,-6.5,single_speaker,left
137,1214.1227,1,460,1105,2857,4205,508,-3.5,200,0,1,1217.701,0,5,736351.384560784,22_01_2016 level23_spatial_Robin 08_53_31.929 log.txt,37.0,37.0,1509,2016-01-22,37.0,False,60.5,-6.5,single_speaker,right
13,931.1803,1,730,2058,2857,4205,501,-9.5,200,1,0,935.663,0,5,736351.717614413,22_01_2016 level23_spatial_Robin_cooling 16_57_50.705 log.txt,20.0,20.0,1509,2016-01-22,20.0,True,66.5,-0.5,single_speaker,right
20,997.1888,0,460,1105,2857,4205,506,2.5,200,0,0,998.7804,1,4,736351.7183784,22_01_2016 level23_spatial_Robin_cooling 16_57_50.705 log.txt,17.0,17.0,1509,2016-01-22,17.0,True,54.5,-12.5,single_speaker,left
23,1021.0026,0,730,2058,2857,4205,502,-12.5,200,1,0,1022.8405,0,4,736351.718654023,22_01_2016 level23_spatial_Robin_cooling 16_57_50.705 log.txt,16.0,16.0,1509,2016-01-22,16.0,True,69.5,2.5,single_speaker,left
26,1040.1296,1,730,2058,2857,4205,505,2.5,200,1,1,1044.993,1,4,736351.7188754,22_01_2016 level23_spatial_Robin_cooling 16_57_50.705 log.txt,16.0,16.0,1509,2016-01-22,16.0,True,54.5,-12.5,single_speaker,left
27,1051.1307,0,730,2058,2857,4205,501,2.5,200,1,1,1053.2914,1,5,736351.719002728,22_01_2016 level23_spatial_Robin_cooling 16_57_50.705 log.txt,15.0,15.0,1509,2016-01-22,15.0,True,54.5,-12.5,single_speaker,right
31,1079.5066,1,460,1105,2857,4205,507,-12.5,200,0,0,1084.8574,1,5,736351.719331153,22_01_2016 level23_spatial_Robin_cooling 16_57_50.705 log.txt,14.0,14.0,1509,2016-01-22,14.0,True,69.5,2.5,single_speaker,right
34,1104.4536,1,460,1105,2857,4205,509,-6.5,200,0,1,1109.6559,0,4,736351.719619891,22_01_2016 level23_spatial_Robin_cooling 16_57_50.705 log.txt,14.0,14.0,1509,2016-01-22,14.0,True,63.5,-3.5,single_speaker,left
38,1149.8831,1,730,2058,2857,4205,508,-9.5,200,1,1,1154.5024,1,4,736351.720145696,22_01_2016 level23_spatial_Robin_cooling 16_57_50.705 log.txt,13.0,13.0,1509,2016-01-22,13.0,True,66.5,-0.5,single_speaker,left
46,1220.7442,0,730,2058,2857,4205,510,-6.5,200,1,1,1225.4385,1,4,736351.720965847,22_01_2016 level23_spatial_Robin_cooling 16_57_50.705 log.txt,12.0,12.0,1509,2016-01-22,12.0,True,63.5,-3.5,single_speaker,left
53,1292.6381,1,460,1105,2857,4205,501,-9.5,200,0,0,1296.2109,1,5,736351.721797953,22_01_2016 level23_spatial_Robin_cooling 16_57_50.705 log.txt,12.0,12.0,1509,2016-01-22,12.0,True,66.5,-0.5,single_speaker,right
54,1299.8341,0,460,1105,2857,4205,506,-3.5,200,0,1,1301.4517,0,5,736351.72188124,22_01_2016 level23_spatial_Robin_cooling 16_57_50.705 log.txt,12.0,12.0,1509,2016-01-22,12.0,True,60.5,-6.5,single_speaker,right
57,1316.9722,0,460,1105,2857,4205,511,-9.5,200,0,1,1319.0373,0,4,736351.722079597,22_01_2016 level23_spatial_Robin_cooling 16_57_50.705 log.txt,11.0,11.0,1509,2016-01-22,11.0,True,66.5,-0.5,single_speaker,left
70,1425.6583,0,730,2058,2857,4205,510,-12.5,200,1,1,1428.096,1,5,736351.723337538,22_01_2016 level23_spatial_Robin_cooling 16_57_50.705 log.txt,9.0,9.0,1509,2016-01-22,9.0,True,69.5,2.5,single_speaker,right
72,1441.253,1,460,1105,2857,4205,503,-3.5,200,0,0,1445.533,1,4,736351.723518032,22_01_2016 level23_spatial_Robin_cooling 16_57_50.705 log.txt,9.0,9.0,1509,2016-01-22,9.0,True,60.5,-6.5,single_speaker,left
73,1449.7274,0,730,2058,2857,4205,501,-6.5,200,1,1,1451.3277,1,5,736351.723616116,22_01_2016 level23_spatial_Robin_cooling 16_57_50.705 log.txt,9.0,9.0,1509,2016-01-22,9.0,True,63.5,-3.5,single_speaker,right
78,1488.1823,0,730,2058,2857,4205,503,-0.5,200,1,0,1489.5073,0,5,736351.724061196,22_01_2016 level23_spatial_Robin_cooling 16_57_50.705 log.txt,10.0,10.0,1509,2016-01-22,10.0,True,57.5,-9.5,single_speaker,right
91,1602.742,1,460,1105,2857,4205,509,-0.5,200,0,1,1606.9894,0,4,736351.725387118,22_01_2016 level23_spatial_Robin_cooling 16_57_50.705 log.txt,10.0,10.0,1509,2016-01-22,10.0,True,57.5,-9.5,single_speaker,left
99,1711.8858,1,730,2058,2857,4205,510,-3.5,200,1,0,1715.4821,0,5,736351.726650356,22_01_2016 level23_spatial_Robin_cooling 16_57_50.705 log.txt,10.0,10.0,1509,2016-01-22,10.0,True,60.5,-6.5,single_speaker,right
9,402.4736,0,730,2058,2857,4205,501,2.5,200,1,0,404.1334,0,0,736355.356677681,26_01_2016 level23_spatial_Robin 08_26_54.478 log.txt,37.0,37.0,1509,2016-01-26,37.0,False,54.5,-12.5,colocated,left
17,469.2303,0,730,2058,2857,4205,511,-0.5,200,1,1,471.0442,1,0,736355.357450327,26_01_2016 level23_spatial_Robin 08_26_54.478 log.txt,37.0,37.0,1509,2016-01-26,37.0,False,57.5,-9.5,colocated,left
24,522.1603,1,730,2058,2857,4205,506,2.5,200,1,1,525.8654,1,1,736355.358062943,26_01_2016 level23_spatial_Robin 08_26_54.478 log.txt,37.0,37.0,1509,2016-01-26,37.0,False,54.5,-12.5,colocated,right
27,547.4709,0,460,1105,2857,4205,503,-0.5,200,0,1,548.9842,0,0,736355.35835589,26_01_2016 level23_spatial_Robin 08_26_54.478 log.txt,37.0,37.0,1509,2016-01-26,37.0,False,57.5,-9.5,colocated,left
29,562.6506,1,460,1105,2857,4205,504,-9.5,200,0,1,566.5582,0,0,736355.358531581,26_01_2016 level23_spatial_Robin 08_26_54.478 log.txt,37.0,37.0,1509,2016-01-26,37.0,False,66.5,-0.5,colocated,left
31,577.1569,1,730,2058,2857,4205,509,-9.5,200,1,0,581.4641,0,1,736355.358699478,26_01_2016 level23_spatial_Robin 08_26_54.478 log.txt,37.0,37.0,1509,2016-01-26,37.0,False,66.5,-0.5,colocated,right
35,606.3976,0,730,2058,2857,4205,501,-12.5,200,1,0,607.7076,0,0,736355.359037912,26_01_2016 level23_spatial_Robin 08_26_54.478 log.txt,37.0,37.0,1509,2016-01-26,37.0,False,69.5,2.5,colocated,left
38,630.0289,1,460,1105,2857,4205,506,2.5,200,0,1,633.1532,0,1,736355.359311422,26_01_2016 level23_spatial_Robin 08_26_54.478 log.txt,37.0,37.0,1509,2016-01-26,37.0,False,54.5,-12.5,colocated,right
40,645.1042,1,730,2058,2857,4205,510,-9.5,200,1,1,649.3096,1,0,736355.359485905,26_01_2016 level23_spatial_Robin 08_26_54.478 log.txt,37.0,37.0,1509,2016-01-26,37.0,False,66.5,-0.5,colocated,left
44,681.5637,1,460,1105,2857,4205,507,-6.5,200,0,0,685.6324,1,0,736355.35990789,26_01_2016 level23_spatial_Robin 08_26_54.478 log.txt,37.0,37.0,1509,2016-01-26,37.0,False,63.5,-3.5,colocated,left
56,778.5311,0,460,1105,2857,4205,510,-9.5,200,0,1,780.2237,0,1,736355.361030198,26_01_2016 level23_spatial_Robin 08_26_54.478 log.txt,37.0,37.0,1509,2016-01-26,37.0,False,66.5,-0.5,colocated,right
63,824.3148,0,460,1105,2857,4205,503,-12.5,200,0,1,825.6468,0,1,736355.361560102,26_01_2016 level23_spatial_Robin 08_26_54.478 log.txt,37.0,37.0,1509,2016-01-26,37.0,False,69.5,2.5,colocated,right
65,839.7494,0,730,2058,2857,4205,508,-6.5,200,1,1,841.2429,1,0,736355.361738743,26_01_2016 level23_spatial_Robin 08_26_54.478 log.txt,37.0,37.0,1509,2016-01-26,37.0,False,63.5,-3.5,colocated,left
68,861.1786,1,730,2058,2857,4205,506,-6.5,200,1,1,864.3912,1,1,736355.361986766,26_01_2016 level23_spatial_Robin 08_26_54.478 log.txt,37.0,37.0,1509,2016-01-26,37.0,False,63.5,-3.5,colocated,right
73,893.7508,1,460,1105,2857,4205,502,-3.5,200,0,1,898.1077,0,0,736355.362363759,26_01_2016 level23_spatial_Robin 08_26_54.478 log.txt,37.0,37.0,1509,2016-01-26,37.0,False,60.5,-6.5,colocated,left
75,909.3575,0,460,1105,2857,4205,510,2.5,200,0,1,911.1538,0,0,736355.362544392,26_01_2016 level23_spatial_Robin 08_26_54.478 log.txt,37.0,37.0,1509,2016-01-26,37.0,False,54.5,-12.5,colocated,left
78,928.6521,1,730,2058,2857,4205,511,-12.5,200,1,1,931.8045,1,1,736355.36276771,26_01_2016 level23_spatial_Robin 08_26_54.478 log.txt,37.0,37.0,1509,2016-01-26,37.0,False,69.5,2.5,colocated,right
79,936.2063,1,460,1105,2857,4205,505,-0.5,200,0,0,940.4888,1,1,736355.362855142,26_01_2016 level23_spatial_Robin 08_26_54.478 log.txt,37.0,37.0,1509,2016-01-26,37.0,False,57.5,-9.5,colocated,right
87,1003.7567,0,730,2058,2857,4205,510,-3.5,200,1,1,1005.3055,1,1,736355.363636976,26_01_2016 level23_spatial_Robin 08_26_54.478 log.txt,37.0,37.0,1509,2016-01-26,37.0,False,60.5,-6.5,colocated,right
88,1034.1851,1,730,2058,2857,4205,505,-0.5,200,1,0,1038.6142,0,1,736355.363989156,26_01_2016 level23_spatial_Robin 08_26_54.478 log.txt,37.0,37.0,1509,2016-01-26,37.0,False,57.5,-9.5,colocated,right
24,1003.3706,1,730,2058,2857,4205,509,2.5,200,1,0,1008.0041,0,1,736355.718377055,26_01_2016 level23_spatial_Robin_cooling 16_57_44.407 log.txt,18.1112044296699,18.1112044296699,1509,2016-01-26,18.1112044296699,True,54.5,-12.5,colocated,right
27,1031.3874,1,460,1105,2857,4205,508,-9.5,200,0,0,1036.3308,1,1,736355.718701324,26_01_2016 level23_spatial_Robin_cooling 16_57_44.407 log.txt,18.0,18.0,1509,2016-01-26,18.0,True,66.5,-0.5,colocated,right
30,1054.495,1,460,1105,2857,4205,507,2.5,200,0,0,1057.7043,1,1,736355.718968773,26_01_2016 level23_spatial_Robin_cooling 16_57_44.407 log.txt,17.0,17.0,1509,2016-01-26,17.0,True,54.5,-12.5,colocated,right
42,1146.7106,0,460,1105,2857,4205,511,-6.5,200,0,1,1148.5247,0,1,736355.720036083,26_01_2016 level23_spatial_Robin_cooling 16_57_44.407 log.txt,14.0,14.0,1509,2016-01-26,14.0,True,63.5,-3.5,colocated,right
49,1198.5827,0,730,2058,2857,4205,509,-9.5,200,1,1,1200.0409,1,1,736355.720636455,26_01_2016 level23_spatial_Robin_cooling 16_57_44.407 log.txt,14.0,14.0,1509,2016-01-26,14.0,True,66.5,-0.5,colocated,right
51,1218.1505,0,460,1105,2857,4205,503,-0.5,200,0,0,1219.4808,1,1,736355.720862934,26_01_2016 level23_spatial_Robin_cooling 16_57_44.407 log.txt,13.0,13.0,1509,2016-01-26,13.0,True,57.5,-9.5,colocated,right
52,1236.0747,0,730,2058,2857,4205,501,-12.5,200,1,1,1237.598,1,1,736355.72107039,26_01_2016 level23_spatial_Robin_cooling 16_57_44.407 log.txt,13.0,13.0,1509,2016-01-26,13.0,True,69.5,2.5,colocated,right
64,1330.5507,1,730,2058,2857,4205,510,-0.5,200,1,0,1335.1739,0,0,736355.722163862,26_01_2016 level23_spatial_Robin_cooling 16_57_44.407 log.txt,11.0,11.0,1509,2016-01-26,11.0,True,57.5,-9.5,colocated,left
66,1353.8859,1,730,2058,2857,4205,508,2.5,200,1,0,1358.9607,0,0,736355.722433946,26_01_2016 level23_spatial_Robin_cooling 16_57_44.407 log.txt,11.0,11.0,1509,2016-01-26,11.0,True,54.5,-12.5,colocated,left
72,1397.1613,1,460,1105,2857,4205,508,-12.5,200,0,1,1401.4171,0,0,736355.722934818,26_01_2016 level23_spatial_Robin_cooling 16_57_44.407 log.txt,11.0,11.0,1509,2016-01-26,11.0,True,69.5,2.5,colocated,left
75,1428.6538,0,460,1105,2857,4205,507,-3.5,200,0,0,1430.2763,1,0,736355.723299315,26_01_2016 level23_spatial_Robin_cooling 16_57_44.407 log.txt,11.0,11.0,1509,2016-01-26,11.0,True,60.5,-6.5,colocated,left
76,1437.6408,0,730,2058,2857,4205,509,-3.5,200,1,0,1439.0329,0,1,736355.723403331,26_01_2016 level23_spatial_Robin_cooling 16_57_44.407 log.txt,11.0,11.0,1509,2016-01-26,11.0,True,60.5,-6.5,colocated,right
83,1516.708,0,730,2058,2857,4205,507,-9.5,200,1,1,1518.4044,1,0,736355.724318461,26_01_2016 level23_spatial_Robin_cooling 16_57_44.407 log.txt,10.0,10.0,1509,2016-01-26,10.0,True,66.5,-0.5,colocated,left
91,1612.5315,0,460,1105,2857,4205,505,2.5,200,0,1,1614.4469,0,0,736355.725427529,26_01_2016 level23_spatial_Robin_cooling 16_57_44.407 log.txt,11.0,11.0,1509,2016-01-26,11.0,True,54.5,-12.5,colocated,left
94,1661.515,0,730,2058,2857,4205,511,-0.5,200,1,1,1663.2458,1,1,736355.725994468,26_01_2016 level23_spatial_Robin_cooling 16_57_44.407 log.txt,10.0,10.0,1509,2016-01-26,10.0,True,57.5,-9.5,colocated,right
96,1691.7977,1,730,2058,2857,4205,504,-12.5,200,1,0,1695.6862,0,0,736355.726344962,26_01_2016 level23_spatial_Robin_cooling 16_57_44.407 log.txt,10.0,10.0,1509,2016-01-26,10.0,True,69.5,2.5,colocated,left
98,1731.0317,0,460,1105,2857,4205,510,-12.5,200,0,1,1753.1611,0,1,736355.726799059,26_01_2016 level23_spatial_Robin_cooling 16_57_44.407 log.txt,10.0,10.0,1509,2016-01-26,10.0,True,69.5,2.5,colocated,right
4,355.2041,1,730,2058,2857,4205,507,2.5,200,1,1,362.2466,1,2,736355.35613058,26_01_2016 level23_spatial_Robin 08_26_54.478 log.txt,37.0,37.0,1509,2016-01-26,37.0,False,54.5,-12.5,separated,left
6,379.0039,0,730,2058,2857,4205,503,-9.5,200,1,0,380.1779,0,3,736355.35640604,26_01_2016 level23_spatial_Robin 08_26_54.478 log.txt,37.0,37.0,1509,2016-01-26,37.0,False,66.5,-0.5,separated,right
13,431.6862,1,730,2058,2857,4205,505,-0.5,200,1,0,436.0505,0,2,736355.357015789,26_01_2016 level23_spatial_Robin 08_26_54.478 log.txt,37.0,37.0,1509,2016-01-26,37.0,False,57.5,-9.5,separated,left
15,453.4232,1,460,1105,2857,4205,502,-9.5,200,0,0,457.234,1,3,736355.357267375,26_01_2016 level23_spatial_Robin 08_26_54.478 log.txt,37.0,37.0,1509,2016-01-26,37.0,False,66.5,-0.5,separated,right
23,514.1338,1,460,1105,2857,4205,502,-6.5,200,0,0,517.953,1,2,736355.357970044,26_01_2016 level23_spatial_Robin 08_26_54.478 log.txt,37.0,37.0,1509,2016-01-26,37.0,False,63.5,-3.5,separated,left
34,599.8645,0,730,2058,2857,4205,502,-0.5,200,1,1,601.2864,1,3,736355.358962297,26_01_2016 level23_spatial_Robin 08_26_54.478 log.txt,37.0,37.0,1509,2016-01-26,37.0,False,57.5,-9.5,separated,right
37,622.6877,1,460,1105,2857,4205,505,-6.5,200,0,0,627.0715,1,3,736355.359226455,26_01_2016 level23_spatial_Robin 08_26_54.478 log.txt,37.0,37.0,1509,2016-01-26,37.0,False,63.5,-3.5,separated,right
41,654.1312,1,730,2058,2857,4205,509,-6.5,200,1,1,658.8407,1,3,736355.359590384,26_01_2016 level23_spatial_Robin 08_26_54.478 log.txt,37.0,37.0,1509,2016-01-26,37.0,False,63.5,-3.5,separated,right
42,663.9659,1,730,2058,2857,4205,504,-9.5,200,1,1,669.5655,1,2,736355.359704212,26_01_2016 level23_spatial_Robin 08_26_54.478 log.txt,37.0,37.0,1509,2016-01-26,37.0,False,66.5,-0.5,separated,left
49,721.2607,0,460,1105,2857,4205,506,2.5,200,0,1,728.4374,0,3,736355.360367346,26_01_2016 level23_spatial_Robin 08_26_54.478 log.txt,37.0,37.0,1509,2016-01-26,37.0,False,54.5,-12.5,separated,right
51,737.1153,1,460,1105,2857,4205,504,-3.5,200,0,1,741.3742,0,3,736355.360550848,26_01_2016 level23_spatial_Robin 08_26_54.478 log.txt,37.0,37.0,1509,2016-01-26,37.0,False,60.5,-6.5,separated,right
55,771.9263,0,730,2058,2857,4205,501,-3.5,200,1,1,773.5252,1,2,736355.360953753,26_01_2016 level23_spatial_Robin 08_26_54.478 log.txt,37.0,37.0,1509,2016-01-26,37.0,False,60.5,-6.5,separated,left
60,807.8343,0,460,1105,2857,4205,511,-0.5,200,0,0,809.2629,1,3,736355.361369355,26_01_2016 level23_spatial_Robin 08_26_54.478 log.txt,37.0,37.0,1509,2016-01-26,37.0,False,57.5,-9.5,separated,right
61,812.4377,0,460,1105,2857,4205,511,2.5,200,0,1,814.0152,0,2,736355.361422635,26_01_2016 level23_spatial_Robin 08_26_54.478 log.txt,37.0,37.0,1509,2016-01-26,37.0,False,54.5,-12.5,separated,left
69,869.2118,0,460,1105,2857,4205,501,-0.5,200,0,1,870.7717,0,2,736355.362079743,26_01_2016 level23_spatial_Robin 08_26_54.478 log.txt,37.0,37.0,1509,2016-01-26,37.0,False,57.5,-9.5,separated,left
81,953.5909,0,730,2058,2857,4205,506,-12.5,200,1,1,955.4525,1,3,736355.363056353,26_01_2016 level23_spatial_Robin 08_26_54.478 log.txt,37.0,37.0,1509,2016-01-26,37.0,False,69.5,2.5,separated,right
83,970.1064,1,730,2058,2857,4205,507,-6.5,200,1,0,973.6498,0,2,736355.363247505,26_01_2016 level23_spatial_Robin 08_26_54.478 log.txt,37.0,37.0,1509,2016-01-26,37.0,False,63.5,-3.5,separated,left
85,986.6025,1,460,1105,2857,4205,503,-12.5,200,0,0,989.9552,1,2,736355.363438432,26_01_2016 level23_spatial_Robin 08_26_54.478 log.txt,37.0,37.0,1509,2016-01-26,37.0,False,69.5,2.5,separated,left
21,966.23,1,730,2058,2857,4205,510,-9.5,200,1,0,970.5826,0,3,736355.717947187,26_01_2016 level23_spatial_Robin_cooling 16_57_44.407 log.txt,19.0,19.0,1509,2016-01-26,19.0,True,66.5,-0.5,separated,right
26,1021.7394,1,730,2058,2857,4205,508,-0.5,200,1,1,1026.3765,1,2,736355.718589657,26_01_2016 level23_spatial_Robin_cooling 16_57_44.407 log.txt,18.0,18.0,1509,2016-01-26,18.0,True,57.5,-9.5,separated,left
32,1068.3405,1,460,1105,2857,4205,511,-3.5,200,0,0,1072.3041,1,3,736355.719129022,26_01_2016 level23_spatial_Robin_cooling 16_57_44.407 log.txt,16.0,16.0,1509,2016-01-26,16.0,True,60.5,-6.5,separated,right
33,1075.6538,1,730,2058,2857,4205,509,2.5,200,1,1,1079.5954,1,2,736355.719213667,26_01_2016 level23_spatial_Robin_cooling 16_57_44.407 log.txt,16.0,16.0,1509,2016-01-26,16.0,True,54.5,-12.5,separated,left
34,1084.3342,1,460,1105,2857,4205,510,-9.5,200,0,1,1088.4576,0,2,736355.719314134,26_01_2016 level23_spatial_Robin_cooling 16_57_44.407 log.txt,16.0,16.0,1509,2016-01-26,16.0,True,66.5,-0.5,separated,left
39,1126.1483,0,730,2058,2857,4205,506,-9.5,200,1,1,1128.097,1,2,736355.719798094,26_01_2016 level23_spatial_Robin_cooling 16_57_44.407 log.txt,14.0,14.0,1509,2016-01-26,14.0,True,66.5,-0.5,separated,left
40,1131.8146,0,730,2058,2857,4205,506,-0.5,200,1,1,1133.6652,1,3,736355.719863676,26_01_2016 level23_spatial_Robin_cooling 16_57_44.407 log.txt,14.0,14.0,1509,2016-01-26,14.0,True,57.5,-9.5,separated,right
45,1166.8411,0,730,2058,2857,4205,507,-12.5,200,1,0,1168.741,0,2,736355.720269075,26_01_2016 level23_spatial_Robin_cooling 16_57_44.407 log.txt,14.0,14.0,1509,2016-01-26,14.0,True,69.5,2.5,separated,left
48,1189.3497,0,730,2058,2857,4205,510,-6.5,200,1,1,1191.2526,1,3,736355.720529591,26_01_2016 level23_spatial_Robin_cooling 16_57_44.407 log.txt,14.0,14.0,1509,2016-01-26,14.0,True,63.5,-3.5,separated,right
50,1204.1632,0,730,2058,2857,4205,502,-3.5,200,1,1,1206.1336,1,2,736355.720701044,26_01_2016 level23_spatial_Robin_cooling 16_57_44.407 log.txt,13.0,13.0,1509,2016-01-26,13.0,True,60.5,-6.5,separated,left
53,1242.3022,0,460,1105,2857,4205,503,-0.5,200,0,1,1244.3742,0,2,736355.721142468,26_01_2016 level23_spatial_Robin_cooling 16_57_44.407 log.txt,13.0,13.0,1509,2016-01-26,13.0,True,57.5,-9.5,separated,left
63,1321.4287,1,730,2058,2857,4205,504,-6.5,200,1,1,1326.6566,1,2,736355.722058284,26_01_2016 level23_spatial_Robin_cooling 16_57_44.407 log.txt,11.0,11.0,1509,2016-01-26,11.0,True,63.5,-3.5,separated,left
68,1369.173,1,460,1105,2857,4205,504,-12.5,200,0,0,1372.9412,1,2,736355.72261088,26_01_2016 level23_spatial_Robin_cooling 16_57_44.407 log.txt,11.0,11.0,1509,2016-01-26,11.0,True,69.5,2.5,separated,left
69,1377.3105,0,460,1105,2857,4205,501,-6.5,200,0,1,1379.4956,0,3,736355.722705064,26_01_2016 level23_spatial_Robin_cooling 16_57_44.407 log.txt,11.0,11.0,1509,2016-01-26,11.0,True,63.5,-3.5,separated,right
78,1456.6846,0,460,1105,2857,4205,506,-12.5,200,0,0,1458.3978,1,3,736355.723623745,26_01_2016 level23_spatial_Robin_cooling 16_57_44.407 log.txt,11.0,11.0,1509,2016-01-26,11.0,True,69.5,2.5,separated,right
81,1501.379,1,460,1105,2857,4205,503,-9.5,200,0,1,1506.2,0,3,736355.724141042,26_01_2016 level23_spatial_Robin_cooling 16_57_44.407 log.txt,10.0,10.0,1509,2016-01-26,10.0,True,66.5,-0.5,separated,right
84,1525.7439,0,460,1105,2857,4205,509,-6.5,200,0,1,1527.3288,0,2,736355.724423043,26_01_2016 level23_spatial_Robin_cooling 16_57_44.407 log.txt,10.0,10.0,1509,2016-01-26,10.0,True,63.5,-3.5,separated,left
86,1547.8027,0,730,2058,2857,4205,502,2.5,200,1,1,1551.1598,1,3,736355.724678353,26_01_2016 level23_spatial_Robin_cooling 16_57_44.407 log.txt,10.0,10.0,1509,2016-01-26,10.0,True,54.5,-12.5,separated,right
87,1555.0389,1,730,2058,2857,4205,503,-3.5,200,1,1,1559.6903,1,3,736355.724762105,26_01_2016 level23_spatial_Robin_cooling 16_57_44.407 log.txt,10.0,10.0,1509,2016-01-26,10.0,True,60.5,-6.5,separated,right
1,325.181,0,460,1105,2857,4205,509,-0.5,200,0,1,326.3206,0,5,736355.35578309,26_01_2016 level23_spatial_Robin 08_26_54.478 log.txt,37.0,37.0,1509,2016-01-26,37.0,False,57.5,-9.5,single_speaker,right
5,370.6221,0,460,1105,2857,4205,508,-6.5,200,0,0,372.4885,1,5,736355.356309029,26_01_2016 level23_spatial_Robin 08_26_54.478 log.txt,37.0,37.0,1509,2016-01-26,37.0,False,63.5,-3.5,single_speaker,right
8,395.0824,0,730,2058,2857,4205,504,-6.5,200,1,1,397.1587,1,4,736355.356592134,26_01_2016 level23_spatial_Robin 08_26_54.478 log.txt,37.0,37.0,1509,2016-01-26,37.0,False,63.5,-3.5,single_speaker,left
11,418.4555,1,460,1105,2857,4205,506,-12.5,200,0,0,423.4264,1,5,736355.356862656,26_01_2016 level23_spatial_Robin 08_26_54.478 log.txt,37.0,37.0,1509,2016-01-26,37.0,False,69.5,2.5,single_speaker,right
12,427.1588,0,460,1105,2857,4205,510,-12.5,200,0,0,428.3585,1,4,736355.356963389,26_01_2016 level23_spatial_Robin 08_26_54.478 log.txt,37.0,37.0,1509,2016-01-26,37.0,False,69.5,2.5,single_speaker,left
16,460.8836,1,460,1105,2857,4205,510,-3.5,200,0,0,465.7034,1,5,736355.357353722,26_01_2016 level23_spatial_Robin 08_26_54.478 log.txt,37.0,37.0,1509,2016-01-26,37.0,False,60.5,-6.5,single_speaker,right
18,475.7265,1,730,2058,2857,4205,505,-9.5,200,1,0,481.0586,0,5,736355.357525515,26_01_2016 level23_spatial_Robin 08_26_54.478 log.txt,37.0,37.0,1509,2016-01-26,37.0,False,66.5,-0.5,single_speaker,right
21,502.7722,0,460,1105,2857,4205,507,2.5,200,0,1,504.6238,0,5,736355.357838544,26_01_2016 level23_spatial_Robin 08_26_54.478 log.txt,37.0,37.0,1509,2016-01-26,37.0,False,54.5,-12.5,single_speaker,right
25,530.9122,1,730,2058,2857,4205,508,-3.5,200,1,0,535.3711,0,4,736355.358164238,26_01_2016 level23_spatial_Robin 08_26_54.478 log.txt,37.0,37.0,1509,2016-01-26,37.0,False,60.5,-6.5,single_speaker,left
43,673.69,0,730,2058,2857,4205,511,2.5,200,1,1,675.5096,1,4,736355.359816759,26_01_2016 level23_spatial_Robin 08_26_54.478 log.txt,37.0,37.0,1509,2016-01-26,37.0,False,54.5,-12.5,single_speaker,left
45,688.801,1,730,2058,2857,4205,503,-12.5,200,1,1,692.7773,1,5,736355.359991655,26_01_2016 level23_spatial_Robin 08_26_54.478 log.txt,37.0,37.0,1509,2016-01-26,37.0,False,69.5,2.5,single_speaker,right
46,697.2332,0,460,1105,2857,4205,503,2.5,200,0,1,698.7248,0,4,736355.36008925,26_01_2016 level23_spatial_Robin 08_26_54.478 log.txt,37.0,37.0,1509,2016-01-26,37.0,False,54.5,-12.5,single_speaker,left
48,714.671,1,460,1105,2857,4205,507,-9.5,200,0,0,717.9116,1,4,736355.360291076,26_01_2016 level23_spatial_Robin 08_26_54.478 log.txt,37.0,37.0,1509,2016-01-26,37.0,False,66.5,-0.5,single_speaker,left
53,758.7064,0,460,1105,2857,4205,505,-3.5,200,0,1,760.2614,0,4,736355.360800745,26_01_2016 level23_spatial_Robin 08_26_54.478 log.txt,37.0,37.0,1509,2016-01-26,37.0,False,60.5,-6.5,single_speaker,left
58,792.4654,1,730,2058,2857,4205,508,-3.5,200,1,1,795.887,1,5,736355.361191474,26_01_2016 level23_spatial_Robin 08_26_54.478 log.txt,37.0,37.0,1509,2016-01-26,37.0,False,60.5,-6.5,single_speaker,right
59,800.6332,0,730,2058,2857,4205,509,-12.5,200,1,1,802.4134,1,4,736355.361286009,26_01_2016 level23_spatial_Robin 08_26_54.478 log.txt,37.0,37.0,1509,2016-01-26,37.0,False,69.5,2.5,single_speaker,left
66,845.3912,0,460,1105,2857,4205,505,-9.5,200,0,1,847.5355,0,5,736355.361804042,26_01_2016 level23_spatial_Robin 08_26_54.478 log.txt,37.0,37.0,1509,2016-01-26,37.0,False,66.5,-0.5,single_speaker,right
71,879.796,1,460,1105,2857,4205,509,-0.5,200,0,0,882.4512,1,4,736355.362202245,26_01_2016 level23_spatial_Robin 08_26_54.478 log.txt,37.0,37.0,1509,2016-01-26,37.0,False,57.5,-9.5,single_speaker,left
72,885.4381,1,730,2058,2857,4205,504,2.5,200,1,1,889.2232,1,5,736355.362267547,26_01_2016 level23_spatial_Robin 08_26_54.478 log.txt,37.0,37.0,1509,2016-01-26,37.0,False,54.5,-12.5,single_speaker,right
77,922.3355,1,460,1105,2857,4205,504,-6.5,200,0,0,925.294,1,4,736355.362694601,26_01_2016 level23_spatial_Robin 08_26_54.478 log.txt,37.0,37.0,1509,2016-01-26,37.0,False,63.5,-3.5,single_speaker,left
80,943.7455,1,730,2058,2857,4205,508,-6.5,200,1,1,948.295,1,5,736355.362942402,26_01_2016 level23_spatial_Robin 08_26_54.478 log.txt,37.0,37.0,1509,2016-01-26,37.0,False,63.5,-3.5,single_speaker,right
82,959.6342,1,730,2058,2857,4205,509,-0.5,200,1,1,963.4932,1,4,736355.363126299,26_01_2016 level23_spatial_Robin 08_26_54.478 log.txt,37.0,37.0,1509,2016-01-26,37.0,False,57.5,-9.5,single_speaker,left
86,996.424,1,730,2058,2857,4205,501,-0.5,200,1,1,999.3622,1,5,736355.363552106,26_01_2016 level23_spatial_Robin 08_26_54.478 log.txt,37.0,37.0,1509,2016-01-26,37.0,False,57.5,-9.5,single_speaker,right
20,956.3176,0,460,1105,2857,4205,501,-9.5,200,0,0,961.8511,1,4,736355.717832461,26_01_2016 level23_spatial_Robin_cooling 16_57_44.407 log.txt,20.0,20.0,1509,2016-01-26,20.0,True,66.5,-0.5,single_speaker,left
28,1040.563,0,460,1105,2857,4205,505,-6.5,200,0,1,1042.1559,0,5,736355.718807523,26_01_2016 level23_spatial_Robin_cooling 16_57_44.407 log.txt,17.0,17.0,1509,2016-01-26,17.0,True,63.5,-3.5,single_speaker,right
31,1061.5679,0,730,2058,2857,4205,501,-12.5,200,1,1,1063.4479,1,4,736355.719050635,26_01_2016 level23_spatial_Robin_cooling 16_57_44.407 log.txt,16.0,16.0,1509,2016-01-26,16.0,True,69.5,2.5,single_speaker,left
36,1100.7664,1,460,1105,2857,4205,502,-12.5,200,0,1,1105.5393,0,5,736355.719504322,26_01_2016 level23_spatial_Robin_cooling 16_57_44.407 log.txt,15.0,15.0,1509,2016-01-26,15.0,True,69.5,2.5,single_speaker,right
38,1118.4278,1,460,1105,2857,4205,503,-6.5,200,0,0,1121.7303,1,4,736355.719708736,26_01_2016 level23_spatial_Robin_cooling 16_57_44.407 log.txt,14.0,14.0,1509,2016-01-26,14.0,True,63.5,-3.5,single_speaker,left
41,1138.8274,0,730,2058,2857,4205,504,-6.5,200,1,1,1140.6067,1,4,736355.719944843,26_01_2016 level23_spatial_Robin_cooling 16_57_44.407 log.txt,14.0,14.0,1509,2016-01-26,14.0,True,63.5,-3.5,single_speaker,left
44,1159.8326,0,730,2058,2857,4205,501,-0.5,200,1,1,1161.5772,1,4,736355.720187958,26_01_2016 level23_spatial_Robin_cooling 16_57_44.407 log.txt,14.0,14.0,1509,2016-01-26,14.0,True,57.5,-9.5,single_speaker,left
47,1180.8934,1,460,1105,2857,4205,505,-9.5,200,0,0,1185.8813,1,5,736355.720431718,26_01_2016 level23_spatial_Robin_cooling 16_57_44.407 log.txt,14.0,14.0,1509,2016-01-26,14.0,True,66.5,-0.5,single_speaker,right
56,1265.488,1,730,2058,2857,4205,506,-6.5,200,1,1,1269.7005,1,5,736355.721410822,26_01_2016 level23_spatial_Robin_cooling 16_57_44.407 log.txt,13.0,13.0,1509,2016-01-26,13.0,True,63.5,-3.5,single_speaker,right
57,1273.4247,1,730,2058,2857,4205,511,-12.5,200,1,0,1277.8907,0,5,736355.721502682,26_01_2016 level23_spatial_Robin_cooling 16_57_44.407 log.txt,13.0,13.0,1509,2016-01-26,13.0,True,69.5,2.5,single_speaker,right
59,1290.0847,0,460,1105,2857,4205,505,2.5,200,0,0,1291.5443,1,5,736355.721695506,26_01_2016 level23_spatial_Robin_cooling 16_57_44.407 log.txt,12.5083030748031,12.5083030748031,1509,2016-01-26,12.5083030748031,True,54.5,-12.5,single_speaker,right
60,1294.985,1,460,1105,2857,4205,507,2.5,200,0,1,1298.8184,0,4,736355.721752222,26_01_2016 level23_spatial_Robin_cooling 16_57_44.407 log.txt,12.0,12.0,1509,2016-01-26,12.0,True,54.5,-12.5,single_speaker,left
62,1314.4312,1,460,1105,2857,4205,509,-3.5,200,0,0,1317.3873,1,4,736355.721977294,26_01_2016 level23_spatial_Robin_cooling 16_57_44.407 log.txt,12.0,12.0,1509,2016-01-26,12.0,True,60.5,-6.5,single_speaker,left
71,1389.7412,1,460,1105,2857,4205,502,-3.5,200,0,0,1392.7535,1,5,736355.722848937,26_01_2016 level23_spatial_Robin_cooling 16_57_44.407 log.txt,11.0,11.0,1509,2016-01-26,11.0,True,60.5,-6.5,single_speaker,right
74,1415.2974,1,730,2058,2857,4205,505,-3.5,200,1,1,1418.6688,1,4,736355.723144727,26_01_2016 level23_spatial_Robin_cooling 16_57_44.407 log.txt,11.0,11.0,1509,2016-01-26,11.0,True,60.5,-6.5,single_speaker,left
79,1480.7101,1,460,1105,2857,4205,511,-0.5,200,0,1,1485.793,0,5,736355.723901818,26_01_2016 level23_spatial_Robin_cooling 16_57_44.407 log.txt,11.0,11.0,1509,2016-01-26,11.0,True,57.5,-9.5,single_speaker,right
88,1563.5638,0,730,2058,2857,4205,501,2.5,200,1,0,1564.8265,0,5,736355.724860773,26_01_2016 level23_spatial_Robin_cooling 16_57_44.407 log.txt,10.0,10.0,1509,2016-01-26,10.0,True,54.5,-12.5,single_speaker,right
95,1675.7993,1,460,1105,2857,4205,506,-0.5,200,0,0,1679.3045,1,4,736355.726159795,26_01_2016 level23_spatial_Robin_cooling 16_57_44.407 log.txt,10.0,10.0,1509,2016-01-26,10.0,True,57.5,-9.5,single_speaker,left
8,79.1409,0,730,2058,2857,4205,511,-12.5,200,1,1,80.5448,1,0,736357.378795427,28_01_2016 level23_spatial_Robin 09_04_08.784 log.txt,37.0,37.0,1509,2016-01-28,37.0,False,69.5,2.5,colocated,left
9,89.4421,0,730,2058,2857,4205,506,-9.5,200,1,0,90.5783,0,0,736357.378914654,28_01_2016 level23_spatial_Robin 09_04_08.784 log.txt,37.0,37.0,1509,2016-01-28,37.0,False,66.5,-0.5,colocated,left
17,151.5035,1,460,1105,2857,4205,507,-9.5,200,0,1,155.6292,0,1,736357.379632957,28_01_2016 level23_spatial_Robin 09_04_08.784 log.txt,37.0,37.0,1509,2016-01-28,37.0,False,66.5,-0.5,colocated,right
23,198.4564,1,730,2058,2857,4205,509,-12.5,200,1,1,202.6182,1,1,736357.380176393,28_01_2016 level23_spatial_Robin 09_04_08.784 log.txt,37.0,37.0,1509,2016-01-28,37.0,False,69.5,2.5,colocated,right
27,232.0968,0,460,1105,2857,4205,502,-0.5,200,0,1,233.6194,0,0,736357.38056575,28_01_2016 level23_spatial_Robin 09_04_08.784 log.txt,37.0,37.0,1509,2016-01-28,37.0,False,57.5,-9.5,colocated,left
29,245.1694,1,730,2058,2857,4205,509,-9.5,200,1,1,249.5599,1,1,736357.380717053,28_01_2016 level23_spatial_Robin 09_04_08.784 log.txt,37.0,37.0,1509,2016-01-28,37.0,False,66.5,-0.5,colocated,right
32,271.8693,0,460,1105,2857,4205,508,-6.5,200,0,1,273.3055,0,1,736357.38102608,28_01_2016 level23_spatial_Robin 09_04_08.784 log.txt,37.0,37.0,1509,2016-01-28,37.0,False,63.5,-3.5,colocated,right
34,284.8775,1,730,2058,2857,4205,511,-3.5,200,1,1,288.8089,1,1,736357.381176638,28_01_2016 level23_spatial_Robin 09_04_08.784 log.txt,37.0,37.0,1509,2016-01-28,37.0,False,60.5,-6.5,colocated,right
35,294.6809,1,460,1105,2857,4205,504,2.5,200,0,1,298.6718,0,0,736357.381290103,28_01_2016 level23_spatial_Robin 09_04_08.784 log.txt,37.0,37.0,1509,2016-01-28,37.0,False,54.5,-12.5,colocated,left
39,322.6545,1,730,2058,2857,4205,501,-6.5,200,1,1,327.9787,1,1,736357.381613871,28_01_2016 level23_spatial_Robin 09_04_08.784 log.txt,37.0,37.0,1509,2016-01-28,37.0,False,63.5,-3.5,colocated,right
42,347.7307,0,460,1105,2857,4205,507,-3.5,200,0,1,349.1229,0,1,736357.381904105,28_01_2016 level23_spatial_Robin 09_04_08.784 log.txt,37.0,37.0,1509,2016-01-28,37.0,False,60.5,-6.5,colocated,right
48,393.3085,1,460,1105,2857,4205,511,-6.5,200,0,1,397.046,0,0,736357.382431626,28_01_2016 level23_spatial_Robin 09_04_08.784 log.txt,37.0,37.0,1509,2016-01-28,37.0,False,63.5,-3.5,colocated,left
52,420.849,1,460,1105,2857,4205,502,-12.5,200,0,0,423.6171,1,1,736357.382750382,28_01_2016 level23_spatial_Robin 09_04_08.784 log.txt,37.0,37.0,1509,2016-01-28,37.0,False,69.5,2.5,colocated,right
59,465.93,1,460,1105,2857,4205,508,-3.5,200,0,0,469.7734,1,0,736357.383272153,28_01_2016 level23_spatial_Robin 09_04_08.784 log.txt,37.0,37.0,1509,2016-01-28,37.0,False,60.5,-6.5,colocated,left
60,472.9977,0,460,1105,2857,4205,510,2.5,200,0,1,474.972,0,1,736357.383353955,28_01_2016 level23_spatial_Robin 09_04_08.784 log.txt,37.0,37.0,1509,2016-01-28,37.0,False,54.5,-12.5,colocated,right
64,499.5892,0,730,2058,2857,4205,509,-0.5,200,1,1,501.2072,1,1,736357.383661727,28_01_2016 level23_spatial_Robin 09_04_08.784 log.txt,37.0,37.0,1509,2016-01-28,37.0,False,57.5,-9.5,colocated,right
67,519.6917,1,460,1105,2857,4205,511,-9.5,200,0,1,523.2316,0,0,736357.383894395,28_01_2016 level23_spatial_Robin 09_04_08.784 log.txt,37.0,37.0,1509,2016-01-28,37.0,False,66.5,-0.5,colocated,left
69,534.48,0,730,2058,2857,4205,505,-0.5,200,1,1,535.802,1,0,736357.384065556,28_01_2016 level23_spatial_Robin 09_04_08.784 log.txt,37.0,37.0,1509,2016-01-28,37.0,False,57.5,-9.5,colocated,left
70,540.1113,0,730,2058,2857,4205,501,-3.5,200,1,1,541.719,1,0,736357.384130733,28_01_2016 level23_spatial_Robin 09_04_08.784 log.txt,37.0,37.0,1509,2016-01-28,37.0,False,60.5,-6.5,colocated,left
72,555.3125,1,460,1105,2857,4205,508,-0.5,200,0,0,558.0317,1,1,736357.384306672,28_01_2016 level23_spatial_Robin 09_04_08.784 log.txt,37.0,37.0,1509,2016-01-28,37.0,False,57.5,-9.5,colocated,right
11,1150.3154,0,460,1105,2857,4205,507,-9.5,200,0,0,1151.8275,1,0,736357.699678882,28_01_2016 level23_spatial_Robin_cooling 16_28_21.940 log.txt,20.0,20.0,1509,2016-01-28,20.0,True,66.5,-0.5,colocated,left
17,1204.3695,0,730,2058,2857,4205,501,-3.5,200,1,0,1206.1612,0,1,736357.700304508,28_01_2016 level23_spatial_Robin_cooling 16_28_21.940 log.txt,16.0,16.0,1509,2016-01-28,16.0,True,60.5,-6.5,colocated,right
21,1239.7674,1,730,2058,2857,4205,507,-12.5,200,1,1,1245.1246,1,0,736357.700714206,28_01_2016 level23_spatial_Robin_cooling 16_28_21.940 log.txt,15.0,15.0,1509,2016-01-28,15.0,True,69.5,2.5,colocated,left
22,1249.1284,0,730,2058,2857,4205,503,-6.5,200,1,0,1250.7504,0,0,736357.700822551,28_01_2016 level23_spatial_Robin_cooling 16_28_21.940 log.txt,15.0,15.0,1509,2016-01-28,15.0,True,63.5,-3.5,colocated,left
27,1286.3147,1,460,1105,2857,4205,509,-6.5,200,0,0,1290.3664,1,1,736357.701252948,28_01_2016 level23_spatial_Robin_cooling 16_28_21.940 log.txt,13.0,13.0,1509,2016-01-28,13.0,True,63.5,-3.5,colocated,right
28,1296.4983,1,730,2058,2857,4205,502,-3.5,200,1,1,1300.308,1,0,736357.701370814,28_01_2016 level23_spatial_Robin_cooling 16_28_21.940 log.txt,13.0,13.0,1509,2016-01-28,13.0,True,60.5,-6.5,colocated,left
29,1305.2428,0,730,2058,2857,4205,506,-12.5,200,1,1,1306.7802,1,1,736357.701472023,28_01_2016 level23_spatial_Robin_cooling 16_28_21.940 log.txt,13.0,13.0,1509,2016-01-28,13.0,True,69.5,2.5,colocated,right
33,1339.4546,0,730,2058,2857,4205,509,2.5,200,1,1,1341.0638,1,1,736357.701867993,28_01_2016 level23_spatial_Robin_cooling 16_28_21.940 log.txt,12.0,12.0,1509,2016-01-28,12.0,True,54.5,-12.5,colocated,right
34,1344.7529,0,460,1105,2857,4205,505,-3.5,200,0,0,1346.4398,1,1,736357.701929316,28_01_2016 level23_spatial_Robin_cooling 16_28_21.940 log.txt,12.0,12.0,1509,2016-01-28,12.0,True,60.5,-6.5,colocated,right
37,1368.0908,1,730,2058,2857,4205,510,-9.5,200,1,1,1371.9146,1,1,736357.702199431,28_01_2016 level23_spatial_Robin_cooling 16_28_21.940 log.txt,12.0,12.0,1509,2016-01-28,12.0,True,66.5,-0.5,colocated,right
38,1376.758,1,460,1105,2857,4205,504,-0.5,200,0,0,1380.7303,1,0,736357.702299745,28_01_2016 level23_spatial_Robin_cooling 16_28_21.940 log.txt,12.0,12.0,1509,2016-01-28,12.0,True,57.5,-9.5,colocated,left
39,1384.8296,0,460,1105,2857,4205,507,-12.5,200,0,1,1386.4406,0,1,736357.702393167,28_01_2016 level23_spatial_Robin_cooling 16_28_21.940 log.txt,11.0,11.0,1509,2016-01-28,11.0,True,69.5,2.5,colocated,right
42,1413.111,0,730,2058,2857,4205,504,2.5,200,1,1,1414.571,1,0,736357.702720498,28_01_2016 level23_spatial_Robin_cooling 16_28_21.940 log.txt,11.0,11.0,1509,2016-01-28,11.0,True,54.5,-12.5,colocated,left
43,1420.8131,0,460,1105,2857,4205,506,2.5,200,0,0,1422.2392,1,0,736357.702809642,28_01_2016 level23_spatial_Robin_cooling 16_28_21.940 log.txt,11.0,11.0,1509,2016-01-28,11.0,True,54.5,-12.5,colocated,left
45,1444.0015,0,730,2058,2857,4205,505,-6.5,200,1,1,1445.5112,1,1,736357.703078027,28_01_2016 level23_spatial_Robin_cooling 16_28_21.940 log.txt,10.0,10.0,1509,2016-01-28,10.0,True,63.5,-3.5,colocated,right
51,1520.1232,1,460,1105,2857,4205,510,-12.5,200,0,0,1523.4197,1,0,736357.703959065,28_01_2016 level23_spatial_Robin_cooling 16_28_21.940 log.txt,9.0,9.0,1509,2016-01-28,9.0,True,69.5,2.5,colocated,left
58,1718.8984,0,730,2058,2857,4205,502,-9.5,200,1,0,1747.4642,0,0,736357.706259704,28_01_2016 level23_spatial_Robin_cooling 16_28_21.940 log.txt,10.0,10.0,1509,2016-01-28,10.0,True,66.5,-0.5,colocated,left
3,41.2664,1,460,1105,2857,4205,507,-9.5,200,0,0,45.7651,1,3,736357.378357065,28_01_2016 level23_spatial_Robin 09_04_08.784 log.txt,37.0,37.0,1509,2016-01-28,37.0,False,66.5,-0.5,separated,right
4,48.4912,1,730,2058,2857,4205,501,2.5,200,1,1,52.6465,1,2,736357.378440685,28_01_2016 level23_spatial_Robin 09_04_08.784 log.txt,37.0,37.0,1509,2016-01-28,37.0,False,54.5,-12.5,separated,left
11,106.5708,0,460,1105,2857,4205,504,2.5,200,0,0,107.9137,1,2,736357.379112903,28_01_2016 level23_spatial_Robin 09_04_08.784 log.txt,37.0,37.0,1509,2016-01-28,37.0,False,54.5,-12.5,separated,left
12,111.4813,0,730,2058,2857,4205,510,-6.5,200,1,1,112.8417,1,3,736357.379169737,28_01_2016 level23_spatial_Robin 09_04_08.784 log.txt,37.0,37.0,1509,2016-01-28,37.0,False,63.5,-3.5,separated,right
16,142.8343,1,460,1105,2857,4205,511,-12.5,200,0,0,148.1519,1,3,736357.379532619,28_01_2016 level23_spatial_Robin 09_04_08.784 log.txt,37.0,37.0,1509,2016-01-28,37.0,False,69.5,2.5,separated,right
19,168.9032,1,460,1105,2857,4205,501,-6.5,200,0,1,172.5424,0,2,736357.379834343,28_01_2016 level23_spatial_Robin 09_04_08.784 log.txt,37.0,37.0,1509,2016-01-28,37.0,False,63.5,-3.5,separated,left
21,184.3417,0,730,2058,2857,4205,506,-12.5,200,1,1,186.3517,1,3,736357.380013029,28_01_2016 level23_spatial_Robin 09_04_08.784 log.txt,37.0,37.0,1509,2016-01-28,37.0,False,69.5,2.5,separated,right
24,207.3713,1,460,1105,2857,4205,508,-6.5,200,0,0,211.7238,1,3,736357.380279575,28_01_2016 level23_spatial_Robin 09_04_08.784 log.txt,37.0,37.0,1509,2016-01-28,37.0,False,63.5,-3.5,separated,right
25,214.8903,0,460,1105,2857,4205,504,-0.5,200,0,1,216.7636,0,2,736357.380366601,28_01_2016 level23_spatial_Robin 09_04_08.784 log.txt,37.0,37.0,1509,2016-01-28,37.0,False,57.5,-9.5,separated,left
30,256.4119,1,730,2058,2857,4205,507,-6.5,200,1,1,260.3114,1,2,736357.380847175,28_01_2016 level23_spatial_Robin 09_04_08.784 log.txt,37.0,37.0,1509,2016-01-28,37.0,False,63.5,-3.5,separated,left
37,310.4686,0,460,1105,2857,4205,510,-12.5,200,0,0,311.5377,1,2,736357.381472831,28_01_2016 level23_spatial_Robin 09_04_08.784 log.txt,37.0,37.0,1509,2016-01-28,37.0,False,69.5,2.5,separated,left
38,314.8285,1,730,2058,2857,4205,503,-12.5,200,1,1,318.3095,1,2,736357.381523293,28_01_2016 level23_spatial_Robin 09_04_08.784 log.txt,37.0,37.0,1509,2016-01-28,37.0,False,69.5,2.5,separated,left
51,415.9312,0,460,1105,2857,4205,508,-9.5,200,0,0,417.4742,1,2,736357.382693463,28_01_2016 level23_spatial_Robin 09_04_08.784 log.txt,37.0,37.0,1509,2016-01-28,37.0,False,66.5,-0.5,separated,left
58,459.1878,0,730,2058,2857,4205,504,2.5,200,1,1,460.5892,1,3,736357.383194118,28_01_2016 level23_spatial_Robin 09_04_08.784 log.txt,37.0,37.0,1509,2016-01-28,37.0,False,54.5,-12.5,separated,right
63,493.2637,1,460,1105,2857,4205,501,-0.5,200,0,0,496.4678,1,3,736357.383588515,28_01_2016 level23_spatial_Robin 09_04_08.784 log.txt,37.0,37.0,1509,2016-01-28,37.0,False,57.5,-9.5,separated,right
75,579.2998,1,730,2058,2857,4205,509,-3.5,200,1,1,583.2347,1,3,736357.384584303,28_01_2016 level23_spatial_Robin 09_04_08.784 log.txt,37.0,37.0,1509,2016-01-28,37.0,False,60.5,-6.5,separated,right
79,624.4422,0,730,2058,2857,4205,507,-0.5,200,1,1,625.7675,1,3,736357.385106785,28_01_2016 level23_spatial_Robin 09_04_08.784 log.txt,37.0,37.0,1509,2016-01-28,37.0,False,57.5,-9.5,separated,right
80,629.4365,1,730,2058,2857,4205,503,-9.5,200,1,0,632.4525,0,2,736357.385164589,28_01_2016 level23_spatial_Robin 09_04_08.784 log.txt,37.0,37.0,1509,2016-01-28,37.0,False,66.5,-0.5,separated,left
83,668.4772,0,730,2058,2857,4205,506,-0.5,200,1,0,669.6054,0,2,736357.385616449,28_01_2016 level23_spatial_Robin 09_04_08.784 log.txt,37.0,37.0,1509,2016-01-28,37.0,False,57.5,-9.5,separated,left
9,1134.8327,1,730,2058,2857,4205,506,-9.5,200,1,0,1138.7433,0,3,736357.699499684,28_01_2016 level23_spatial_Robin_cooling 16_28_21.940 log.txt,20.0,20.0,1509,2016-01-28,20.0,True,66.5,-0.5,separated,right
14,1175.965,0,730,2058,2857,4205,502,2.5,200,1,0,1177.6407,0,3,736357.699975752,28_01_2016 level23_spatial_Robin_cooling 16_28_21.940 log.txt,18.0,18.0,1509,2016-01-28,18.0,True,54.5,-12.5,separated,right
19,1221.6884,1,460,1105,2857,4205,510,-9.5,200,0,0,1226.0323,1,2,736357.700504958,28_01_2016 level23_spatial_Robin_cooling 16_28_21.940 log.txt,16.0,16.0,1509,2016-01-28,16.0,True,66.5,-0.5,separated,left
20,1231.9415,1,730,2058,2857,4205,511,-0.5,200,1,1,1235.5365,1,2,736357.700623628,28_01_2016 level23_spatial_Robin_cooling 16_28_21.940 log.txt,15.0,15.0,1509,2016-01-28,15.0,True,57.5,-9.5,separated,left
25,1270.2028,1,730,2058,2857,4205,506,-12.5,200,1,1,1274.5399,1,2,736357.701066468,28_01_2016 level23_spatial_Robin_cooling 16_28_21.940 log.txt,14.0,14.0,1509,2016-01-28,14.0,True,69.5,2.5,separated,left
30,1319.5025,0,460,1105,2857,4205,508,2.5,200,0,1,1323.4589,0,2,736357.701637066,28_01_2016 level23_spatial_Robin_cooling 16_28_21.940 log.txt,13.0,13.0,1509,2016-01-28,13.0,True,54.5,-12.5,separated,left
44,1438.9754,0,460,1105,2857,4205,502,-3.5,200,0,0,1440.3294,1,3,736357.703019854,28_01_2016 level23_spatial_Robin_cooling 16_28_21.940 log.txt,10.0,10.0,1509,2016-01-28,10.0,True,60.5,-6.5,separated,right
55,1582.1752,0,460,1105,2857,4205,511,-9.5,200,0,1,1585.1566,0,3,736357.704677259,28_01_2016 level23_spatial_Robin_cooling 16_28_21.940 log.txt,9.0,9.0,1509,2016-01-28,9.0,True,66.5,-0.5,separated,right
57,1658.106,1,460,1105,2857,4205,509,2.5,200,0,0,1661.9256,1,3,736357.705556088,28_01_2016 level23_spatial_Robin_cooling 16_28_21.940 log.txt,10.0,10.0,1509,2016-01-28,10.0,True,54.5,-12.5,separated,right
1,24.2132,1,460,1105,2857,4205,505,2.5,200,0,0,26.2918,1,4,736357.37815969,28_01_2016 level23_spatial_Robin 09_04_08.784 log.txt,37.0,37.0,1509,2016-01-28,37.0,False,54.5,-12.5,single_speaker,left
2,28.7823,0,730,2058,2857,4205,508,-0.5,200,1,1,32.2058,1,5,736357.378212573,28_01_2016 level23_spatial_Robin 09_04_08.784 log.txt,37.0,37.0,1509,2016-01-28,37.0,False,57.5,-9.5,single_speaker,right
5,58.2567,1,460,1105,2857,4205,503,-6.5,200,0,0,62.1825,1,5,736357.378553712,28_01_2016 level23_spatial_Robin 09_04_08.784 log.txt,37.0,37.0,1509,2016-01-28,37.0,False,63.5,-3.5,single_speaker,right
6,65.8565,1,460,1105,2857,4205,502,2.5,200,0,1,69.8334,0,5,736357.378641672,28_01_2016 level23_spatial_Robin 09_04_08.784 log.txt,37.0,37.0,1509,2016-01-28,37.0,False,54.5,-12.5,single_speaker,right
13,118.3338,0,730,2058,2857,4205,502,-12.5,200,1,0,119.6888,0,5,736357.379249049,28_01_2016 level23_spatial_Robin 09_04_08.784 log.txt,37.0,37.0,1509,2016-01-28,37.0,False,69.5,2.5,single_speaker,right
15,133.9194,0,730,2058,2857,4205,503,-12.5,200,1,1,135.2279,1,4,736357.379429437,28_01_2016 level23_spatial_Robin 09_04_08.784 log.txt,37.0,37.0,1509,2016-01-28,37.0,False,69.5,2.5,single_speaker,left
22,191.7635,1,460,1105,2857,4205,505,-3.5,200,0,0,195.3117,1,4,736357.380098929,28_01_2016 level23_spatial_Robin 09_04_08.784 log.txt,37.0,37.0,1509,2016-01-28,37.0,False,60.5,-6.5,single_speaker,left
31,266.8458,0,460,1105,2857,4205,506,-0.5,200,0,0,268.7125,1,4,736357.380967937,28_01_2016 level23_spatial_Robin 09_04_08.784 log.txt,37.0,37.0,1509,2016-01-28,37.0,False,57.5,-9.5,single_speaker,left
40,332.3645,1,460,1105,2857,4205,504,-12.5,200,0,0,336.0677,1,5,736357.381726256,28_01_2016 level23_spatial_Robin 09_04_08.784 log.txt,37.0,37.0,1509,2016-01-28,37.0,False,69.5,2.5,single_speaker,right
41,340.3262,1,460,1105,2857,4205,501,-6.5,200,0,0,343.7498,1,4,736357.381818405,28_01_2016 level23_spatial_Robin 09_04_08.784 log.txt,37.0,37.0,1509,2016-01-28,37.0,False,63.5,-3.5,single_speaker,left
44,361.7374,0,730,2058,2857,4205,509,-6.5,200,1,1,363.3528,1,4,736357.38206622,28_01_2016 level23_spatial_Robin 09_04_08.784 log.txt,37.0,37.0,1509,2016-01-28,37.0,False,63.5,-3.5,single_speaker,left
45,369.0362,1,730,2058,2857,4205,505,2.5,200,1,0,373.0313,0,4,736357.382150697,28_01_2016 level23_spatial_Robin 09_04_08.784 log.txt,37.0,37.0,1509,2016-01-28,37.0,False,54.5,-12.5,single_speaker,left
50,410.558,0,460,1105,2857,4205,506,-12.5,200,0,0,411.8742,1,4,736357.382631273,28_01_2016 level23_spatial_Robin 09_04_08.784 log.txt,37.0,37.0,1509,2016-01-28,37.0,False,69.5,2.5,single_speaker,left
53,427.2101,0,730,2058,2857,4205,510,2.5,200,1,1,428.379,1,5,736357.382824006,28_01_2016 level23_spatial_Robin 09_04_08.784 log.txt,37.0,37.0,1509,2016-01-28,37.0,False,54.5,-12.5,single_speaker,right
54,432.4883,0,460,1105,2857,4205,502,-9.5,200,0,1,433.8942,0,5,736357.382885096,28_01_2016 level23_spatial_Robin 09_04_08.784 log.txt,37.0,37.0,1509,2016-01-28,37.0,False,66.5,-0.5,single_speaker,right
57,453.5886,0,730,2058,2857,4205,507,-9.5,200,1,1,455.0198,1,5,736357.383129312,28_01_2016 level23_spatial_Robin 09_04_08.784 log.txt,37.0,37.0,1509,2016-01-28,37.0,False,66.5,-0.5,single_speaker,right
65,505.3108,0,460,1105,2857,4205,503,-0.5,200,0,1,506.7705,0,5,736357.383727949,28_01_2016 level23_spatial_Robin 09_04_08.784 log.txt,37.0,37.0,1509,2016-01-28,37.0,False,57.5,-9.5,single_speaker,right
71,546.0537,0,460,1105,2857,4205,511,-9.5,200,0,0,547.1296,1,4,736357.38419951,28_01_2016 level23_spatial_Robin 09_04_08.784 log.txt,37.0,37.0,1509,2016-01-28,37.0,False,66.5,-0.5,single_speaker,left
73,561.3803,1,730,2058,2857,4205,505,-3.5,200,1,1,564.3124,1,4,736357.384376902,28_01_2016 level23_spatial_Robin 09_04_08.784 log.txt,37.0,37.0,1509,2016-01-28,37.0,False,60.5,-6.5,single_speaker,left
74,573.3526,0,730,2058,2857,4205,510,-0.5,200,1,1,575.3967,1,4,736357.38451547,28_01_2016 level23_spatial_Robin 09_04_08.784 log.txt,37.0,37.0,1509,2016-01-28,37.0,False,57.5,-9.5,single_speaker,left
76,587.2636,1,730,2058,2857,4205,506,-9.5,200,1,0,590.1455,0,4,736357.384676477,28_01_2016 level23_spatial_Robin 09_04_08.784 log.txt,37.0,37.0,1509,2016-01-28,37.0,False,66.5,-0.5,single_speaker,left
82,646.5042,1,730,2058,2857,4205,502,-3.5,200,1,1,650.5122,1,5,736357.385362132,28_01_2016 level23_spatial_Robin 09_04_08.784 log.txt,37.0,37.0,1509,2016-01-28,37.0,False,60.5,-6.5,single_speaker,right
12,1156.3084,1,730,2058,2857,4205,510,-0.5,200,1,1,1161.8528,1,5,736357.699748245,28_01_2016 level23_spatial_Robin_cooling 16_28_21.940 log.txt,20.0,20.0,1509,2016-01-28,20.0,True,57.5,-9.5,single_speaker,right
13,1166.2308,1,730,2058,2857,4205,508,-9.5,200,1,1,1171.2955,1,5,736357.699863088,28_01_2016 level23_spatial_Robin_cooling 16_28_21.940 log.txt,18.0,18.0,1509,2016-01-28,18.0,True,66.5,-0.5,single_speaker,right
26,1278.78,0,730,2058,2857,4205,505,-6.5,200,1,1,1280.5458,1,4,736357.701165741,28_01_2016 level23_spatial_Robin_cooling 16_28_21.940 log.txt,14.0,14.0,1509,2016-01-28,14.0,True,63.5,-3.5,single_speaker,left
35,1355.7344,1,460,1105,2857,4205,511,-9.5,200,0,0,1358.6477,1,4,736357.702056417,28_01_2016 level23_spatial_Robin_cooling 16_28_21.940 log.txt,12.0,12.0,1509,2016-01-28,12.0,True,66.5,-0.5,single_speaker,left
36,1363.2732,0,460,1105,2857,4205,503,-12.5,200,0,0,1364.5919,1,4,736357.702143671,28_01_2016 level23_spatial_Robin_cooling 16_28_21.940 log.txt,12.0,12.0,1509,2016-01-28,12.0,True,69.5,2.5,single_speaker,left
46,1458.8363,1,460,1105,2857,4205,501,-6.5,200,0,1,1463.469,0,5,736357.703249726,28_01_2016 level23_spatial_Robin_cooling 16_28_21.940 log.txt,10.0,10.0,1509,2016-01-28,10.0,True,63.5,-3.5,single_speaker,right
49,1492.1782,0,730,2058,2857,4205,503,-3.5,200,1,0,1493.9359,0,5,736357.703635627,28_01_2016 level23_spatial_Robin_cooling 16_28_21.940 log.txt,10.0,10.0,1509,2016-01-28,10.0,True,60.5,-6.5,single_speaker,right
52,1535.7875,1,460,1105,2857,4205,508,-3.5,200,0,1,1539.74,0,5,736357.704140365,28_01_2016 level23_spatial_Robin_cooling 16_28_21.940 log.txt,9.0,9.0,1509,2016-01-28,9.0,True,60.5,-6.5,single_speaker,right
1,11.1754,0,460,1105,2857,4205,510,2.5,200,0,0,11.2266,1,0,736364.350532065,04_02_2016 level23_spatial_Robin 08_24_34.795 log.txt,37.0,37.0,1509,2016-02-04,37.0,False,54.5,-12.5,colocated,left
15,99.2138,1,730,2058,2857,4205,505,2.5,200,1,0,99.2488,0,0,736364.351551028,04_02_2016 level23_spatial_Robin 08_24_34.795 log.txt,37.0,37.0,1509,2016-02-04,37.0,False,54.5,-12.5,colocated,left
17,109.8322,0,460,1105,2857,4205,511,-9.5,200,0,0,110.797,1,1,736364.351673926,04_02_2016 level23_spatial_Robin 08_24_34.795 log.txt,37.0,37.0,1509,2016-02-04,37.0,False,66.5,-0.5,colocated,right
19,122.7154,0,460,1105,2857,4205,501,-0.5,200,0,1,123.9789,0,0,736364.351823037,04_02_2016 level23_spatial_Robin 08_24_34.795 log.txt,37.0,37.0,1509,2016-02-04,37.0,False,57.5,-9.5,colocated,left
22,150.8068,1,730,2058,2857,4205,504,-6.5,200,1,0,154.8899,0,1,736364.352148169,04_02_2016 level23_spatial_Robin 08_24_34.795 log.txt,37.0,37.0,1509,2016-02-04,37.0,False,63.5,-3.5,colocated,right
34,263.5754,0,460,1105,2857,4205,509,-3.5,200,0,0,264.4592,1,1,736364.353453361,04_02_2016 level23_spatial_Robin 08_24_34.795 log.txt,37.0,37.0,1509,2016-02-04,37.0,False,60.5,-6.5,colocated,right
37,284.1459,0,460,1105,2857,4205,511,-9.5,200,0,0,284.948,1,0,736364.353691446,04_02_2016 level23_spatial_Robin 08_24_34.795 log.txt,37.0,37.0,1509,2016-02-04,37.0,False,66.5,-0.5,colocated,left
38,289.2088,0,460,1105,2857,4205,504,-0.5,200,0,0,289.2494,1,1,736364.353750044,04_02_2016 level23_spatial_Robin 08_24_34.795 log.txt,37.0,37.0,1509,2016-02-04,37.0,False,57.5,-9.5,colocated,right
43,328.6902,1,730,2058,2857,4205,506,-9.5,200,1,0,333.1649,0,1,736364.354207005,04_02_2016 level23_spatial_Robin 08_24_34.795 log.txt,37.0,37.0,1509,2016-02-04,37.0,False,66.5,-0.5,colocated,right
51,408.8341,1,730,2058,2857,4205,511,-3.5,200,1,1,413.3239,1,0,736364.355134596,04_02_2016 level23_spatial_Robin 08_24_34.795 log.txt,37.0,37.0,1509,2016-02-04,37.0,False,60.5,-6.5,colocated,left
54,442.8767,1,460,1105,2857,4205,502,-3.5,200,0,0,447.3217,1,0,736364.355528608,04_02_2016 level23_spatial_Robin 08_24_34.795 log.txt,37.0,37.0,1509,2016-02-04,37.0,False,60.5,-6.5,colocated,left
67,555.9438,1,460,1105,2857,4205,508,-6.5,200,0,0,560.0416,1,1,736364.356837255,04_02_2016 level23_spatial_Robin 08_24_34.795 log.txt,37.0,37.0,1509,2016-02-04,37.0,False,63.5,-3.5,colocated,right
70,585.4515,0,460,1105,2857,4205,503,2.5,200,0,0,586.5958,1,1,736364.357178779,04_02_2016 level23_spatial_Robin 08_24_34.795 log.txt,37.0,37.0,1509,2016-02-04,37.0,False,54.5,-12.5,colocated,right
73,608.5988,0,730,2058,2857,4205,505,-0.5,200,1,1,609.9887,1,0,736364.357446688,04_02_2016 level23_spatial_Robin 08_24_34.795 log.txt,37.0,37.0,1509,2016-02-04,37.0,False,57.5,-9.5,colocated,left
75,621.0861,0,460,1105,2857,4205,502,-12.5,200,0,0,622.0975,1,1,736364.357591216,04_02_2016 level23_spatial_Robin 08_24_34.795 log.txt,37.0,37.0,1509,2016-02-04,37.0,False,69.5,2.5,colocated,right
77,630.4254,0,730,2058,2857,4205,502,2.5,200,1,1,631.7003,1,1,736364.35769931,04_02_2016 level23_spatial_Robin 08_24_34.795 log.txt,37.0,37.0,1509,2016-02-04,37.0,False,54.5,-12.5,colocated,right
82,660.9378,0,460,1105,2857,4205,503,-6.5,200,0,1,662.3411,0,0,736364.358052463,04_02_2016 level23_spatial_Robin 08_24_34.795 log.txt,37.0,37.0,1509,2016-02-04,37.0,False,63.5,-3.5,colocated,left
87,702.2858,0,730,2058,2857,4205,509,-9.5,200,1,1,703.9477,1,0,736364.358531028,04_02_2016 level23_spatial_Robin 08_24_34.795 log.txt,37.0,37.0,1509,2016-02-04,37.0,False,66.5,-0.5,colocated,left
89,715.2413,0,730,2058,2857,4205,501,-12.5,200,1,0,716.1842,0,0,736364.358680976,04_02_2016 level23_spatial_Robin 08_24_34.795 log.txt,37.0,37.0,1509,2016-02-04,37.0,False,69.5,2.5,colocated,left
93,760.5743,1,730,2058,2857,4205,502,-12.5,200,1,0,764.0037,0,1,736364.359205663,04_02_2016 level23_spatial_Robin 08_24_34.795 log.txt,37.0,37.0,1509,2016-02-04,37.0,False,69.5,2.5,colocated,right
13,909.0741,0,730,2058,2857,4205,501,-0.5,200,1,0,910.9558,0,0,736364.696620973,04_02_2016 level23_spatial_Robin_cooling 16_27_58.978 log.txt,20.0,20.0,1509,2016-02-04,20.0,True,57.5,-9.5,colocated,left
18,957.9148,0,460,1105,2857,4205,503,-0.5,200,0,0,959.2042,1,1,736364.697186259,04_02_2016 level23_spatial_Robin_cooling 16_27_58.978 log.txt,18.0,18.0,1509,2016-02-04,18.0,True,57.5,-9.5,colocated,right
19,963.3265,1,730,2058,2857,4205,506,-12.5,200,1,1,976.0667,1,1,736364.697248895,04_02_2016 level23_spatial_Robin_cooling 16_27_58.978 log.txt,18.0,18.0,1509,2016-02-04,18.0,True,69.5,2.5,colocated,right
20,982.8153,0,460,1105,2857,4205,508,-9.5,200,0,1,983.9196,0,1,736364.697474459,04_02_2016 level23_spatial_Robin_cooling 16_27_58.978 log.txt,17.0,17.0,1509,2016-02-04,17.0,True,66.5,-0.5,colocated,right
22,994.0043,0,730,2058,2857,4205,502,-6.5,200,1,1,995.8478,1,1,736364.697603962,04_02_2016 level23_spatial_Robin_cooling 16_27_58.978 log.txt,17.0,17.0,1509,2016-02-04,17.0,True,63.5,-3.5,colocated,right
32,1084.1459,0,730,2058,2857,4205,504,-6.5,200,1,1,1085.9174,1,0,736364.698647267,04_02_2016 level23_spatial_Robin_cooling 16_27_58.978 log.txt,16.0,16.0,1509,2016-02-04,16.0,True,63.5,-3.5,colocated,left
33,1090.9135,0,730,2058,2857,4205,503,2.5,200,1,0,1092.7664,0,1,736364.698725596,04_02_2016 level23_spatial_Robin_cooling 16_27_58.978 log.txt,15.0,15.0,1509,2016-02-04,15.0,True,54.5,-12.5,colocated,right
45,1205.7406,0,460,1105,2857,4205,503,2.5,200,0,1,1207.5881,0,1,736364.700054613,04_02_2016 level23_spatial_Robin_cooling 16_27_58.978 log.txt,13.0,13.0,1509,2016-02-04,13.0,True,54.5,-12.5,colocated,right
50,1246.9322,0,460,1105,2857,4205,501,-3.5,200,0,0,1248.6587,1,1,736364.700531368,04_02_2016 level23_spatial_Robin_cooling 16_27_58.978 log.txt,12.0,12.0,1509,2016-02-04,12.0,True,60.5,-6.5,colocated,right
53,1285.0302,1,460,1105,2857,4205,506,2.5,200,0,1,1289.9297,0,0,736364.700972317,04_02_2016 level23_spatial_Robin_cooling 16_27_58.978 log.txt,12.0,12.0,1509,2016-02-04,12.0,True,54.5,-12.5,colocated,left
4,29.8488,1,730,2058,2857,4205,506,-0.5,200,1,0,29.8805,0,2,736364.350748192,04_02_2016 level23_spatial_Robin 08_24_34.795 log.txt,37.0,37.0,1509,2016-02-04,37.0,False,57.5,-9.5,separated,left
6,39.0672,0,730,2058,2857,4205,504,-3.5,200,1,0,40.3268,0,3,736364.350854887,04_02_2016 level23_spatial_Robin 08_24_34.795 log.txt,37.0,37.0,1509,2016-02-04,37.0,False,60.5,-6.5,separated,right
11,77.3968,0,730,2058,2857,4205,508,-6.5,200,1,0,77.3963,0,3,736364.351298516,04_02_2016 level23_spatial_Robin 08_24_34.795 log.txt,37.0,37.0,1509,2016-02-04,37.0,False,63.5,-3.5,separated,right
13,88.1453,1,460,1105,2857,4205,511,-0.5,200,0,1,89.5667,0,3,736364.35142292,04_02_2016 level23_spatial_Robin 08_24_34.795 log.txt,37.0,37.0,1509,2016-02-04,37.0,False,57.5,-9.5,separated,right
24,173.1959,0,730,2058,2857,4205,506,-9.5,200,1,0,174.3115,0,2,736364.352407302,04_02_2016 level23_spatial_Robin 08_24_34.795 log.txt,37.0,37.0,1509,2016-02-04,37.0,False,66.5,-0.5,separated,left
29,219.5727,0,460,1105,2857,4205,502,-9.5,200,0,0,220.5208,1,2,736364.352944071,04_02_2016 level23_spatial_Robin 08_24_34.795 log.txt,37.0,37.0,1509,2016-02-04,37.0,False,66.5,-0.5,separated,left
30,225.072,0,730,2058,2857,4205,510,2.5,200,1,1,226.4774,1,3,736364.35300772,04_02_2016 level23_spatial_Robin 08_24_34.795 log.txt,37.0,37.0,1509,2016-02-04,37.0,False,54.5,-12.5,separated,right
36,273.9685,0,730,2058,2857,4205,508,-3.5,200,1,1,275.1877,1,2,736364.353573652,04_02_2016 level23_spatial_Robin 08_24_34.795 log.txt,37.0,37.0,1509,2016-02-04,37.0,False,60.5,-6.5,separated,left
39,294.0906,1,460,1105,2857,4205,503,-12.5,200,0,0,297.5487,1,3,736364.353806546,04_02_2016 level23_spatial_Robin 08_24_34.795 log.txt,37.0,37.0,1509,2016-02-04,37.0,False,69.5,2.5,separated,right
40,301.3191,0,460,1105,2857,4205,501,-3.5,200,0,1,302.669,0,3,736364.353890209,04_02_2016 level23_spatial_Robin 08_24_34.795 log.txt,37.0,37.0,1509,2016-02-04,37.0,False,60.5,-6.5,separated,right
42,316.5583,0,730,2058,2857,4205,505,-9.5,200,1,1,317.7734,1,3,736364.354066589,04_02_2016 level23_spatial_Robin 08_24_34.795 log.txt,37.0,37.0,1509,2016-02-04,37.0,False,66.5,-0.5,separated,right
48,382.9306,0,730,2058,2857,4205,510,-6.5,200,1,0,384.0135,0,2,736364.354834787,04_02_2016 level23_spatial_Robin 08_24_34.795 log.txt,37.0,37.0,1509,2016-02-04,37.0,False,63.5,-3.5,separated,left
52,422.1369,0,730,2058,2857,4205,501,-0.5,200,1,0,424.592,0,3,736364.355288564,04_02_2016 level23_spatial_Robin 08_24_34.795 log.txt,37.0,37.0,1509,2016-02-04,37.0,False,57.5,-9.5,separated,right
55,451.4251,0,730,2058,2857,4205,504,-12.5,200,1,0,452.8146,0,2,736364.355627547,04_02_2016 level23_spatial_Robin 08_24_34.795 log.txt,37.0,37.0,1509,2016-02-04,37.0,False,69.5,2.5,separated,left
61,497.3315,0,730,2058,2857,4205,509,-12.5,200,1,0,498.4817,0,3,736364.356158872,04_02_2016 level23_spatial_Robin 08_24_34.795 log.txt,37.0,37.0,1509,2016-02-04,37.0,False,69.5,2.5,separated,right
63,514.8869,1,460,1105,2857,4205,506,-6.5,200,0,0,519.6936,1,2,736364.356362059,04_02_2016 level23_spatial_Robin 08_24_34.795 log.txt,37.0,37.0,1509,2016-02-04,37.0,False,63.5,-3.5,separated,left
68,563.9012,1,460,1105,2857,4205,504,2.5,200,0,0,568.2546,1,2,736364.356929354,04_02_2016 level23_spatial_Robin 08_24_34.795 log.txt,37.0,37.0,1509,2016-02-04,37.0,False,54.5,-12.5,separated,left
76,625.7963,0,460,1105,2857,4205,501,-12.5,200,0,0,626.7372,1,2,736364.357645733,04_02_2016 level23_spatial_Robin 08_24_34.795 log.txt,37.0,37.0,1509,2016-02-04,37.0,False,69.5,2.5,separated,left
80,651.4751,0,460,1105,2857,4205,507,-3.5,200,0,0,652.3865,1,2,736364.357942941,04_02_2016 level23_spatial_Robin 08_24_34.795 log.txt,37.0,37.0,1509,2016-02-04,37.0,False,60.5,-6.5,separated,left
81,656.4884,0,460,1105,2857,4205,510,-9.5,200,0,0,657.4481,1,3,736364.358000965,04_02_2016 level23_spatial_Robin 08_24_34.795 log.txt,37.0,37.0,1509,2016-02-04,37.0,False,66.5,-0.5,separated,right
85,685.5757,0,730,2058,2857,4205,504,2.5,200,1,0,686.3783,0,2,736364.358337624,04_02_2016 level23_spatial_Robin 08_24_34.795 log.txt,37.0,37.0,1509,2016-02-04,37.0,False,54.5,-12.5,separated,left
17,952.0003,0,460,1105,2857,4205,504,-9.5,200,0,0,953.1309,1,3,736364.697117804,04_02_2016 level23_spatial_Robin_cooling 16_27_58.978 log.txt,18.0,18.0,1509,2016-02-04,18.0,True,66.5,-0.5,separated,right
24,1008.9173,0,730,2058,2857,4205,507,-6.5,200,1,1,1010.5018,1,2,736364.697776566,04_02_2016 level23_spatial_Robin_cooling 16_27_58.978 log.txt,17.0,17.0,1509,2016-02-04,17.0,True,63.5,-3.5,separated,left
25,1015.1339,0,460,1105,2857,4205,501,-12.5,200,0,0,1016.6622,1,2,736364.697848517,04_02_2016 level23_spatial_Robin_cooling 16_27_58.978 log.txt,17.0,17.0,1509,2016-02-04,17.0,True,69.5,2.5,separated,left
26,1022.9302,0,730,2058,2857,4205,510,-6.5,200,1,1,1028.1693,1,3,736364.697938752,04_02_2016 level23_spatial_Robin_cooling 16_27_58.978 log.txt,16.0,16.0,1509,2016-02-04,16.0,True,63.5,-3.5,separated,right
27,1029.8199,0,460,1105,2857,4205,505,-0.5,200,0,1,1036.2082,0,3,736364.698018494,04_02_2016 level23_spatial_Robin_cooling 16_27_58.978 log.txt,16.0,16.0,1509,2016-02-04,16.0,True,57.5,-9.5,separated,right
40,1163.1986,0,730,2058,2857,4205,510,-0.5,200,1,0,1165.1415,0,2,736364.699562229,04_02_2016 level23_spatial_Robin_cooling 16_27_58.978 log.txt,14.0,14.0,1509,2016-02-04,14.0,True,57.5,-9.5,separated,left
43,1190.7915,0,730,2058,2857,4205,504,-3.5,200,1,1,1192.6858,1,3,736364.699881591,04_02_2016 level23_spatial_Robin_cooling 16_27_58.978 log.txt,14.0,14.0,1509,2016-02-04,14.0,True,60.5,-6.5,separated,right
44,1197.4442,0,460,1105,2857,4205,509,2.5,200,0,0,1199.0349,1,3,736364.69995859,04_02_2016 level23_spatial_Robin_cooling 16_27_58.978 log.txt,13.0,13.0,1509,2016-02-04,13.0,True,54.5,-12.5,separated,right
49,1240.4251,0,730,2058,2857,4205,505,-9.5,200,1,1,1241.8494,1,3,736364.700456054,04_02_2016 level23_spatial_Robin_cooling 16_27_58.978 log.txt,13.0,13.0,1509,2016-02-04,13.0,True,66.5,-0.5,separated,right
51,1257.7135,1,730,2058,2857,4205,511,-12.5,200,1,1,1264.3707,1,3,736364.700656152,04_02_2016 level23_spatial_Robin_cooling 16_27_58.978 log.txt,12.0,12.0,1509,2016-02-04,12.0,True,69.5,2.5,separated,right
2,19.163,0,460,1105,2857,4205,507,2.5,200,0,0,20.0781,1,5,736364.350624514,04_02_2016 level23_spatial_Robin 08_24_34.795 log.txt,37.0,37.0,1509,2016-02-04,37.0,False,54.5,-12.5,single_speaker,right
3,24.6518,0,460,1105,2857,4205,501,2.5,200,0,0,24.6867,1,4,736364.350688042,04_02_2016 level23_spatial_Robin 08_24_34.795 log.txt,37.0,37.0,1509,2016-02-04,37.0,False,54.5,-12.5,single_speaker,left
9,66.7539,0,460,1105,2857,4205,502,-3.5,200,0,0,67.6147,1,4,736364.351175335,04_02_2016 level23_spatial_Robin 08_24_34.795 log.txt,37.0,37.0,1509,2016-02-04,37.0,False,60.5,-6.5,single_speaker,left
10,72.1497,0,460,1105,2857,4205,503,-6.5,200,0,0,72.9413,1,4,736364.351237786,04_02_2016 level23_spatial_Robin 08_24_34.795 log.txt,37.0,37.0,1509,2016-02-04,37.0,False,63.5,-3.5,single_speaker,left
18,114.8984,0,730,2058,2857,4205,508,2.5,200,1,1,116.0614,1,5,736364.351732563,04_02_2016 level23_spatial_Robin 08_24_34.795 log.txt,37.0,37.0,1509,2016-02-04,37.0,False,54.5,-12.5,single_speaker,right
21,136.5831,1,730,2058,2857,4205,509,-0.5,200,1,1,140.8736,1,5,736364.351983543,04_02_2016 level23_spatial_Robin 08_24_34.795 log.txt,37.0,37.0,1509,2016-02-04,37.0,False,57.5,-9.5,single_speaker,right
27,200.343,0,730,2058,2857,4205,507,-9.5,200,1,0,201.3853,0,5,736364.352721505,04_02_2016 level23_spatial_Robin 08_24_34.795 log.txt,37.0,37.0,1509,2016-02-04,37.0,False,66.5,-0.5,single_speaker,right
31,235.7093,0,730,2058,2857,4205,503,2.5,200,1,0,236.5167,0,4,736364.353130837,04_02_2016 level23_spatial_Robin 08_24_34.795 log.txt,37.0,37.0,1509,2016-02-04,37.0,False,54.5,-12.5,single_speaker,left
35,269.0357,0,460,1105,2857,4205,510,-0.5,200,0,0,269.8526,1,4,736364.353516559,04_02_2016 level23_spatial_Robin 08_24_34.795 log.txt,37.0,37.0,1509,2016-02-04,37.0,False,57.5,-9.5,single_speaker,left
46,355.079,1,730,2058,2857,4205,502,-0.5,200,1,0,359.0509,0,4,736364.354512431,04_02_2016 level23_spatial_Robin 08_24_34.795 log.txt,37.0,37.0,1509,2016-02-04,37.0,False,57.5,-9.5,single_speaker,left
50,404.1759,0,460,1105,2857,4205,508,-9.5,200,0,0,405.3861,1,4,736364.355080682,04_02_2016 level23_spatial_Robin 08_24_34.795 log.txt,37.0,37.0,1509,2016-02-04,37.0,False,66.5,-0.5,single_speaker,left
58,475.1916,0,730,2058,2857,4205,503,-12.5,200,1,0,476.136,0,4,736364.355902623,04_02_2016 level23_spatial_Robin 08_24_34.795 log.txt,37.0,37.0,1509,2016-02-04,37.0,False,69.5,2.5,single_speaker,left
64,523.932,0,730,2058,2857,4205,505,-6.5,200,1,1,525.2569,1,5,736364.356466748,04_02_2016 level23_spatial_Robin 08_24_34.795 log.txt,37.0,37.0,1509,2016-02-04,37.0,False,63.5,-3.5,single_speaker,right
65,536.3452,0,730,2058,2857,4205,511,-12.5,200,1,1,537.7119,1,5,736364.356610419,04_02_2016 level23_spatial_Robin 08_24_34.795 log.txt,37.0,37.0,1509,2016-02-04,37.0,False,69.5,2.5,single_speaker,right
