Trial	CorrectionTrial?	StartTime	CenterReward?	SpkrIdx	SpkrPos	duration	HoldTime	Atten	Response	RespTime	Correct	ComputerTime	SoundOrLED	
1	0	1402.966	0	2	-90	250	751	9.0	3	1404.043	0	736125.354005	0	
2	0	1412.316	0	4	-30	250	601	4.5	2	1416.843	0	736125.354153	0	
3	0	1451.483	0	3	-60	250	1001	4.5	4	1452.397	0	736125.354564	0	
4	0	1467.040	1	8	90	250	801	9.0	8	1467.988	1	736125.354746	0	
5	0	1472.011	0	4	-30	250	851	0.0	3	1476.220	0	736125.354840	1	
6	0	1491.555	0	5	0	250	701	9.0	6	1493.170	0	736125.355036	1	
7	0	1535.357	0	4	-30	250	501	0.0	4	1536.858	1	736125.355542	0	
8	0	1539.903	0	8	90	250	551	4.5	8	1541.415	1	736125.355595	1	
9	0	1561.020	0	7	60	250	651	0.0	7	1562.118	1	736125.355834	0	
10	0	1570.665	0	4	-30	250	901	4.5	3	1571.602	0	736125.355944	1	
11	0	1579.566	0	5	0	250	1001	9.0	2	1580.676	0	736125.356050	0	
12	0	1593.309	0	8	90	250	701	0.0	8	1594.362	1	736125.356208	1	
13	0	1605.803	0	6	30	250	901	0.0	2	1607.645	0	736125.356361	0	
14	0	1624.877	0	6	30	250	751	9.0	7	1626.261	0	736125.356577	0	
15	0	1638.052	0	7	60	250	801	9.0	6	1639.000	0	736125.356725	0	
16	0	1653.681	0	2	-90	250	501	4.5	2	1654.935	1	736125.356909	1	
17	0	1665.339	1	6	30	250	851	0.0	6	1666.653	1	736125.357045	1	
18	0	1677.373	0	8	90	250	551	9.0	8	1681.874	1	736125.357221	0	
19	0	1700.770	0	3	-60	250	951	4.5	3	1701.685	1	736125.357450	1	
20	0	1705.471	0	5	0	250	601	9.0	4	1707.139	0	736125.357513	0	
21	0	1716.118	0	6	30	250	1001	4.5	7	1717.478	0	736125.357633	1	
22	0	1731.824	0	5	0	250	701	9.0	5	1733.337	1	736125.357816	1	
23	0	1750.385	0	2	-90	250	601	9.0	4	1751.405	0	736125.358026	0	
24	0	1757.636	0	3	-60	250	551	0.0	4	1758.678	0	736125.358110	0	
25	0	1782.245	0	2	-90	250	501	0.0	2	1791.489	1	736125.358490	1	
26	0	1803.443	0	7	60	250	951	9.0	8	1804.416	0	736125.358639	1	
27	0	1821.535	0	3	-60	250	751	0.0	3	1822.755	1	736125.358852	1	
28	0	1835.572	0	7	60	250	801	4.5	8	1837.991	0	736125.359028	1	
29	0	1857.165	0	5	0	250	651	4.5	3	1858.617	0	736125.359267	0	
30	0	1871.893	0	5	0	250	901	0.0	6	1873.296	0	736125.359436	1	
31	0	1880.928	0	7	60	250	1001	0.0	8	1882.006	0	736125.359537	1	
32	0	1892.609	1	3	-60	250	551	9.0	3	1893.368	1	736125.359669	0	
33	0	1903.832	0	7	60	250	851	4.5	8	1904.981	0	736125.359803	0	
34	0	1915.337	0	6	30	250	801	9.0	6	1916.627	1	736125.359938	1	
35	0	1932.922	0	5	0	250	901	9.0	4	1933.718	0	736125.360136	0	
36	0	1952.845	0	2	-90	250	601	4.5	2	1953.828	1	736125.360368	0	
37	0	1977.923	0	8	90	250	501	0.0	8	1979.353	1	736125.360664	1	
38	0	1996.392	0	6	30	250	751	9.0	5	1997.990	0	736125.360880	1	
39	0	2007.330	0	5	0	250	701	9.0	4	2009.008	0	736125.361007	1	
40	0	2026.428	0	3	-60	250	651	4.5	3	2028.065	1	736125.361228	1	
41	0	2036.025	0	3	-60	250	1001	4.5	2	2036.898	0	736125.361329	0	
42	0	2051.076	0	3	-60	250	851	0.0	3	2052.093	1	736125.361506	1	
43	0	2062.186	0	8	90	250	501	9.0	8	2063.053	1	736125.361632	0	
44	0	2071.916	0	7	60	250	551	0.0	8	2073.302	0	736125.361751	1	
45	0	2084.732	0	2	-90	250	751	9.0	3	2085.435	0	736125.361893	0	
46	0	2096.344	0	6	30	250	951	0.0	4	2100.846	0	736125.362069	0	
47	0	2471.465	0	6	30	250	901	9.0	8	2472.707	0	736125.366374	0	
48	0	2483.268	0	4	-30	250	701	0.0	4	2484.719	1	736125.366513	1	
49	0	2487.637	0	4	-30	250	801	9.0	2	2490.171	0	736125.366576	0	
50	0	2511.306	0	8	90	250	651	4.5	8	2515.239	1	736125.366866	0	
51	0	2521.932	0	7	60	250	751	9.0	2	2524.643	0	736125.366975	0	
52	0	2555.755	0	2	-90	250	1001	0.0	2	2556.876	1	736125.367349	1	
53	0	2565.103	0	8	90	250	501	4.5	8	2566.841	1	736125.367463	1	
54	0	2577.465	0	4	-30	250	701	9.0	3	2578.391	0	736125.367597	0	
55	0	2593.250	0	4	-30	250	901	9.0	4	2594.539	1	736125.367784	1	
56	0	2606.186	0	2	-90	250	551	0.0	2	2607.444	1	736125.367933	1	
57	0	2616.872	0	8	90	250	851	0.0	8	2618.200	1	736125.368058	0	
58	0	2634.836	0	7	60	250	951	9.0	3	2635.578	0	736125.368260	0	
59	0	2644.065	0	8	90	250	801	0.0	8	2645.349	1	736125.368372	1	
60	0	2676.870	0	7	60	250	601	9.0	4	2677.630	0	736125.368746	0	
61	0	2685.044	0	6	30	250	551	4.5	7	2686.366	0	736125.368847	1	
62	0	2699.289	0	5	0	250	1001	9.0	3	2700.037	0	736125.369006	1	
63	0	2707.779	0	6	30	250	501	4.5	6	2708.994	1	736125.369109	0	
64	0	2717.701	0	2	-90	250	601	9.0	2	2718.762	1	736125.369222	1	
65	0	2740.795	0	3	-60	250	951	4.5	3	2741.706	1	736125.369488	1	
66	0	2749.131	0	3	-60	250	851	0.0	3	2750.104	1	736125.369584	1	
67	0	2758.067	0	6	30	250	901	0.0	3	2759.281	0	736125.369691	1	
68	0	2772.840	0	6	30	250	751	4.5	7	2774.053	0	736125.369861	0	
69	0	2780.319	0	7	60	250	801	0.0	8	2781.620	0	736125.369949	1	
70	0	2792.693	0	3	-60	250	701	4.5	3	2793.541	1	736125.370087	0	
71	0	2801.930	0	5	0	250	1001	9.0	3	2802.863	0	736125.370196	0	
72	0	2809.327	0	2	-90	250	501	4.5	3	2810.193	0	736125.370280	0	
73	0	2817.274	0	8	90	250	601	4.5	7	2818.785	0	736125.370379	0	
74	0	2827.314	0	4	-30	250	851	0.0	4	2828.006	1	736125.370488	0	
75	0	2834.287	0	2	-90	250	951	4.5	3	2835.390	0	736125.370572	1	
76	0	2859.748	0	4	-30	250	651	9.0	6	2861.552	0	736125.370874	1	
77	0	2869.269	0	2	-90	250	801	4.5	3	2870.151	0	736125.370973	0	
78	0	2877.358	0	3	-60	250	701	0.0	4	2879.407	0	736125.371081	0	
79	0	2889.828	0	7	60	250	751	9.0	7	2891.225	1	736125.371218	1	
80	0	2903.373	0	4	-30	250	551	4.5	4	2904.331	1	736125.371369	0	
81	0	2910.528	0	8	90	250	801	4.5	8	2911.662	1	736125.371454	1	
82	0	2927.111	0	5	0	250	501	0.0	5	2928.517	1	736125.371649	1	
83	0	2934.780	0	5	0	250	1001	4.5	4	2935.374	0	736125.371732	0	
84	0	2941.280	0	4	-30	250	951	9.0	4	2942.841	1	736125.371815	1	
85	0	2950.881	0	6	30	250	601	0.0	7	2952.319	0	736125.371925	0	
86	0	2960.131	0	5	0	250	701	4.5	4	2961.313	0	736125.372029	0	
87	0	3002.999	0	8	90	250	901	9.0	8	3004.365	1	736125.372527	0	
88	0	3016.092	1	6	30	250	651	4.5	4	3018.251	0	736125.372688	1	
89	0	3032.269	0	7	60	250	551	0.0	8	3033.264	0	736125.372862	1	
90	0	3050.033	1	3	-60	250	751	9.0	3	3050.813	1	736125.373066	0	
91	0	3058.440	0	5	0	250	901	4.5	3	3061.792	0	736125.373192	1	
92	0	3069.417	0	4	-30	250	1001	0.0	4	3070.094	1	736125.373290	0	
93	0	3079.490	0	8	90	250	751	9.0	7	3081.393	0	736125.373419	1	
94	0	3089.393	0	3	-60	250	801	0.0	3	3090.193	1	736125.373521	0	
95	0	3096.775	0	3	-60	250	551	9.0	3	3097.635	1	736125.373607	1	
96	0	3104.468	0	2	-90	250	651	4.5	3	3105.747	0	736125.373700	1	
97	0	3115.762	0	2	-90	250	951	9.0	3	3116.389	0	736125.373827	0	
98	0	3125.096	0	4	-30	250	501	0.0	4	3126.240	1	736125.373938	1	
99	0	3134.030	0	8	90	250	851	4.5	8	3135.448	1	736125.374044	1	
100	0	3142.271	0	7	60	250	701	9.0	6	3143.373	0	736125.374137	0	
101	0	3148.934	0	2	-90	250	1001	9.0	3	3150.073	0	736125.374213	1	
102	0	3160.745	0	6	30	250	501	0.0	5	3161.769	0	736125.374349	0	
103	0	3172.538	0	8	90	250	951	0.0	8	3173.331	1	736125.374483	0	
104	0	3181.447	0	6	30	250	851	9.0	7	3182.901	0	736125.374594	1	
105	0	3191.394	0	4	-30	250	601	9.0	4	3192.633	1	736125.374706	1	
106	0	3199.799	0	3	-60	250	801	4.5	3	3200.494	1	736125.374799	1	
107	0	3207.070	0	5	0	250	901	9.0	4	3207.863	0	736125.374883	0	
108	0	3221.725	0	5	0	250	751	4.5	4	3222.557	0	736125.375053	1	
109	0	3231.539	1	2	-90	250	651	9.0	3	3232.297	0	736125.375166	0	
110	0	3241.650	0	4	-30	250	551	0.0	4	3242.507	1	736125.375283	0	
111	0	3248.798	0	7	60	250	501	4.5	8	3249.591	0	736125.375366	0	
112	0	3259.187	0	7	60	250	701	0.0	5	3260.562	0	736125.375492	1	
113	0	3274.618	0	3	-60	250	951	9.0	4	3275.704	0	736125.375668	0	
114	0	3285.944	0	5	0	250	1001	0.0	2	3291.554	0	736125.375851	1	
115	0	3296.936	0	8	90	250	901	0.0	8	3297.752	1	736125.375923	0	
116	0	3308.346	0	7	60	250	851	0.0	8	3309.500	0	736125.376059	0	
117	0	3314.831	0	5	0	250	651	0.0	5	3315.927	1	736125.376133	1	
118	0	3325.044	0	3	-60	250	801	9.0	3	3326.005	1	736125.376250	1	
119	0	3331.784	0	2	-90	250	551	9.0	3	3332.502	0	736125.376327	0	
120	0	3350.821	0	6	30	250	601	4.5	7	3352.027	0	736125.376551	1	
121	0	3387.560	0	8	90	250	751	0.0	8	3389.451	1	736125.376984	1	
122	0	3397.971	0	3	-60	250	851	0.0	3	3398.871	1	736125.377093	1	
123	0	3406.267	0	7	60	250	651	9.0	7	3407.476	1	736125.377192	1	
124	0	3421.932	0	4	-30	250	901	9.0	3	3422.577	0	736125.377370	0	
125	0	3447.138	0	3	-60	250	501	0.0	4	3448.148	0	736125.377663	0	
126	0	3456.245	0	6	30	250	701	9.0	6	3457.989	1	736125.377778	0	
127	0	3469.893	0	6	30	250	951	0.0	7	3471.663	0	736125.377936	1	
128	0	3479.259	0	4	-30	250	851	9.0	4	3480.259	1	736125.378035	1	
129	0	3489.967	0	5	0	250	651	0.0	4	3490.831	0	736125.378158	0	
130	0	3501.606	0	2	-90	250	751	9.0	2	3502.476	1	736125.378292	1	
131	0	3507.345	0	7	60	250	701	0.0	7	3508.305	1	736125.378360	1	
132	0	3517.564	0	8	90	250	901	0.0	8	3518.610	1	736125.378479	1	
133	0	3526.061	0	7	60	250	1001	4.5	4	3528.299	0	736125.378592	0	
134	0	3633.582	0	4	-30	250	501	4.5	3	3637.781	0	736125.379858	0	
135	0	3674.558	0	2	-90	250	601	0.0	-1	-1.000	0	736125.380457	0	
136	0	3693.647	0	8	90	250	951	4.5	8	3695.130	1	736125.380522	0	
137	0	3701.463	0	7	60	250	601	0.0	8	3702.810	0	736125.380611	1	
138	0	3712.232	0	4	-30	250	851	9.0	4	3713.094	1	736125.380730	0	
139	0	3718.776	0	6	30	250	1001	9.0	6	3719.833	1	736125.380808	0	
140	0	3731.073	0	3	-60	250	501	0.0	3	3731.750	1	736125.380948	0	
141	0	3738.151	0	8	90	250	801	4.5	8	3740.245	1	736125.381044	1	
142	0	3746.785	0	2	-90	250	901	0.0	2	3747.419	1	736125.381130	0	
143	0	3763.355	0	2	-90	250	951	9.0	2	3764.396	1	736125.381324	1	
144	0	3773.927	0	8	90	250	701	0.0	8	3775.103	1	736125.381448	0	
145	0	3780.924	0	2	-90	250	751	0.0	2	3782.003	1	736125.381528	1	
146	0	3792.339	0	2	-90	250	651	4.5	2	3793.283	1	736125.381659	0	
147	0	3803.019	0	5	0	250	701	0.0	6	3804.908	0	736125.381793	1	
148	0	3810.787	0	5	0	250	801	4.5	4	3811.827	0	736125.381873	0	
149	0	3819.725	0	3	-60	250	901	9.0	3	3820.527	1	736125.381974	1	
150	0	3828.124	0	6	30	250	851	0.0	6	3829.358	1	736125.382075	1	
151	0	3836.236	1	4	-30	250	751	0.0	4	3837.630	1	736125.382171	0	
152	0	3843.081	0	3	-60	250	1001	4.5	3	3846.015	1	736125.382269	0	
153	0	3853.102	0	7	60	250	501	0.0	8	3853.859	0	736125.382361	0	
154	0	3865.604	0	6	30	250	651	4.5	4	3867.425	0	736125.382516	1	
155	0	3879.120	0	7	60	250	601	4.5	-1	-1.000	0	736125.382826	1	
156	0	3964.078	0	7	60	250	551	0.0	8	3966.014	0	736125.383657	0	
157	0	3977.992	0	8	90	250	501	9.0	8	3979.456	1	736125.383813	1	
158	0	3987.219	0	6	30	250	751	4.5	8	3988.124	0	736125.383913	0	
159	0	4103.661	0	4	-30	250	701	0.0	3	4110.432	0	736125.385329	1	
