Trial	CorrectionTrial?	StartTime	CenterReward?	SpkrIdx	SpkrPos	duration	HoldTime	Atten	Response	RespTime	Correct	ComputerTime	SoundOrLED	
1	0	1787.580	0	7	60	100	901	9.0	8	1788.313	0	736175.690713	0	
2	0	1861.874	0	4	-30	100	701	0.0	8	1863.313	0	736175.691579	0	
3	0	1876.065	0	2	-90	100	951	0.0	3	1877.732	0	736175.691746	0	
4	0	1889.980	0	5	0	100	651	4.5	6	1891.448	0	736175.691906	0	
5	0	1901.746	0	3	-60	100	1001	0.0	2	1902.397	0	736175.692035	0	
6	0	1911.808	0	6	30	100	851	9.0	4	1914.032	0	736175.692166	0	
7	0	1920.101	0	8	90	100	751	0.0	8	1921.318	1	736175.692251	0	
8	0	1924.650	0	6	30	100	801	9.0	8	1925.635	0	736175.692300	0	
9	0	1936.779	0	7	60	100	601	0.0	8	1938.057	0	736175.692444	0	
10	0	1953.561	0	8	90	100	551	9.0	8	1954.592	1	736175.692636	0	
11	0	1967.406	0	4	-30	100	601	0.0	2	1969.251	0	736175.692805	0	
12	0	1980.948	0	2	-90	100	1001	9.0	2	1982.674	1	736175.692961	0	
13	0	2012.606	0	5	0	100	901	0.0	4	2013.629	0	736175.693319	0	
14	0	2019.960	0	3	-60	100	651	4.5	2	2021.304	0	736175.693408	0	
15	0	2030.901	0	7	60	100	701	9.0	8	2031.732	0	736175.693529	0	
16	0	2042.776	0	3	-60	100	501	0.0	3	2043.697	1	736175.693667	0	
17	0	2073.791	0	2	-90	100	751	0.0	2	2074.748	1	736175.694026	0	
18	0	2086.801	0	6	30	100	551	4.5	3	2087.952	0	736175.694179	0	
19	0	2098.859	0	8	90	100	801	0.0	8	2100.165	1	736175.694321	0	
20	0	2108.129	0	3	-60	100	951	4.5	2	2109.320	0	736175.694427	0	
21	0	2118.937	0	5	0	100	701	4.5	5	2120.426	1	736175.694555	0	
22	0	2132.068	0	4	-30	100	801	9.0	2	2133.219	0	736175.694704	0	
23	0	2143.474	0	2	-90	100	751	0.0	2	2144.203	1	736175.694832	0	
24	0	2153.878	0	5	0	100	901	4.5	4	2154.763	0	736175.694953	0	
25	0	2163.451	1	8	90	100	951	0.0	8	2164.837	1	736175.695069	0	
26	0	2171.867	0	7	60	100	501	9.0	8	2175.765	0	736175.695196	0	
27	0	2196.531	0	6	30	100	651	4.5	6	2197.765	1	736175.695451	0	
28	0	2215.510	0	4	-30	100	551	9.0	3	2217.092	0	736175.695675	0	
29	0	2232.966	0	3	-60	100	851	9.0	4	2234.602	0	736175.695877	0	
30	0	2245.795	0	4	-30	100	1001	0.0	2	2246.813	0	736175.696018	0	
31	0	2259.427	0	7	60	100	501	9.0	7	2260.495	1	736175.696177	0	
32	0	2267.372	0	3	-60	100	801	0.0	2	2268.986	0	736175.696275	0	
33	0	2282.767	0	8	90	100	751	4.5	8	2283.593	1	736175.696444	0	
34	0	2292.921	0	2	-90	100	701	9.0	2	2294.311	1	736175.696568	0	
35	0	2304.211	1	7	60	100	851	4.5	8	2305.131	0	736175.696693	0	
36	0	2338.554	0	4	-30	100	1001	0.0	3	2339.550	0	736175.697091	0	
37	0	2350.136	0	2	-90	100	901	4.5	2	2350.813	1	736175.697224	0	
38	0	2359.460	0	6	30	100	651	9.0	6	2360.654	1	736175.697335	0	
39	0	2373.948	0	8	90	100	601	9.0	8	2374.882	1	736175.697501	0	
40	0	2382.710	0	5	0	100	951	4.5	5	2384.046	1	736175.697606	0	
41	0	2386.516	0	6	30	100	551	9.0	6	2387.573	1	736175.697648	0	
42	0	2398.031	0	5	0	100	701	0.0	4	2399.017	0	736175.697780	0	
43	0	2410.243	0	7	60	100	601	4.5	8	2410.933	0	736175.697919	0	
44	0	2419.596	0	4	-30	100	651	0.0	2	2420.857	0	736175.698033	0	
45	0	2433.786	1	4	-30	100	901	9.0	3	2434.724	0	736175.698193	0	
46	0	2445.045	0	2	-90	100	501	4.5	3	2446.513	0	736175.698330	0	
47	0	2458.295	0	5	0	100	951	4.5	5	2459.270	1	736175.698477	0	
48	0	2469.994	0	8	90	100	851	9.0	8	2470.829	1	736175.698611	0	
49	0	2480.881	0	6	30	100	1001	4.5	7	2481.971	0	736175.698740	0	
50	0	2493.734	0	7	60	100	751	9.0	7	2494.767	1	736175.698889	0	
51	0	2501.711	0	5	0	100	551	4.5	5	2502.820	1	736175.698981	0	
52	0	2516.056	0	6	30	100	501	0.0	6	2517.262	1	736175.699149	0	
53	0	2527.077	0	3	-60	100	851	4.5	3	2527.844	1	736175.699271	0	
54	0	2535.998	0	2	-90	100	601	0.0	3	2537.319	0	736175.699380	0	
55	0	2546.796	0	3	-60	100	701	9.0	2	2548.058	0	736175.699505	0	
56	0	2567.982	0	8	90	100	951	4.5	8	2568.703	1	736175.699745	0	
57	0	2575.517	0	2	-90	100	1001	9.0	2	2576.753	1	736175.699837	0	
58	0	2585.551	0	6	30	100	751	4.5	6	2586.634	1	736175.699951	0	
59	0	2596.677	0	7	60	100	651	0.0	7	2597.905	1	736175.700082	0	
60	0	2604.794	0	5	0	100	901	4.5	5	2606.054	1	736175.700175	0	
61	0	2617.312	0	4	-30	100	601	0.0	5	2618.583	0	736175.700321	0	
62	0	2626.344	0	2	-90	100	801	9.0	3	2627.108	0	736175.700420	0	
63	0	2637.605	0	8	90	100	701	4.5	8	2638.680	1	736175.700553	0	
64	0	2646.077	0	3	-60	100	751	0.0	8	2647.156	0	736175.700651	0	
65	0	2655.394	0	7	60	100	501	0.0	7	2656.347	1	736175.700758	0	
66	0	2664.546	0	4	-30	100	1001	9.0	6	2665.563	0	736175.700865	0	
67	0	2673.936	0	6	30	100	851	4.5	6	2674.771	1	736175.700971	0	
68	0	2684.861	0	5	0	100	901	0.0	6	2685.745	0	736175.701098	0	
69	0	2692.304	0	3	-60	100	551	4.5	3	2693.149	1	736175.701184	0	
70	0	2700.164	0	8	90	100	651	9.0	8	2701.378	1	736175.701280	0	
71	0	2707.572	0	8	90	100	651	9.0	8	2708.561	1	736175.701362	0	
72	0	2714.569	1	5	0	100	701	4.5	6	2715.580	0	736175.701444	0	
73	0	2722.738	0	8	90	100	851	0.0	8	2723.634	1	736175.701537	0	
74	0	2731.396	0	5	0	100	801	9.0	4	2733.547	0	736175.701651	0	
75	0	2751.218	0	7	60	100	1001	0.0	7	2752.809	1	736175.701875	0	
76	0	2762.387	0	7	60	100	551	9.0	8	2763.167	0	736175.701995	0	
77	0	2771.400	0	3	-60	100	901	4.5	2	2772.759	0	736175.702105	0	
78	0	2785.761	0	2	-90	100	951	0.0	2	2787.007	1	736175.702271	0	
79	0	2796.424	1	4	-30	100	601	0.0	3	2797.554	0	736175.702392	0	
80	0	2808.072	0	3	-60	100	501	4.5	5	2809.016	0	736175.702525	0	
81	0	2817.696	0	6	30	100	501	9.0	7	2819.233	0	736175.702643	0	
82	0	2832.479	0	2	-90	100	801	0.0	2	2833.081	1	736175.702807	0	
83	0	2842.076	0	4	-30	100	701	4.5	3	2843.775	0	736175.702927	0	
84	0	2862.198	0	6	30	100	551	9.0	6	2863.183	1	736175.703152	0	
85	0	2872.674	0	7	60	100	851	9.0	8	2874.074	0	736175.703279	0	
86	0	2884.530	0	2	-90	100	651	4.5	2	2885.269	1	736175.703409	0	
87	0	2894.519	0	4	-30	100	1001	9.0	6	2895.293	0	736175.703524	0	
88	0	2902.823	0	7	60	100	601	0.0	8	2903.697	0	736175.703621	0	
89	0	2916.232	0	6	30	100	951	9.0	6	2917.217	1	736175.703777	0	
90	0	2926.192	0	3	-60	100	901	4.5	4	2927.215	0	736175.703894	0	
91	0	2934.373	0	3	-60	100	951	9.0	3	2935.162	1	736175.703986	0	
92	0	2942.326	1	5	0	100	851	4.5	5	2943.445	1	736175.704081	0	
93	0	2952.280	0	8	90	100	901	4.5	8	2953.316	1	736175.704195	0	
94	0	2959.742	0	4	-30	100	801	0.0	2	2961.020	0	736175.704284	0	
95	0	2969.512	0	8	90	100	651	0.0	8	2970.290	1	736175.704392	0	
96	0	2977.799	0	5	0	100	1001	9.0	5	2978.883	1	736175.704492	0	
97	0	2986.310	0	2	-90	100	551	9.0	2	2987.728	1	736175.704594	0	
98	0	2996.810	0	6	30	100	601	0.0	6	2997.727	1	736175.704709	0	
99	0	3006.011	0	2	-90	100	701	0.0	3	3006.910	0	736175.704816	0	
100	0	3022.110	0	2	-90	100	751	9.0	2	3023.130	1	736175.705003	0	
101	0	3031.651	0	4	-30	100	801	0.0	2	3033.108	0	736175.705119	0	
102	0	3043.992	0	6	30	100	951	9.0	8	3044.825	0	736175.705254	0	
103	0	3055.983	0	7	60	100	551	4.5	6	3057.063	0	736175.705396	0	
104	0	3067.297	0	4	-30	100	501	9.0	2	3068.569	0	736175.705530	0	
105	0	3083.550	0	3	-60	100	1001	4.5	2	3084.280	0	736175.705712	0	
106	0	3092.668	0	3	-60	100	751	0.0	3	3093.499	1	736175.705818	0	
107	0	3100.875	1	5	0	100	901	0.0	4	3101.861	0	736175.705914	0	
108	0	3113.632	0	8	90	100	851	9.0	8	3114.557	1	736175.706061	0	
109	0	3120.573	0	5	0	100	701	0.0	6	3121.876	0	736175.706146	0	
110	0	3133.264	0	7	60	100	651	9.0	7	3134.343	1	736175.706290	0	
111	0	3144.951	0	6	30	100	601	9.0	7	3146.342	0	736175.706429	0	
112	0	3155.406	0	8	90	100	551	4.5	8	3156.371	1	736175.706546	0	
113	0	3163.908	0	4	-30	100	851	0.0	4	3164.975	1	736175.706644	0	
114	0	3172.061	0	7	60	100	701	9.0	7	3173.063	1	736175.706738	0	
115	0	3178.494	0	6	30	100	501	4.5	8	3179.522	0	736175.706813	0	
116	0	3190.102	0	8	90	100	901	0.0	8	3191.065	1	736175.706946	0	
117	0	3197.434	0	8	90	100	801	9.0	8	3198.362	1	736175.707031	0	
118	0	3204.583	0	2	-90	100	751	4.5	2	3205.658	1	736175.707115	0	
119	0	3214.416	0	4	-30	100	651	0.0	3	3215.224	0	736175.707227	0	
120	0	3226.468	0	5	0	100	951	4.5	5	3227.391	1	736175.707367	0	
121	0	3233.994	0	2	-90	100	701	9.0	2	3235.808	1	736175.707465	0	
122	0	3243.471	0	3	-60	100	551	4.5	3	3244.883	1	736175.707570	0	
123	0	3251.033	0	5	0	100	901	9.0	5	3252.178	1	736175.707654	0	
124	0	3262.723	0	7	60	100	801	4.5	8	3263.578	0	736175.707786	0	
125	0	3275.662	0	6	30	100	851	0.0	6	3276.693	1	736175.707938	0	
126	0	3285.734	0	3	-60	100	501	4.5	2	3287.375	0	736175.708062	0	
127	0	3301.855	0	5	0	100	1001	4.5	5	3302.882	1	736175.708242	0	
128	0	3322.904	0	6	30	100	951	9.0	3	3323.516	0	736175.708482	0	
129	0	3333.439	0	3	-60	100	601	0.0	2	3334.391	0	736175.708606	0	
130	0	3343.656	0	3	-60	100	651	9.0	5	3344.597	0	736175.708724	0	
131	0	3352.864	0	7	60	100	651	0.0	7	3355.743	1	736175.708852	0	
132	0	3363.755	0	8	90	100	551	9.0	8	3364.758	1	736175.708957	0	
133	0	3370.583	0	6	30	100	701	0.0	7	3371.542	0	736175.709035	0	
134	0	3384.706	0	2	-90	100	751	4.5	2	3385.525	1	736175.709198	0	
135	0	3395.241	0	7	60	100	601	4.5	7	3396.579	1	736175.709326	0	
136	0	3404.346	0	4	-30	100	801	9.0	3	3405.139	0	736175.709425	0	
137	0	3417.722	1	5	0	100	851	0.0	6	3418.579	0	736175.709580	0	
138	0	3431.431	0	8	90	100	1001	9.0	8	3432.314	1	736175.709739	0	
139	0	3438.851	0	4	-30	100	951	4.5	5	3440.108	0	736175.709829	0	
140	0	3446.098	0	2	-90	100	901	0.0	3	3447.221	0	736175.709912	0	
141	0	3460.232	0	7	60	100	501	0.0	8	3461.216	0	736175.710074	0	
142	0	3474.480	0	2	-90	100	701	4.5	3	3478.234	0	736175.710271	0	
143	0	3488.539	0	5	0	100	601	4.5	7	3490.548	0	736175.710413	0	
144	0	3501.794	0	8	90	100	1001	9.0	8	3502.994	1	736175.710557	0	
145	0	3508.985	0	3	-60	100	651	4.5	3	3510.102	1	736175.710640	0	
146	0	3519.901	0	6	30	100	801	0.0	8	3520.780	0	736175.710763	0	
147	0	3532.001	0	4	-30	100	951	4.5	5	3533.081	0	736175.710906	0	
148	0	3539.757	0	2	-90	100	751	9.0	2	3542.715	1	736175.711017	0	
149	0	3552.023	0	6	30	100	901	9.0	2	3553.036	0	736175.711136	0	
150	0	3563.562	0	3	-60	100	551	4.5	3	3564.872	1	736175.711273	0	
151	0	3571.014	0	7	60	100	501	4.5	7	3571.914	1	736175.711355	0	
152	0	3579.473	0	8	90	100	951	9.0	8	3580.252	1	736175.711451	0	
153	0	3586.797	0	4	-30	100	701	0.0	3	3588.358	0	736175.711545	0	
154	0	3598.233	0	5	0	100	751	4.5	5	3599.219	1	736175.711671	0	
155	0	3606.707	0	7	60	100	551	0.0	6	3607.821	0	736175.711770	0	
156	0	3614.867	0	6	30	100	801	4.5	7	3616.088	0	736175.711866	0	
