Trial	CorrectionTrial?	StartTime	CenterReward?	SpkrIdx	SpkrPos	duration	HoldTime	Atten	Response	RespTime	Correct	ComputerTime	SoundOrLED	
1	0	827.004	0	2	-90	100	851	4.5	2	827.875	1	736180.669851	0	
2	0	833.808	0	8	90	100	751	0.0	8	834.602	1	736180.669930	0	
3	0	841.384	0	3	-60	100	701	9.0	4	842.600	0	736180.670022	0	
4	0	853.279	0	4	-30	100	801	4.5	5	854.441	0	736180.670159	0	
5	0	867.627	0	4	-30	100	951	9.0	5	868.652	0	736180.670324	0	
6	0	878.197	0	7	60	100	651	0.0	7	879.030	1	736180.670443	0	
7	0	886.605	0	2	-90	100	901	0.0	2	887.244	1	736180.670541	0	
8	0	899.107	0	5	0	100	601	9.0	5	899.958	1	736180.670686	0	
9	0	904.823	0	8	90	100	501	9.0	8	905.803	1	736180.670753	0	
10	0	912.680	0	5	0	100	551	0.0	5	913.500	1	736180.670843	0	
11	0	922.145	0	3	-60	100	901	4.5	2	922.899	0	736180.670953	0	
12	0	939.357	0	7	60	100	701	9.0	6	940.378	0	736180.671153	0	
13	0	948.879	0	6	30	100	651	4.5	6	949.785	1	736180.671262	0	
14	0	957.759	0	6	30	100	751	9.0	5	958.842	0	736180.671368	0	
15	0	968.607	0	2	-90	100	801	9.0	2	969.228	1	736180.671491	0	
16	0	981.460	0	2	-90	100	851	4.5	3	982.057	0	736180.671639	0	
17	0	994.880	0	5	0	100	1001	0.0	4	995.568	0	736180.671794	0	
18	0	1003.928	0	4	-30	100	551	4.5	4	1004.856	1	736180.671900	0	
19	0	1013.192	0	3	-60	100	601	9.0	2	1014.145	0	736180.672007	0	
20	0	1023.639	0	6	30	100	951	4.5	7	1024.430	0	736180.672127	0	
21	0	1039.555	0	7	60	100	501	4.5	8	1040.318	0	736180.672311	0	
22	0	1054.551	0	6	30	100	651	9.0	6	1055.375	1	736180.672485	0	
23	0	1065.861	0	3	-60	100	551	0.0	3	1066.629	1	736180.672615	0	
24	0	1072.283	0	7	60	100	701	9.0	6	1073.502	0	736180.672695	0	
25	0	1083.347	0	4	-30	100	1001	9.0	3	1084.244	0	736180.672818	0	
26	0	1093.998	0	8	90	100	751	0.0	8	1094.734	1	736180.672941	0	
27	0	1101.973	0	8	90	100	951	9.0	8	1102.616	1	736180.673033	0	
28	0	1109.716	0	5	0	100	601	4.5	5	1110.630	1	736180.673125	0	
29	0	1120.954	0	3	-60	100	901	9.0	2	1121.602	0	736180.673253	0	
30	0	1128.942	1	5	0	100	851	4.5	3	1129.759	0	736180.673346	0	
31	0	1139.483	0	7	60	100	901	4.5	6	1140.269	0	736180.673467	0	
32	0	1147.995	0	2	-90	100	601	9.0	2	1148.830	1	736180.673566	0	
33	0	1161.108	0	3	-60	100	501	0.0	3	1161.781	1	736180.673719	0	
34	0	1168.471	0	8	90	100	751	4.5	8	1169.125	1	736180.673803	0	
35	0	1176.438	0	6	30	100	701	0.0	6	1177.222	1	736180.673896	0	
36	0	1186.468	0	5	0	100	801	4.5	6	1187.167	0	736180.674012	0	
37	0	1196.419	0	4	-30	100	551	0.0	3	1197.181	0	736180.674126	0	
38	0	1204.533	0	8	90	100	1001	9.0	8	1205.580	1	736180.674223	0	
39	0	1211.468	0	7	60	100	651	4.5	7	1212.383	1	736180.674301	0	
40	0	1218.287	0	6	30	100	851	9.0	6	1219.147	1	736180.674380	0	
41	0	1228.983	0	2	-90	100	1001	0.0	3	1229.567	0	736180.674503	0	
42	0	1237.958	0	4	-30	100	851	4.5	4	1238.684	1	736180.674607	0	
43	0	1246.199	0	4	-30	100	951	0.0	4	1246.831	1	736180.674703	0	
44	0	1255.194	0	3	-60	100	551	4.5	4	1255.973	0	736180.674806	0	
45	0	1267.017	0	5	0	100	751	0.0	6	1267.907	0	736180.674944	0	
46	0	1279.505	0	8	90	100	801	9.0	8	1280.459	1	736180.675090	0	
47	0	1286.601	0	2	-90	100	601	4.5	3	1287.348	0	736180.675170	0	
48	0	1299.405	0	4	-30	100	501	0.0	4	1300.368	1	736180.675320	0	
49	0	1309.774	0	7	60	100	701	9.0	7	1310.536	1	736180.675438	0	
50	0	1315.989	0	7	60	100	901	4.5	5	1316.633	0	736180.675510	0	
51	0	1322.905	0	8	90	100	951	0.0	8	1323.758	1	736180.675591	0	
52	0	1330.048	0	6	30	100	901	9.0	6	1330.888	1	736180.675673	0	
53	0	1339.166	0	2	-90	100	501	0.0	2	1339.793	1	736180.675778	0	
54	0	1349.494	0	5	0	100	751	4.5	4	1350.178	0	736180.675898	0	
55	0	1359.953	0	6	30	100	601	0.0	5	1361.726	0	736180.676031	0	
56	0	1368.407	0	3	-60	100	851	9.0	2	1369.039	0	736180.676118	0	
57	0	1380.963	0	6	30	100	551	0.0	6	1381.942	1	736180.676264	0	
58	0	1390.437	0	5	0	100	801	4.5	6	1391.110	0	736180.676372	0	
59	0	1401.274	0	7	60	100	701	4.5	7	1402.146	1	736180.676498	0	
60	0	1411.771	0	6	30	100	1001	0.0	7	1412.370	0	736180.676619	0	
61	0	1422.940	0	3	-60	100	501	4.5	3	1423.985	1	736180.676751	0	
62	0	1431.172	0	4	-30	100	1001	0.0	4	1431.725	1	736180.676843	0	
63	0	1439.736	0	4	-30	100	551	4.5	4	1440.527	1	736180.676943	0	
64	0	1449.331	0	8	90	100	751	9.0	8	1450.007	1	736180.677054	0	
65	0	1456.799	0	2	-90	100	801	4.5	3	1457.631	0	736180.677141	0	
66	0	1468.209	0	2	-90	100	601	9.0	3	1469.210	0	736180.677274	0	
67	0	1480.141	0	5	0	100	901	4.5	5	1481.055	1	736180.677412	0	
68	0	1488.901	0	3	-60	100	851	0.0	3	1489.496	1	736180.677513	0	
69	0	1496.044	0	7	60	100	651	0.0	7	1496.906	1	736180.677594	0	
70	0	1503.270	0	8	90	100	951	4.5	8	1503.972	1	736180.677678	0	
71	0	1510.461	0	2	-90	100	1001	0.0	3	1511.130	0	736180.677761	0	
72	0	1520.580	0	6	30	100	651	4.5	6	1521.482	1	736180.677879	0	
73	0	1530.732	0	5	0	100	751	9.0	5	1531.957	1	736180.678001	0	
74	0	1540.567	0	3	-60	100	551	0.0	2	1541.352	0	736180.678110	0	
75	0	1554.585	0	7	60	100	601	9.0	6	1555.470	0	736180.678273	0	
76	0	1568.161	0	5	0	100	801	4.5	5	1569.031	1	736180.678429	0	
77	0	1575.516	0	4	-30	100	501	9.0	4	1576.370	1	736180.678515	0	
78	0	1584.177	0	6	30	100	701	4.5	6	1584.943	1	736180.678614	0	
79	0	1592.789	0	2	-90	100	901	9.0	3	1593.753	0	736180.678716	0	
80	0	1604.996	0	8	90	100	851	4.5	8	1605.776	1	736180.678855	0	
81	0	1611.355	0	3	-60	100	651	9.0	5	1612.245	0	736180.678930	0	
82	0	1618.955	0	8	90	100	751	0.0	8	1619.632	1	736180.679016	0	
83	0	1625.964	0	4	-30	100	1001	4.5	5	1626.710	0	736180.679098	0	
84	0	1634.294	0	7	60	100	701	9.0	8	1635.128	0	736180.679195	0	
85	0	1651.384	0	4	-30	100	501	4.5	4	1652.345	1	736180.679394	0	
86	0	1665.535	0	2	-90	100	851	9.0	4	1666.382	0	736180.679557	0	
87	0	1677.042	0	5	0	100	951	4.5	6	1677.646	0	736180.679689	0	
88	0	1688.327	0	6	30	100	551	0.0	5	1689.322	0	736180.679821	0	
89	0	1699.114	0	8	90	100	901	4.5	8	1700.072	1	736180.679946	0	
90	0	1705.825	0	7	60	100	601	9.0	7	1706.602	1	736180.680023	0	
91	0	1712.482	0	5	0	100	801	0.0	4	1713.023	0	736180.680099	0	
92	0	1742.572	0	6	30	100	601	9.0	7	1743.527	0	736180.680449	0	
93	0	1764.094	0	2	-90	100	901	9.0	2	1764.825	1	736180.680697	0	
94	0	1777.326	0	3	-60	100	751	4.5	4	1778.478	0	736180.680853	0	
95	0	1789.577	0	8	90	100	851	9.0	8	1790.256	1	736180.680992	0	
96	0	1795.827	0	7	60	100	951	0.0	7	1796.574	1	736180.681065	0	
97	0	1804.412	0	3	-60	100	701	4.5	5	1805.384	0	736180.681165	0	
98	0	1813.102	0	4	-30	100	501	0.0	5	1814.007	0	736180.681264	0	
99	0	1820.564	0	5	0	100	551	0.0	5	1821.478	1	736180.681351	0	
100	0	1826.913	0	4	-30	100	651	9.0	3	1827.713	0	736180.681425	0	
101	0	1878.718	1	5	0	100	651	0.0	3	1886.015	0	736180.682098	0	
102	0	1924.659	0	6	30	100	801	9.0	-1	-1.000	0	736180.682719	0	
103	0	1953.681	0	8	90	100	501	9.0	8	1957.738	1	736180.682929	0	
104	0	1971.101	0	2	-90	100	601	4.5	3	1972.395	0	736180.683098	0	
105	0	1985.572	0	3	-60	100	701	9.0	-1	-1.000	0	736180.683424	0	
106	0	2006.884	0	2	-90	100	551	4.5	3	2007.990	0	736180.683510	0	
107	0	2022.903	0	6	30	100	851	9.0	7	2024.241	0	736180.683698	0	
108	0	2092.079	0	7	60	100	1001	4.5	8	2093.374	0	736180.684498	0	
109	0	2102.006	0	4	-30	100	751	4.5	3	2106.529	0	736180.684651	0	
110	0	2134.493	0	3	-60	100	901	9.0	3	2135.512	1	736180.684986	0	
111	0	2145.863	0	7	60	100	651	4.5	6	2147.607	0	736180.685125	0	
112	0	2160.697	0	8	90	100	701	9.0	8	2162.003	1	736180.685292	0	
113	0	2169.634	0	8	90	100	951	9.0	8	2170.578	1	736180.685392	0	
114	0	2177.990	0	4	-30	100	851	0.0	5	2178.837	0	736180.685487	0	
