Trial	CorrectionTrial?	StartTime	CenterReward?	SpkrIdx	SpkrPos	duration	HoldTime	Atten	Response	RespTime	Correct	ComputerTime	SoundOrLED	
1	0	951.191	0	3	-60	250	501	4.5	2	953.219	0	736126.591271	0	
2	0	977.429	0	6	30	250	601	0.0	3	983.095	0	736126.591617	1	
3	0	1015.673	0	7	60	250	1001	0.0	7	1018.542	1	736126.592027	0	
4	0	1035.785	0	4	-30	250	651	4.5	4	1037.217	1	736126.592243	0	
5	0	1056.431	0	2	-90	250	801	9.0	4	1057.822	0	736126.592481	0	
6	0	1065.433	0	7	60	250	701	4.5	6	1069.344	0	736126.592615	1	
7	0	1091.584	0	8	90	250	751	9.0	8	1092.579	1	736126.592885	1	
8	0	1099.395	0	6	30	250	551	0.0	7	1100.250	0	736126.592973	0	
9	0	1111.621	0	2	-90	250	851	0.0	8	1112.350	0	736126.593114	1	
10	0	1133.589	0	8	90	250	901	9.0	8	1134.373	1	736126.593369	0	
11	0	1148.142	0	4	-30	250	701	9.0	4	1149.060	1	736126.593537	0	
12	0	1160.302	0	5	0	250	551	4.5	2	1161.631	0	736126.593683	0	
13	0	1176.733	0	6	30	250	901	4.5	5	1178.035	0	736126.593873	1	
14	0	1184.407	0	6	30	250	801	9.0	6	1185.304	1	736126.593957	0	
15	0	1198.591	0	2	-90	250	751	4.5	2	1199.617	1	736126.594123	1	
16	0	1207.947	1	4	-30	250	501	0.0	4	1209.200	1	736126.594234	1	
17	0	1219.812	0	5	0	250	601	4.5	3	1223.998	0	736126.594404	1	
18	0	1235.640	0	8	90	250	851	0.0	8	1236.515	1	736126.594550	1	
19	0	1240.018	0	8	90	250	1001	0.0	8	1241.286	1	736126.594605	0	
20	0	1249.640	0	4	-30	250	951	4.5	4	1250.732	1	736126.594714	1	
21	0	1259.985	0	3	-60	250	701	9.0	3	1260.958	1	736126.594833	1	
22	0	1267.472	0	3	-60	250	501	0.0	4	1268.439	0	736126.594919	0	
23	0	1274.790	0	3	-60	250	851	9.0	4	1276.448	0	736126.595012	1	
24	0	1282.997	0	5	0	250	551	0.0	6	1284.475	0	736126.595105	1	
25	0	1292.503	0	2	-90	250	901	4.5	4	1293.548	0	736126.595210	0	
26	0	1303.566	0	7	60	250	951	0.0	8	1304.479	0	736126.595336	1	
27	0	1319.569	0	7	60	250	651	0.0	7	1320.371	1	736126.595521	0	
28	0	1330.326	0	5	0	250	801	9.0	5	1331.582	1	736126.595651	0	
29	0	1334.130	0	3	-60	250	1001	4.5	3	1334.855	1	736126.595689	1	
30	0	1340.600	0	8	90	250	751	9.0	8	1341.375	1	736126.595765	0	
31	0	1348.061	0	6	30	250	901	9.0	7	1350.408	0	736126.595868	1	
32	0	1358.057	0	8	90	250	701	0.0	5	1358.738	0	736126.595967	1	
33	0	1363.882	0	5	0	250	601	0.0	5	1364.837	1	736126.596035	0	
34	0	1388.253	0	2	-90	250	801	9.0	3	1388.982	0	736126.596315	0	
35	0	1435.637	0	5	0	250	951	9.0	6	1436.557	0	736126.596865	1	
36	0	1445.553	0	2	-90	250	751	0.0	2	1446.710	1	736126.596983	1	
37	0	1456.352	0	4	-30	250	551	0.0	4	1457.139	1	736126.597104	0	
38	0	1465.952	0	7	60	250	851	4.5	8	1466.680	0	736126.597215	0	
39	0	1476.385	0	8	90	250	651	0.0	8	1477.405	1	736126.597338	1	
40	0	1484.810	0	8	90	250	501	4.5	8	1485.579	1	736126.597433	0	
41	0	1495.529	0	4	-30	250	651	9.0	4	1496.427	1	736126.597558	0	
42	0	1503.995	0	2	-90	250	901	0.0	3	1504.943	0	736126.597657	1	
43	0	1513.928	0	6	30	250	1001	9.0	5	1514.586	0	736126.597770	0	
44	0	1526.078	0	3	-60	250	801	0.0	4	1527.193	0	736126.597914	1	
45	0	1535.563	0	5	0	250	551	9.0	4	1536.509	0	736126.598022	0	
46	0	1544.581	0	5	0	250	601	4.5	7	1545.623	0	736126.598128	1	
47	0	1553.152	0	3	-60	250	501	0.0	4	1554.448	0	736126.598229	0	
48	0	1561.974	0	4	-30	250	701	9.0	4	1563.578	1	736126.598336	1	
49	0	1576.596	0	6	30	250	751	0.0	8	1577.593	0	736126.598497	1	
50	0	1594.483	0	7	60	250	951	4.5	7	1595.494	1	736126.598705	1	
51	0	1605.709	0	7	60	250	901	0.0	7	1607.004	1	736126.598838	1	
52	0	1618.019	0	2	-90	250	501	9.0	3	1618.749	0	736126.598975	0	
53	0	1627.133	0	4	-30	250	651	9.0	4	1628.389	1	736126.599086	1	
54	0	1637.369	0	7	60	250	751	0.0	8	1638.046	0	736126.599199	0	
55	0	1648.302	0	3	-60	250	601	4.5	4	1650.094	0	736126.599336	0	
56	0	1658.512	0	6	30	250	851	0.0	5	1659.330	0	736126.599444	0	
57	0	1667.478	0	3	-60	250	801	0.0	4	1668.559	0	736126.599550	0	
58	0	1676.692	0	4	-30	250	1001	4.5	4	1680.299	1	736126.599686	1	
59	0	1690.639	1	3	-60	250	701	4.5	3	1691.609	1	736126.599817	1	
60	0	1699.102	0	5	0	250	551	0.0	8	1702.980	0	736126.599949	0	
61	0	1715.481	1	2	-90	250	1001	9.0	2	1721.248	1	736126.600160	0	
62	0	1731.758	0	5	0	250	701	4.5	8	1732.702	0	736126.600293	1	
63	0	1748.082	0	7	60	250	601	4.5	7	1749.277	1	736126.600485	1	
64	0	1760.753	0	4	-30	250	801	9.0	3	1762.550	0	736126.600638	0	
65	0	1770.554	1	6	30	250	901	0.0	7	1771.618	0	736126.600743	1	
66	0	1784.812	0	7	60	250	551	9.0	6	1786.828	0	736126.600919	0	
67	0	1793.685	0	2	-90	250	501	0.0	3	1794.693	0	736126.601010	1	
68	0	1812.311	0	6	30	250	851	9.0	8	1813.342	0	736126.601226	0	
69	0	1822.693	0	8	90	250	751	9.0	8	1823.567	1	736126.601344	0	
70	0	1831.002	0	2	-90	250	651	4.5	2	1831.884	1	736126.601441	0	
71	0	1839.359	1	6	30	250	601	9.0	7	1841.263	0	736126.601549	1	
72	0	1852.483	1	5	0	250	501	4.5	4	1854.749	0	736126.601705	1	
73	0	1863.767	1	2	-90	250	551	4.5	3	1864.435	0	736126.601820	1	
74	0	1872.212	0	6	30	250	701	0.0	3	1876.888	0	736126.601962	0	
75	0	1888.014	0	7	60	250	1001	4.5	8	1888.904	0	736126.602101	0	
76	0	1898.245	0	8	90	250	851	0.0	8	1899.288	1	736126.602220	1	
77	0	1907.074	1	7	60	250	951	0.0	8	1908.146	0	736126.602323	1	
78	0	1918.700	0	8	90	250	751	9.0	8	1919.825	1	736126.602459	1	
79	0	1931.614	0	4	-30	250	801	9.0	4	1932.641	1	736126.602606	0	
80	0	1939.717	0	8	90	250	901	4.5	8	1941.494	1	736126.602710	0	
81	0	1952.967	0	3	-60	250	551	9.0	3	1953.841	1	736126.602852	1	
82	0	1959.430	0	4	-30	250	801	4.5	4	1960.635	1	736126.602931	1	
83	0	1969.056	0	5	0	250	851	4.5	4	1969.981	0	736126.603040	0	
84	0	1977.178	0	3	-60	250	751	0.0	4	1978.212	0	736126.603134	0	
85	0	1987.569	0	3	-60	250	601	0.0	3	1988.447	1	736126.603253	1	
86	0	1995.852	0	5	0	250	701	4.5	8	1997.685	0	736126.603359	1	
87	0	2009.783	0	8	90	250	501	4.5	8	2010.684	1	736126.603510	0	
88	0	2017.213	0	3	-60	250	901	9.0	3	2018.192	1	736126.603597	1	
89	0	2025.210	0	6	30	250	1001	9.0	6	2026.422	1	736126.603692	0	
90	0	2029.326	0	2	-90	250	651	0.0	3	2030.057	0	736126.603735	0	
91	0	2048.394	1	7	60	250	1001	9.0	7	2049.366	1	736126.603958	0	
92	0	2058.207	0	6	30	250	801	4.5	7	2062.211	0	736126.604107	1	
93	0	2073.552	0	4	-30	250	851	0.0	4	2074.317	1	736126.604248	0	
94	0	2080.962	0	2	-90	250	751	9.0	2	2082.249	1	736126.604338	1	
95	0	2089.501	0	8	90	250	701	9.0	8	2090.476	1	736126.604434	1	
96	0	2099.858	0	2	-90	250	951	0.0	3	2100.591	0	736126.604552	0	
97	0	2112.356	0	6	30	250	651	9.0	6	2113.357	1	736126.604698	1	
98	0	2116.847	0	6	30	250	501	0.0	7	2117.885	0	736126.604751	0	
99	0	2134.500	0	4	-30	250	601	0.0	4	2135.928	1	736126.604960	1	
100	0	2143.833	0	4	-30	250	901	9.0	4	2144.965	1	736126.605064	0	
101	0	2152.079	0	7	60	250	901	9.0	7	2153.001	1	736126.605158	0	
102	0	2161.705	0	5	0	250	701	0.0	4	2162.858	0	736126.605271	0	
103	0	2172.320	0	8	90	250	851	9.0	8	2172.963	1	736126.605391	0	
104	0	2180.049	0	5	0	250	951	4.5	7	2181.334	0	736126.605485	0	
105	0	2189.395	0	7	60	250	551	9.0	8	2190.331	0	736126.605589	1	
106	0	2202.651	0	3	-60	250	801	0.0	4	2203.763	0	736126.605744	0	
107	0	2227.149	0	7	60	250	601	4.5	8	2229.100	0	736126.606039	1	
108	0	2247.427	0	8	90	250	751	9.0	8	2248.621	1	736126.606264	1	
109	0	2255.515	0	4	-30	250	501	9.0	3	2257.036	0	736126.606361	1	
110	0	2362.338	0	2	-90	250	1001	0.0	3	2363.677	0	736126.607595	1	
111	0	2371.807	0	5	0	250	801	9.0	8	2374.213	0	736126.607718	1	
112	0	2411.542	0	3	-60	250	901	4.5	-1	-1.000	0	736126.608323	0	
