Trial	CorrectionTrial?	StartTime	CenterReward?	F1	F2	F3	F4	HoldTime	Atten	Pitch	Side	Response	RespTime	Correct	
1	0	23.3409	0	730	2058	2857	4205	851	-3.5	200	1	0	24.6601	0	
2	1	32.5342	1	730	2058	2857	4205	851	-3.5	200	1	1	42.7658	1	
3	0	61.2076	0	460	1105	2857	4205	501	5.5	200	0	0	64.7736	1	
4	0	86.9325	0	460	1105	2857	4205	551	8.5	200	0	1	93.8551	0	
5	1	102.4732	0	460	1105	2857	4205	551	8.5	200	0	1	104.0424	0	
6	1	120.0067	0	460	1105	2857	4205	551	8.5	200	0	0	123.8421	1	
7	0	131.5914	0	460	1105	2857	4205	601	-3.5	200	0	0	132.6746	1	
8	0	144.2756	1	730	2058	2857	4205	801	2.5	200	1	0	147.1640	0	
9	1	153.1327	0	730	2058	2857	4205	801	2.5	200	1	0	155.6727	0	
10	1	161.4954	1	730	2058	2857	4205	801	2.5	200	1	1	167.2808	1	
11	0	179.1556	1	730	2058	2857	4205	701	-0.5	200	1	0	185.5241	0	
12	1	192.4050	0	730	2058	2857	4205	701	-0.5	200	1	0	195.3900	0	
13	1	202.7123	0	730	2058	2857	4205	701	-0.5	200	1	1	207.1922	1	
14	0	219.3007	0	460	1105	2857	4205	751	-0.5	200	0	0	220.8712	1	
15	0	227.2469	0	460	1105	2857	4205	1001	2.5	200	0	0	228.2724	1	
16	0	234.6448	1	730	2058	2857	4205	901	5.5	200	1	0	236.5951	0	
17	1	242.9371	1	730	2058	2857	4205	901	5.5	200	1	1	248.9534	1	
18	0	256.6059	0	730	2058	2857	4205	651	8.5	200	1	1	259.0595	1	
19	0	272.3422	0	730	2058	2857	4205	501	2.5	200	1	0	274.1139	0	
20	1	281.1300	0	730	2058	2857	4205	501	2.5	200	1	0	282.9560	0	
21	1	290.1519	1	730	2058	2857	4205	501	2.5	200	1	1	293.7584	1	
22	0	306.4204	0	460	1105	2857	4205	1001	8.5	200	0	1	309.1589	0	
23	1	317.7030	0	460	1105	2857	4205	1001	8.5	200	0	0	322.6574	1	
24	0	329.9173	0	460	1105	2857	4205	701	-0.5	200	0	0	331.4842	1	
25	0	337.1256	0	460	1105	2857	4205	851	-3.5	200	0	0	338.9911	1	
26	0	344.3423	0	730	2058	2857	4205	601	5.5	200	1	1	345.7139	1	
27	0	356.9088	0	730	2058	2857	4205	901	-0.5	200	1	1	358.8542	1	
28	0	371.4305	0	730	2058	2857	4205	651	8.5	200	1	0	373.5871	0	
29	1	378.6654	0	730	2058	2857	4205	651	8.5	200	1	0	379.5756	0	
30	1	385.0597	1	730	2058	2857	4205	651	8.5	200	1	0	385.9143	0	
31	1	391.2603	1	730	2058	2857	4205	651	8.5	200	1	1	398.8904	1	
32	0	408.1529	0	730	2058	2857	4205	551	-3.5	200	1	0	410.5168	0	
33	1	416.9693	0	730	2058	2857	4205	551	-3.5	200	1	0	419.7249	0	
34	1	426.7192	0	730	2058	2857	4205	551	-3.5	200	1	1	431.0547	1	
35	0	444.4676	0	460	1105	2857	4205	951	5.5	200	0	0	445.8549	1	
36	0	453.6983	0	460	1105	2857	4205	751	2.5	200	0	0	455.1399	1	
37	0	460.6335	0	460	1105	2857	4205	751	-0.5	200	0	0	461.9734	1	
38	0	467.1059	0	460	1105	2857	4205	851	2.5	200	0	0	468.5066	1	
39	0	475.5580	0	730	2058	2857	4205	701	-3.5	200	1	1	477.1689	1	
40	0	489.1102	0	460	1105	2857	4205	1001	5.5	200	0	1	491.1704	0	
41	1	499.5979	0	460	1105	2857	4205	1001	5.5	200	0	0	500.7794	1	
42	0	506.7202	0	730	2058	2857	4205	801	8.5	200	1	1	508.2499	1	
43	0	517.1102	0	460	1105	2857	4205	901	8.5	200	0	1	518.9335	0	
44	1	527.2742	0	460	1105	2857	4205	901	8.5	200	0	0	528.2593	1	
45	0	534.0764	0	730	2058	2857	4205	551	5.5	200	1	1	535.7609	1	
46	0	542.0026	0	730	2058	2857	4205	501	2.5	200	1	1	544.2431	1	
47	0	551.9994	0	730	2058	2857	4205	951	-0.5	200	1	1	553.6612	1	
48	0	561.1303	1	460	1105	2857	4205	601	-3.5	200	0	0	563.3067	1	
49	0	569.0373	0	460	1105	2857	4205	1001	5.5	200	0	0	570.2419	1	
50	0	575.0320	0	730	2058	2857	4205	851	5.5	200	1	1	580.8155	1	
51	0	590.0536	0	730	2058	2857	4205	501	-0.5	200	1	1	592.3222	1	
52	0	600.0317	0	460	1105	2857	4205	701	2.5	200	0	0	601.3788	1	
53	0	607.9659	0	460	1105	2857	4205	801	-0.5	200	0	0	609.1017	1	
54	0	613.6235	0	730	2058	2857	4205	951	8.5	200	1	1	622.0005	1	
55	0	631.4082	0	730	2058	2857	4205	751	2.5	200	1	1	633.5599	1	
56	0	642.7970	1	460	1105	2857	4205	901	8.5	200	0	1	644.6537	0	
57	1	654.7467	0	460	1105	2857	4205	901	8.5	200	0	1	657.2333	0	
58	1	664.6979	0	460	1105	2857	4205	901	8.5	200	0	0	665.1768	1	
59	0	672.3124	0	460	1105	2857	4205	601	-3.5	200	0	0	673.5589	1	
60	0	677.8046	0	730	2058	2857	4205	551	-3.5	200	1	1	679.3636	1	
61	0	687.7611	0	730	2058	2857	4205	801	8.5	200	1	1	689.7598	1	
62	0	699.9510	0	460	1105	2857	4205	601	2.5	200	0	1	701.7430	0	
63	1	709.7558	0	460	1105	2857	4205	601	2.5	200	0	0	710.8425	1	
64	0	716.0569	0	460	1105	2857	4205	701	5.5	200	0	1	717.7513	0	
65	1	725.5355	1	460	1105	2857	4205	701	5.5	200	0	0	727.3696	1	
66	0	733.1848	0	730	2058	2857	4205	551	2.5	200	1	1	734.6341	1	
67	0	741.4100	0	730	2058	2857	4205	651	5.5	200	1	1	743.5891	1	
68	0	759.7356	0	730	2058	2857	4205	851	-0.5	200	1	1	761.7887	1	
69	0	770.2781	0	730	2058	2857	4205	1001	-3.5	200	1	1	772.8517	1	
70	0	778.7983	1	460	1105	2857	4205	501	-0.5	200	0	0	780.5228	1	
71	0	786.6999	0	460	1105	2857	4205	951	-3.5	200	0	0	788.1501	1	
72	0	792.8482	0	460	1105	2857	4205	751	8.5	200	0	1	794.9000	0	
73	1	814.9080	0	460	1105	2857	4205	751	8.5	200	0	0	816.0392	1	
74	0	822.1080	1	730	2058	2857	4205	751	8.5	200	1	1	824.3984	1	
75	0	830.6463	0	460	1105	2857	4205	601	8.5	200	0	1	832.4749	0	
76	1	840.0151	0	460	1105	2857	4205	601	8.5	200	0	0	841.3146	1	
77	0	848.2859	0	730	2058	2857	4205	801	2.5	200	1	1	849.6255	1	
78	0	856.2980	0	460	1105	2857	4205	701	-3.5	200	0	0	857.4500	1	
79	0	862.4937	0	460	1105	2857	4205	951	-0.5	200	0	0	864.2073	1	
80	0	868.7967	0	460	1105	2857	4205	551	2.5	200	0	1	870.6005	0	
81	1	878.7669	0	460	1105	2857	4205	551	2.5	200	0	0	879.9588	1	
82	0	884.7523	0	730	2058	2857	4205	1001	-0.5	200	1	1	886.2270	1	
83	0	893.1058	1	730	2058	2857	4205	651	5.5	200	1	1	894.9640	1	
84	0	902.9104	0	730	2058	2857	4205	901	-3.5	200	1	0	905.3649	0	
85	1	938.4040	0	730	2058	2857	4205	901	-3.5	200	1	1	940.6820	1	
86	0	947.4005	0	460	1105	2857	4205	851	5.5	200	0	1	949.1489	0	
87	1	955.0514	0	460	1105	2857	4205	851	5.5	200	0	1	959.1491	0	
88	1	969.0535	0	460	1105	2857	4205	851	5.5	200	0	1	970.5577	0	
89	1	979.5187	1	460	1105	2857	4205	851	5.5	200	0	0	980.8717	1	
90	0	987.4710	0	730	2058	2857	4205	851	8.5	200	1	1	989.0361	1	
91	0	1010.7100	0	730	2058	2857	4205	951	-0.5	200	1	1	1012.4662	1	
92	0	1018.7075	0	460	1105	2857	4205	501	-0.5	200	0	0	1020.1377	1	
93	0	1028.7261	0	730	2058	2857	4205	601	5.5	200	1	1	1030.3848	1	
94	0	1037.6325	0	730	2058	2857	4205	1001	-3.5	200	1	1	1038.7594	1	
95	0	1043.9353	0	460	1105	2857	4205	651	5.5	200	0	0	1044.7004	1	
96	0	1051.4137	0	730	2058	2857	4205	801	2.5	200	1	1	1053.0696	1	
97	0	1065.1650	0	460	1105	2857	4205	701	2.5	200	0	0	1066.3784	1	
98	0	1072.1813	0	460	1105	2857	4205	551	-3.5	200	0	0	1073.4649	1	
99	0	1078.2793	0	460	1105	2857	4205	751	8.5	200	0	1	1079.2812	0	
100	1	1087.6968	0	460	1105	2857	4205	751	8.5	200	0	0	1088.3980	1	
101	0	1101.6324	0	730	2058	2857	4205	701	8.5	200	1	1	1103.5192	1	
102	0	1110.6471	0	460	1105	2857	4205	751	-0.5	200	0	0	1111.6071	1	
103	0	1118.5940	0	460	1105	2857	4205	801	2.5	200	0	0	1119.5141	1	
104	0	1124.5366	0	460	1105	2857	4205	951	5.5	200	0	1	1126.1185	0	
105	1	1142.9771	0	460	1105	2857	4205	951	5.5	200	0	0	1143.6042	1	
106	0	1156.5067	0	730	2058	2857	4205	851	2.5	200	1	1	1158.9502	1	
107	0	1165.0530	0	730	2058	2857	4205	551	-0.5	200	1	1	1166.8482	1	
108	0	1172.6796	0	730	2058	2857	4205	651	5.5	200	1	1	1174.4370	1	
109	0	1181.0238	0	460	1105	2857	4205	501	8.5	200	0	0	1182.3251	1	
110	0	1188.6328	0	460	1105	2857	4205	1001	-3.5	200	0	0	1189.9494	1	
111	0	1194.0333	0	730	2058	2857	4205	601	-3.5	200	1	1	1195.6719	1	
112	0	1202.6000	1	460	1105	2857	4205	751	5.5	200	0	1	1204.8613	0	
113	1	1213.2721	0	460	1105	2857	4205	751	5.5	200	0	0	1213.9817	1	
114	0	1218.8619	1	730	2058	2857	4205	801	5.5	200	1	1	1220.9637	1	
115	0	1227.3613	0	460	1105	2857	4205	551	2.5	200	0	0	1228.2876	1	
116	0	1240.8504	0	730	2058	2857	4205	901	2.5	200	1	1	1242.6760	1	
117	0	1250.1551	0	730	2058	2857	4205	701	-3.5	200	1	1	1251.9195	1	
118	0	1258.5151	0	730	2058	2857	4205	601	8.5	200	1	1	1259.8071	1	
119	0	1275.6915	0	730	2058	2857	4205	1001	-0.5	200	1	0	1277.3390	0	
