Trial	CorrectionTrial?	StartTime	CenterReward?	F1	F2	F3	F4	HoldTime	Atten	Pitch	Side	Response	RespTime	Correct	
1	0	342.9083	0	730	2058	2857	4205	751	8.5	200	1	0	345.6614	0	
2	1	352.0479	0	730	2058	2857	4205	751	8.5	200	1	1	359.7786	1	
3	0	364.8728	0	730	2058	2857	4205	601	5.5	200	1	0	366.8950	0	
4	1	373.2871	0	730	2058	2857	4205	601	5.5	200	1	1	377.1012	1	
5	0	384.8425	0	460	1105	2857	4205	951	8.5	200	0	0	385.9633	1	
6	0	388.2374	0	730	2058	2857	4205	551	-0.5	200	1	1	389.8877	1	
7	0	397.6147	0	460	1105	2857	4205	501	2.5	200	0	0	399.5297	1	
8	0	403.9998	0	730	2058	2857	4205	801	-3.5	200	1	1	405.7775	1	
9	0	415.1874	0	730	2058	2857	4205	901	11.5	200	1	1	416.8958	1	
10	0	427.5087	1	460	1105	2857	4205	851	-0.5	200	0	0	428.7249	1	
11	0	433.9306	0	460	1105	2857	4205	1001	5.5	200	0	0	435.0521	1	
12	0	443.5075	0	460	1105	2857	4205	651	-3.5	200	0	0	444.3981	1	
13	0	452.6491	0	460	1105	2857	4205	751	14.5	200	0	1	454.3022	0	
14	1	462.3954	0	460	1105	2857	4205	751	14.5	200	0	0	463.8529	1	
15	0	469.6143	0	460	1105	2857	4205	801	11.5	200	0	1	471.2113	0	
16	1	476.5267	0	460	1105	2857	4205	801	11.5	200	0	1	477.4146	0	
17	1	484.8332	0	460	1105	2857	4205	801	11.5	200	0	0	485.8741	1	
18	0	491.6531	0	730	2058	2857	4205	851	14.5	200	1	0	493.0731	0	
19	1	499.2426	0	730	2058	2857	4205	851	14.5	200	1	1	500.9875	1	
20	0	510.7218	1	730	2058	2857	4205	1001	2.5	200	1	0	513.2513	0	
21	1	520.2209	0	730	2058	2857	4205	1001	2.5	200	1	0	521.7960	0	
22	1	527.9311	0	730	2058	2857	4205	1001	2.5	200	1	1	529.6486	1	
23	0	545.7825	0	460	1105	2857	4205	951	14.5	200	0	0	547.0863	1	
24	0	552.3097	1	460	1105	2857	4205	901	-3.5	200	0	0	556.8786	1	
25	0	561.8027	1	460	1105	2857	4205	601	8.5	200	0	0	568.0965	1	
26	0	572.8330	1	460	1105	2857	4205	701	5.5	200	0	0	579.2654	1	
27	0	584.3558	0	730	2058	2857	4205	651	11.5	200	1	1	587.1720	1	
28	0	593.8578	0	730	2058	2857	4205	501	14.5	200	1	1	596.1019	1	
29	0	606.1799	0	730	2058	2857	4205	751	8.5	200	1	1	608.2187	1	
30	0	618.6659	0	730	2058	2857	4205	901	-0.5	200	1	0	620.2978	0	
31	1	627.1332	0	730	2058	2857	4205	901	-0.5	200	1	0	628.7607	0	
32	1	635.7303	1	730	2058	2857	4205	901	-0.5	200	1	0	641.7848	0	
33	1	649.2090	0	730	2058	2857	4205	901	-0.5	200	1	0	651.5534	0	
34	1	657.8385	0	730	2058	2857	4205	901	-0.5	200	1	1	660.0961	1	
35	0	668.2138	0	730	2058	2857	4205	701	5.5	200	1	1	670.0172	1	
36	0	680.9875	1	460	1105	2857	4205	601	11.5	200	0	0	686.3849	1	
37	0	690.9247	0	730	2058	2857	4205	551	2.5	200	1	1	693.7674	1	
38	0	703.0224	1	460	1105	2857	4205	851	-0.5	200	0	0	708.3117	1	
39	0	713.1025	0	730	2058	2857	4205	651	-3.5	200	1	0	715.2937	0	
40	1	721.7860	0	730	2058	2857	4205	651	-3.5	200	1	0	723.9750	0	
41	1	731.5879	0	730	2058	2857	4205	651	-3.5	200	1	1	734.0806	1	
42	0	745.2270	0	460	1105	2857	4205	951	2.5	200	0	0	746.3997	1	
43	0	751.5208	0	460	1105	2857	4205	801	-0.5	200	0	0	752.8013	1	
44	0	757.0287	0	730	2058	2857	4205	501	8.5	200	1	1	758.7948	1	
45	0	768.6657	0	730	2058	2857	4205	551	11.5	200	1	1	770.6101	1	
46	0	780.2722	0	460	1105	2857	4205	501	8.5	200	0	0	781.6628	1	
47	0	787.0938	0	730	2058	2857	4205	801	14.5	200	1	1	788.5314	1	
48	0	798.8527	0	730	2058	2857	4205	851	5.5	200	1	0	800.2426	0	
49	1	805.2047	0	730	2058	2857	4205	851	5.5	200	1	1	807.3334	1	
50	0	817.4006	0	460	1105	2857	4205	901	14.5	200	0	1	819.1193	0	
51	1	825.6736	0	460	1105	2857	4205	901	14.5	200	0	0	826.9798	1	
52	0	832.8293	0	730	2058	2857	4205	651	-0.5	200	1	1	834.4768	1	
53	0	846.9493	0	460	1105	2857	4205	601	5.5	200	0	0	848.1425	1	
54	0	852.7519	1	460	1105	2857	4205	701	11.5	200	0	0	856.3763	1	
55	0	861.3874	0	460	1105	2857	4205	951	2.5	200	0	0	862.5335	1	
56	0	869.8298	0	730	2058	2857	4205	751	2.5	200	1	1	871.1830	1	
57	0	881.7748	0	460	1105	2857	4205	1001	-3.5	200	0	0	883.4521	1	
58	0	888.4813	0	730	2058	2857	4205	651	-3.5	200	1	1	890.2898	1	
59	0	898.9988	0	460	1105	2857	4205	951	2.5	200	0	0	900.7950	1	
60	0	906.7495	0	730	2058	2857	4205	751	2.5	200	1	1	908.3512	1	
61	0	918.0877	0	730	2058	2857	4205	551	11.5	200	1	1	919.9736	1	
62	0	932.3390	0	730	2058	2857	4205	701	5.5	200	1	0	933.4948	0	
63	1	940.3106	0	730	2058	2857	4205	701	5.5	200	1	1	941.9534	1	
64	0	951.7538	0	460	1105	2857	4205	601	-0.5	200	0	0	952.9790	1	
65	0	958.0214	0	730	2058	2857	4205	901	8.5	200	1	1	960.7798	1	
66	0	970.6862	1	730	2058	2857	4205	801	-0.5	200	1	0	974.8130	0	
67	1	984.1416	0	730	2058	2857	4205	801	-0.5	200	1	1	986.6890	1	
68	0	995.9378	0	460	1105	2857	4205	851	8.5	200	0	0	997.7047	1	
69	0	1002.5433	0	460	1105	2857	4205	501	11.5	200	0	1	1004.2846	0	
70	1	1008.8517	0	460	1105	2857	4205	501	11.5	200	0	0	1010.3586	1	
71	0	1016.1824	1	460	1105	2857	4205	601	5.5	200	0	0	1020.7869	1	
72	0	1026.0112	0	730	2058	2857	4205	1001	-3.5	200	1	0	1027.7659	0	
73	1	1034.2003	0	730	2058	2857	4205	1001	-3.5	200	1	1	1036.4747	1	
74	0	1046.4156	0	460	1105	2857	4205	901	14.5	200	0	0	1047.9507	1	
75	0	1053.3333	0	730	2058	2857	4205	951	14.5	200	1	1	1054.8194	1	
76	0	1064.6477	0	460	1105	2857	4205	551	-3.5	200	0	0	1065.7876	1	
77	0	1071.5170	0	730	2058	2857	4205	801	-3.5	200	1	0	1072.7468	0	
78	1	1078.9734	0	730	2058	2857	4205	801	-3.5	200	1	0	1080.7833	0	
79	1	1086.8866	0	730	2058	2857	4205	801	-3.5	200	1	0	1088.8402	0	
80	1	1094.8701	0	730	2058	2857	4205	801	-3.5	200	1	1	1096.4972	1	
81	0	1105.7902	0	460	1105	2857	4205	851	14.5	200	0	0	1107.0065	1	
82	0	1112.1739	0	730	2058	2857	4205	651	11.5	200	1	1	1113.6731	1	
83	0	1122.9071	0	730	2058	2857	4205	701	-0.5	200	1	1	1124.5305	1	
84	0	1136.8084	0	460	1105	2857	4205	701	-0.5	200	0	0	1137.8916	1	
85	0	1142.7328	0	460	1105	2857	4205	1001	-3.5	200	0	0	1144.0339	1	
86	0	1148.5599	0	730	2058	2857	4205	801	8.5	200	1	1	1150.2368	1	
87	0	1159.4118	0	460	1105	2857	4205	501	2.5	200	0	0	1160.4037	1	
88	0	1165.1855	1	730	2058	2857	4205	601	14.5	200	1	0	1170.2972	0	
89	1	1176.1070	0	730	2058	2857	4205	601	14.5	200	1	1	1178.4903	1	
90	0	1188.3967	0	460	1105	2857	4205	751	5.5	200	0	0	1190.1523	1	
91	0	1194.6983	0	460	1105	2857	4205	851	8.5	200	0	1	1196.7407	0	
92	1	1204.0146	0	460	1105	2857	4205	851	8.5	200	0	0	1205.8107	1	
93	0	1211.1708	0	730	2058	2857	4205	901	2.5	200	1	1	1212.5792	1	
94	0	1221.5587	0	460	1105	2857	4205	651	11.5	200	0	1	1223.4540	0	
95	1	1230.1851	0	460	1105	2857	4205	651	11.5	200	0	0	1231.7993	1	
96	0	1237.9845	0	730	2058	2857	4205	951	5.5	200	1	0	1239.4506	0	
97	1	1246.1416	0	730	2058	2857	4205	951	5.5	200	1	1	1247.8676	1	
98	0	1257.7907	0	730	2058	2857	4205	751	-0.5	200	1	1	1259.5550	1	
99	0	1268.2857	1	730	2058	2857	4205	851	8.5	200	1	1	1271.3763	1	
100	0	1280.2676	0	460	1105	2857	4205	901	2.5	200	0	0	1282.3496	1	
101	0	1287.0683	0	460	1105	2857	4205	601	11.5	200	0	1	1288.7516	0	
102	1	1296.7916	1	460	1105	2857	4205	601	11.5	200	0	0	1301.2142	1	
103	0	1305.7824	0	460	1105	2857	4205	951	5.5	200	0	0	1307.1061	1	
104	0	1311.8888	0	730	2058	2857	4205	801	-3.5	200	1	1	1313.5167	1	
105	0	1322.9868	0	460	1105	2857	4205	551	8.5	200	0	0	1324.7132	1	
106	0	1330.3786	0	730	2058	2857	4205	701	11.5	200	1	1	1332.3663	1	
107	0	1340.6944	0	730	2058	2857	4205	501	14.5	200	1	1	1343.8176	1	
108	0	1352.9740	0	460	1105	2857	4205	651	-0.5	200	0	0	1354.2208	1	
109	0	1359.2998	0	730	2058	2857	4205	801	2.5	200	1	1	1360.7861	1	
110	0	1372.7993	0	460	1105	2857	4205	951	14.5	200	0	0	1373.8388	1	
111	0	1378.3055	0	460	1105	2857	4205	601	-3.5	200	0	0	1379.6341	1	
112	0	1384.2129	0	730	2058	2857	4205	1001	5.5	200	1	1	1385.6938	1	
113	0	1394.2476	0	460	1105	2857	4205	551	-3.5	200	0	0	1395.5847	1	
114	0	1401.4190	0	460	1105	2857	4205	501	8.5	200	0	0	1402.6593	1	
115	0	1407.2496	0	460	1105	2857	4205	751	-0.5	200	0	0	1408.2304	1	
116	0	1412.8490	0	460	1105	2857	4205	701	5.5	200	0	1	1414.5217	0	
117	1	1419.6287	0	460	1105	2857	4205	701	5.5	200	0	0	1420.6955	1	
118	0	1426.8314	0	460	1105	2857	4205	651	2.5	200	0	0	1428.1910	1	
119	0	1433.0824	0	730	2058	2857	4205	851	-3.5	200	1	1	1434.0876	1	
120	0	1443.0608	0	730	2058	2857	4205	751	2.5	200	1	1	1445.0853	1	
121	0	1454.9929	1	730	2058	2857	4205	801	-0.5	200	1	1	1458.1400	1	
122	0	1464.0698	0	730	2058	2857	4205	651	8.5	200	1	1	1465.8393	1	
123	0	1476.2104	0	730	2058	2857	4205	1001	11.5	200	1	1	1477.6440	1	
124	0	1485.2004	0	730	2058	2857	4205	951	5.5	200	1	1	1486.4602	1	
125	0	1493.7204	0	460	1105	2857	4205	901	14.5	200	0	1	1495.0279	0	
126	1	1504.6015	0	460	1105	2857	4205	901	14.5	200	0	0	1505.5292	1	
127	0	1510.1308	0	460	1105	2857	4205	851	11.5	200	0	0	1511.3341	1	
128	0	1515.0503	0	730	2058	2857	4205	551	14.5	200	1	1	1516.3231	1	
129	0	1523.6037	0	460	1105	2857	4205	701	11.5	200	0	1	1525.5121	0	
130	1	1533.8535	0	460	1105	2857	4205	701	11.5	200	0	0	1534.7882	1	
131	0	1542.3159	0	460	1105	2857	4205	501	14.5	200	0	0	1543.6212	1	
132	0	1548.6337	0	460	1105	2857	4205	751	2.5	200	0	0	1549.9112	1	
133	0	1553.6577	0	730	2058	2857	4205	601	11.5	200	1	1	1556.0507	1	
134	0	1565.9696	0	460	1105	2857	4205	701	5.5	200	0	0	1567.6414	1	
135	0	1572.2324	0	730	2058	2857	4205	551	14.5	200	1	1	1573.5603	1	
136	0	1582.1698	0	460	1105	2857	4205	901	-0.5	200	0	0	1583.3427	1	
137	0	1587.8355	0	730	2058	2857	4205	851	8.5	200	1	1	1589.8729	1	
138	0	1595.8126	0	730	2058	2857	4205	651	5.5	200	1	1	1597.8083	1	
139	0	1605.6658	0	460	1105	2857	4205	501	8.5	200	0	1	1607.6225	0	
140	1	1614.0270	1	460	1105	2857	4205	501	8.5	200	0	0	1617.5468	1	
141	0	1622.4236	0	730	2058	2857	4205	951	-0.5	200	1	1	1623.8612	1	
142	0	1630.9710	0	730	2058	2857	4205	1001	-3.5	200	1	1	1632.3004	1	
143	0	1642.4292	1	460	1105	2857	4205	601	-3.5	200	0	0	1646.1270	1	
144	0	1650.6619	0	730	2058	2857	4205	701	2.5	200	1	1	1652.3492	1	
145	0	1657.9048	1	730	2058	2857	4205	751	-3.5	200	1	0	1663.0388	0	
146	1	1669.3789	0	730	2058	2857	4205	751	-3.5	200	1	1	1671.2421	1	
147	0	1678.4472	0	730	2058	2857	4205	551	14.5	200	1	1	1681.2030	1	
148	0	1688.5526	0	730	2058	2857	4205	801	2.5	200	1	1	1689.9917	1	
149	0	1697.2956	0	460	1105	2857	4205	851	14.5	200	0	1	1698.6232	0	
150	1	1707.9278	0	460	1105	2857	4205	851	14.5	200	0	1	1709.5583	0	
