Trial	CorrectionTrial?	StartTime	CenterReward?	F1	F2	F3	F4	HoldTime	Atten	Pitch	Side	Response	RespTime	Correct	
1	0	5.5173	0	460	1105	2857	4205	951	8.5	200	0	0	6.3677	1	
2	0	10.8520	0	730	2058	2857	4205	701	8.5	200	1	1	12.4958	1	
3	0	17.1824	0	460	1105	2857	4205	1001	11.5	200	0	0	18.3204	1	
4	0	25.0132	0	730	2058	2857	4205	751	14.5	200	1	1	25.8594	1	
5	0	33.1177	0	730	2058	2857	4205	551	11.5	200	1	1	34.3809	1	
6	0	43.9655	0	460	1105	2857	4205	601	14.5	200	0	1	45.2997	0	
7	1	50.1799	0	460	1105	2857	4205	601	14.5	200	0	0	51.8934	1	
8	0	57.2640	0	730	2058	2857	4205	501	8.5	200	1	1	58.7642	1	
9	0	68.2851	0	460	1105	2857	4205	901	11.5	200	0	0	69.9823	1	
10	0	75.8561	0	460	1105	2857	4205	651	8.5	200	0	0	76.8814	1	
11	0	82.2901	0	730	2058	2857	4205	851	14.5	200	1	1	83.4863	1	
12	0	93.2080	0	730	2058	2857	4205	801	11.5	200	1	1	94.4503	1	
13	0	104.5608	0	460	1105	2857	4205	901	14.5	200	0	0	105.1898	1	
14	0	110.4990	0	730	2058	2857	4205	501	11.5	200	1	0	111.9228	0	
15	1	116.8859	0	730	2058	2857	4205	501	11.5	200	1	0	118.4262	0	
16	1	123.5705	0	730	2058	2857	4205	501	11.5	200	1	1	125.2474	1	
17	0	135.7798	0	460	1105	2857	4205	851	11.5	200	0	0	136.7591	1	
18	0	142.3148	0	730	2058	2857	4205	951	14.5	200	1	1	143.0927	1	
19	0	152.7529	0	460	1105	2857	4205	701	8.5	200	0	0	153.7159	1	
20	0	158.3640	0	460	1105	2857	4205	751	14.5	200	0	1	159.9375	0	
21	1	166.2120	0	460	1105	2857	4205	751	14.5	200	0	0	167.4370	1	
22	0	172.4218	0	730	2058	2857	4205	551	8.5	200	1	1	173.6545	1	
23	0	182.8563	0	460	1105	2857	4205	601	14.5	200	0	0	184.0845	1	
24	0	189.2892	0	460	1105	2857	4205	651	8.5	200	0	0	189.9297	1	
25	0	194.8260	0	730	2058	2857	4205	751	8.5	200	1	1	195.8490	1	
26	0	205.7466	0	730	2058	2857	4205	601	11.5	200	1	1	207.2064	1	
27	0	218.8132	0	730	2058	2857	4205	651	14.5	200	1	0	220.0338	0	
28	1	225.3808	0	730	2058	2857	4205	651	14.5	200	1	1	226.9605	1	
29	0	235.2894	0	460	1105	2857	4205	851	11.5	200	0	0	236.2239	1	
30	0	241.4307	1	460	1105	2857	4205	1001	14.5	200	0	1	242.2972	0	
31	1	248.8248	0	460	1105	2857	4205	1001	14.5	200	0	0	249.9352	1	
32	0	255.3998	0	460	1105	2857	4205	501	11.5	200	0	0	256.8018	1	
33	0	261.7667	0	730	2058	2857	4205	701	8.5	200	1	1	263.2630	1	
34	0	270.4674	0	460	1105	2857	4205	901	8.5	200	0	0	271.7442	1	
35	0	276.4967	0	730	2058	2857	4205	551	11.5	200	1	1	277.9019	1	
36	0	284.8487	0	730	2058	2857	4205	951	14.5	200	1	1	285.7757	1	
37	0	296.5346	0	730	2058	2857	4205	601	14.5	200	1	0	298.1403	0	
38	1	303.0038	1	730	2058	2857	4205	601	14.5	200	1	0	304.3386	0	
39	1	312.6465	0	730	2058	2857	4205	601	14.5	200	1	1	314.1490	1	
40	0	325.8988	0	730	2058	2857	4205	751	11.5	200	1	0	326.9203	0	
41	1	332.2313	1	730	2058	2857	4205	751	11.5	200	1	1	334.0250	1	
42	0	343.8159	1	460	1105	2857	4205	701	14.5	200	0	0	345.4476	1	
43	0	350.2777	1	460	1105	2857	4205	651	8.5	200	0	0	351.5145	1	
44	0	356.8890	0	460	1105	2857	4205	501	11.5	200	0	0	358.0029	1	
45	0	362.7009	0	730	2058	2857	4205	851	8.5	200	1	1	363.7938	1	
46	0	374.1629	0	730	2058	2857	4205	1001	14.5	200	1	1	375.4085	1	
47	0	387.9732	0	460	1105	2857	4205	801	11.5	200	0	1	389.3851	0	
48	1	395.2539	0	460	1105	2857	4205	801	11.5	200	0	1	396.7703	0	
49	1	402.1573	0	460	1105	2857	4205	801	11.5	200	0	0	403.3426	1	
50	0	408.4194	1	460	1105	2857	4205	551	14.5	200	0	1	410.0308	0	
51	1	415.4742	0	460	1105	2857	4205	551	14.5	200	0	0	416.4146	1	
52	0	422.5309	0	730	2058	2857	4205	951	8.5	200	1	1	423.9975	1	
53	0	434.6513	1	730	2058	2857	4205	901	11.5	200	1	0	441.6713	0	
54	1	447.6637	1	730	2058	2857	4205	901	11.5	200	1	1	453.0652	1	
55	0	461.6279	0	460	1105	2857	4205	701	8.5	200	0	0	463.4280	1	
56	0	467.6250	0	730	2058	2857	4205	601	14.5	200	1	1	469.7076	1	
57	0	477.4250	0	460	1105	2857	4205	951	11.5	200	0	1	479.3653	0	
58	1	488.2793	0	460	1105	2857	4205	951	11.5	200	0	0	490.5716	1	
59	0	495.1601	0	730	2058	2857	4205	501	8.5	200	1	1	497.1583	1	
60	0	506.5293	0	730	2058	2857	4205	801	11.5	200	1	1	508.4469	1	
61	0	515.2412	0	460	1105	2857	4205	851	14.5	200	0	1	517.6778	0	
62	1	524.3120	0	460	1105	2857	4205	851	14.5	200	0	0	525.3438	1	
63	0	529.8442	0	460	1105	2857	4205	651	8.5	200	0	0	531.0956	1	
64	0	535.9117	0	730	2058	2857	4205	751	8.5	200	1	0	537.0446	0	
65	1	546.1061	0	730	2058	2857	4205	751	8.5	200	1	1	547.9251	1	
66	0	557.3997	0	730	2058	2857	4205	1001	14.5	200	1	1	558.8296	1	
67	0	570.7305	0	460	1105	2857	4205	801	11.5	200	0	0	571.9276	1	
68	0	576.3291	0	460	1105	2857	4205	501	14.5	200	0	0	577.6468	1	
69	0	582.2118	0	730	2058	2857	4205	901	11.5	200	1	0	583.0071	0	
70	1	588.8546	0	730	2058	2857	4205	901	11.5	200	1	1	590.6841	1	
71	0	600.0287	0	460	1105	2857	4205	951	8.5	200	0	0	601.0762	1	
72	0	605.8602	0	460	1105	2857	4205	551	14.5	200	0	1	607.2985	0	
73	1	613.0943	0	460	1105	2857	4205	551	14.5	200	0	0	614.2611	1	
74	0	619.2713	0	730	2058	2857	4205	1001	8.5	200	1	0	619.9136	0	
75	1	627.5788	0	730	2058	2857	4205	1001	8.5	200	1	1	629.8367	1	
76	0	638.7926	0	730	2058	2857	4205	701	11.5	200	1	0	639.8971	0	
77	1	646.4048	0	730	2058	2857	4205	701	11.5	200	1	1	647.9574	1	
78	0	659.6867	0	730	2058	2857	4205	651	14.5	200	1	1	660.7858	1	
79	0	669.5117	0	460	1105	2857	4205	601	8.5	200	0	0	670.7100	1	
80	0	677.9622	0	460	1105	2857	4205	851	11.5	200	0	0	679.0462	1	
81	0	683.7660	0	460	1105	2857	4205	851	14.5	200	0	0	684.7376	1	
82	0	689.8272	1	460	1105	2857	4205	951	11.5	200	0	0	691.5577	1	
83	0	695.4997	1	460	1105	2857	4205	551	8.5	200	0	1	697.0780	0	
84	1	703.3315	0	460	1105	2857	4205	551	8.5	200	0	0	704.4366	1	
85	0	709.7469	0	730	2058	2857	4205	801	11.5	200	1	1	711.0232	1	
86	0	719.2315	0	730	2058	2857	4205	651	14.5	200	1	1	721.0775	1	
87	0	732.0360	0	730	2058	2857	4205	501	8.5	200	1	0	733.6310	0	
88	1	738.6815	0	730	2058	2857	4205	501	8.5	200	1	1	740.5029	1	
89	0	750.9350	0	460	1105	2857	4205	1001	14.5	200	0	1	752.0415	0	
90	1	760.1272	0	460	1105	2857	4205	1001	14.5	200	0	0	760.8116	1	
91	0	772.1468	0	730	2058	2857	4205	901	14.5	200	1	0	772.9456	0	
92	1	780.4314	0	730	2058	2857	4205	901	14.5	200	1	0	781.6376	0	
93	1	789.8323	1	730	2058	2857	4205	901	14.5	200	1	1	791.1168	1	
94	0	800.7346	0	730	2058	2857	4205	751	11.5	200	1	1	802.5744	1	
95	0	811.2676	0	460	1105	2857	4205	601	8.5	200	0	0	812.5182	1	
96	0	817.6063	0	460	1105	2857	4205	701	11.5	200	0	0	818.7642	1	
97	0	823.0511	0	730	2058	2857	4205	851	8.5	200	1	1	824.1589	1	
98	0	834.2479	0	460	1105	2857	4205	751	14.5	200	0	0	835.7514	1	
99	0	840.7497	0	730	2058	2857	4205	901	14.5	200	1	1	841.9782	1	
100	0	851.4165	0	460	1105	2857	4205	601	11.5	200	0	0	853.4866	1	
101	0	860.0433	1	730	2058	2857	4205	951	11.5	200	1	1	861.0510	1	
102	0	870.4980	0	460	1105	2857	4205	501	8.5	200	0	0	872.4431	1	
103	0	877.4282	0	730	2058	2857	4205	801	8.5	200	1	1	881.3149	1	
104	0	890.1856	0	460	1105	2857	4205	651	11.5	200	0	1	892.8194	0	
105	1	899.7861	0	460	1105	2857	4205	651	11.5	200	0	0	901.0532	1	
106	0	905.7479	0	730	2058	2857	4205	1001	11.5	200	1	0	906.7450	0	
107	1	913.9463	0	730	2058	2857	4205	1001	11.5	200	1	1	916.8331	1	
108	0	925.8630	0	730	2058	2857	4205	1001	8.5	200	1	0	927.1579	0	
109	1	933.3046	1	730	2058	2857	4205	1001	8.5	200	1	1	937.6127	1	
110	0	947.5836	0	460	1105	2857	4205	551	14.5	200	0	0	948.8414	1	
111	0	953.6437	0	730	2058	2857	4205	851	14.5	200	1	0	954.5226	0	
112	1	961.1903	0	730	2058	2857	4205	851	14.5	200	1	1	962.9109	1	
113	0	972.4996	1	460	1105	2857	4205	701	8.5	200	0	0	974.4187	1	
114	0	980.9288	1	730	2058	2857	4205	951	11.5	200	1	1	982.0817	1	
115	0	995.6445	0	460	1105	2857	4205	501	11.5	200	0	0	1000.1944	1	
116	0	1003.5915	0	730	2058	2857	4205	601	8.5	200	1	0	1005.8858	0	
117	1	1011.3679	0	730	2058	2857	4205	601	8.5	200	1	1	1013.1623	1	
118	0	1022.5485	0	460	1105	2857	4205	901	8.5	200	0	0	1023.6203	1	
119	0	1028.1959	0	460	1105	2857	4205	751	14.5	200	0	0	1029.2009	1	
120	0	1033.3473	0	730	2058	2857	4205	801	14.5	200	1	0	1034.1772	0	
121	1	1039.9232	0	730	2058	2857	4205	801	14.5	200	1	1	1043.8726	1	
122	0	1053.7614	0	460	1105	2857	4205	601	14.5	200	0	1	1055.0680	0	
