Trial	CorrectionTrial?	StartTime	CenterReward?	F1	F2	F3	F4	HoldTime	Atten	Pitch	Side	Response	RespTime	Correct	
1	0	125.9205	0	460	1105	2857	4205	751	8.5	200	0	0	125.9893	1	
2	0	128.8973	0	730	2058	2857	4205	651	14.5	200	1	0	129.0617	0	
3	1	216.5383	0	730	2058	2857	4205	651	14.5	200	1	-1	-1.0000	0	
4	0	324.9180	1	460	1105	2857	4205	601	2.5	200	0	0	335.4938	1	
5	0	362.5135	0	460	1105	2857	4205	901	14.5	200	0	1	372.8151	0	
6	1	386.5672	0	460	1105	2857	4205	901	14.5	200	0	1	396.6592	0	
7	1	402.3137	0	460	1105	2857	4205	901	14.5	200	0	1	406.4193	0	
8	1	418.8616	0	460	1105	2857	4205	901	14.5	200	0	0	421.4118	1	
9	0	426.6226	0	730	2058	2857	4205	551	8.5	200	1	1	427.8862	1	
10	0	432.6701	0	730	2058	2857	4205	501	2.5	200	1	1	434.6309	1	
11	0	441.7094	0	730	2058	2857	4205	801	8.5	200	1	1	443.1756	1	
12	0	453.7009	0	460	1105	2857	4205	1001	14.5	200	0	1	454.9041	0	
13	1	461.1232	0	460	1105	2857	4205	1001	14.5	200	0	0	461.9765	1	
14	0	471.9668	0	730	2058	2857	4205	851	14.5	200	1	0	473.4564	0	
15	1	480.3404	0	730	2058	2857	4205	851	14.5	200	1	1	481.8697	1	
16	0	496.4325	0	460	1105	2857	4205	701	8.5	200	0	0	497.2762	1	
17	0	501.7136	1	460	1105	2857	4205	501	2.5	200	0	0	502.6847	1	
18	0	507.4753	0	730	2058	2857	4205	651	2.5	200	1	1	510.6463	1	
19	0	516.1712	1	730	2058	2857	4205	551	8.5	200	1	1	519.3207	1	
20	0	524.9507	0	460	1105	2857	4205	851	8.5	200	0	1	529.0920	0	
21	1	535.9040	0	460	1105	2857	4205	851	8.5	200	0	1	539.5868	0	
22	1	546.9822	0	460	1105	2857	4205	851	8.5	200	0	0	548.7556	1	
23	0	553.7381	0	460	1105	2857	4205	701	2.5	200	0	0	554.9840	1	
24	0	560.5838	0	460	1105	2857	4205	951	14.5	200	0	1	562.2929	0	
25	1	581.4678	0	460	1105	2857	4205	951	14.5	200	0	0	583.2563	1	
26	0	588.0694	0	730	2058	2857	4205	751	14.5	200	1	0	588.8573	0	
27	1	594.5343	0	730	2058	2857	4205	751	14.5	200	1	1	596.9362	1	
28	0	603.5968	0	730	2058	2857	4205	901	2.5	200	1	1	605.3883	1	
29	0	613.2956	0	460	1105	2857	4205	1001	2.5	200	0	0	614.6029	1	
30	0	619.2530	0	730	2058	2857	4205	601	8.5	200	1	0	620.3662	0	
31	1	626.0592	0	730	2058	2857	4205	601	8.5	200	1	1	628.1412	1	
32	0	636.4430	1	730	2058	2857	4205	951	14.5	200	1	1	637.5455	1	
33	0	644.7930	1	460	1105	2857	4205	851	14.5	200	0	1	648.2664	0	
34	1	661.1460	0	460	1105	2857	4205	851	14.5	200	0	0	663.1145	1	
35	0	669.1437	0	460	1105	2857	4205	501	8.5	200	0	0	670.8474	1	
36	0	675.6377	0	730	2058	2857	4205	651	2.5	200	1	0	678.8758	0	
37	1	686.5703	0	730	2058	2857	4205	651	2.5	200	1	1	688.6164	1	
38	0	696.7012	0	460	1105	2857	4205	801	14.5	200	0	1	698.2124	0	
39	1	704.9648	0	460	1105	2857	4205	801	14.5	200	0	0	705.9362	1	
40	0	714.6020	0	460	1105	2857	4205	551	8.5	200	0	0	716.0127	1	
41	0	725.2270	0	730	2058	2857	4205	901	2.5	200	1	1	727.0564	1	
42	0	733.2900	0	730	2058	2857	4205	1001	8.5	200	1	1	734.7857	1	
43	0	740.7770	0	460	1105	2857	4205	601	2.5	200	0	0	741.9037	1	
44	0	746.8098	0	730	2058	2857	4205	751	14.5	200	1	1	747.6983	1	
45	0	755.1794	0	730	2058	2857	4205	751	8.5	200	1	1	756.2237	1	
46	0	763.3704	0	460	1105	2857	4205	851	14.5	200	0	1	765.5754	0	
47	1	771.2199	0	460	1105	2857	4205	851	14.5	200	0	0	771.8977	1	
48	0	776.3194	0	460	1105	2857	4205	501	8.5	200	0	0	777.3871	1	
49	0	782.2272	0	730	2058	2857	4205	651	14.5	200	1	1	783.8838	1	
50	0	794.2795	0	730	2058	2857	4205	901	2.5	200	1	1	795.7402	1	
51	0	802.9191	0	460	1105	2857	4205	951	2.5	200	0	0	803.6377	1	
52	0	808.3732	0	730	2058	2857	4205	551	2.5	200	1	1	809.8333	1	
53	0	814.9474	0	730	2058	2857	4205	601	14.5	200	1	1	816.7672	1	
54	0	828.2199	0	460	1105	2857	4205	801	2.5	200	0	0	828.6254	1	
55	0	836.1339	0	460	1105	2857	4205	1001	14.5	200	0	1	837.7057	0	
56	1	844.7119	1	460	1105	2857	4205	1001	14.5	200	0	0	845.3739	1	
57	0	851.5320	0	460	1105	2857	4205	551	8.5	200	0	0	855.3154	1	
58	0	860.0415	1	730	2058	2857	4205	1001	8.5	200	1	1	867.5877	1	
59	0	873.7404	0	730	2058	2857	4205	651	14.5	200	1	1	876.1701	1	
60	0	881.5399	0	730	2058	2857	4205	501	8.5	200	1	1	883.5388	1	
61	0	889.9500	0	730	2058	2857	4205	701	2.5	200	1	1	891.8505	1	
62	0	898.3138	0	460	1105	2857	4205	901	14.5	200	0	1	900.1948	0	
63	1	907.0192	0	460	1105	2857	4205	901	14.5	200	0	0	907.4760	1	
64	0	911.8394	1	460	1105	2857	4205	751	8.5	200	0	0	912.6134	1	
65	0	916.6792	0	460	1105	2857	4205	851	2.5	200	0	0	918.3689	1	
66	0	922.3012	0	460	1105	2857	4205	801	14.5	200	0	1	923.7675	0	
67	1	934.0214	0	460	1105	2857	4205	801	14.5	200	0	0	936.1311	1	
68	0	940.8018	0	460	1105	2857	4205	951	2.5	200	0	0	941.6412	1	
69	0	946.1313	0	460	1105	2857	4205	751	8.5	200	0	1	947.8181	0	
70	1	955.5660	0	460	1105	2857	4205	751	8.5	200	0	0	956.9987	1	
71	0	961.3640	0	730	2058	2857	4205	501	8.5	200	1	0	962.9145	0	
72	1	968.9536	0	730	2058	2857	4205	501	8.5	200	1	1	970.6609	1	
73	0	978.3018	0	730	2058	2857	4205	901	14.5	200	1	1	979.9549	1	
74	0	986.3669	0	730	2058	2857	4205	951	2.5	200	1	1	987.5753	1	
75	0	993.4270	0	460	1105	2857	4205	851	14.5	200	0	1	994.6404	0	
76	1	1001.6592	0	460	1105	2857	4205	851	14.5	200	0	0	1002.1787	1	
77	0	1006.8771	1	730	2058	2857	4205	1001	8.5	200	1	1	1007.5895	1	
78	0	1013.9561	0	730	2058	2857	4205	551	14.5	200	1	1	1016.6949	1	
79	0	1022.3901	0	460	1105	2857	4205	651	8.5	200	0	1	1024.7941	0	
80	1	1031.8964	0	460	1105	2857	4205	651	8.5	200	0	0	1034.1185	1	
81	0	1038.5205	1	460	1105	2857	4205	701	2.5	200	0	0	1039.7245	1	
82	0	1043.5494	0	730	2058	2857	4205	601	2.5	200	1	1	1047.7277	1	
83	0	1053.8826	1	460	1105	2857	4205	751	2.5	200	0	1	1057.3509	0	
84	1	1065.4347	0	460	1105	2857	4205	751	2.5	200	0	0	1066.6466	1	
85	0	1070.8859	0	460	1105	2857	4205	851	8.5	200	0	1	1072.3113	0	
86	1	1086.2214	0	460	1105	2857	4205	851	8.5	200	0	0	1087.1523	1	
87	0	1091.1044	0	730	2058	2857	4205	701	2.5	200	1	1	1092.7076	1	
88	0	1098.3884	0	730	2058	2857	4205	651	8.5	200	1	1	1100.1648	1	
89	0	1105.7627	0	460	1105	2857	4205	501	14.5	200	0	1	1107.2859	0	
90	1	1118.4849	0	460	1105	2857	4205	501	14.5	200	0	0	1119.7310	1	
91	0	1123.9842	0	730	2058	2857	4205	801	14.5	200	1	1	1125.2301	1	
92	0	1130.4136	0	730	2058	2857	4205	551	2.5	200	1	1	1131.8201	1	
93	0	1138.6652	0	460	1105	2857	4205	601	14.5	200	0	1	1139.7571	0	
94	1	1159.1391	0	460	1105	2857	4205	601	14.5	200	0	0	1160.4821	1	
95	0	1168.7259	0	730	2058	2857	4205	951	8.5	200	1	1	1170.8465	1	
96	0	1176.8646	0	460	1105	2857	4205	1001	2.5	200	0	0	1177.4561	1	
97	0	1181.8018	0	460	1105	2857	4205	801	8.5	200	0	0	1182.4258	1	
98	0	1203.8394	0	730	2058	2857	4205	1001	14.5	200	1	0	1205.5629	0	
99	1	1214.2453	0	730	2058	2857	4205	1001	14.5	200	1	1	1215.5091	1	
100	0	1228.3900	0	730	2058	2857	4205	951	14.5	200	1	1	1229.7277	1	
101	0	1235.6621	0	460	1105	2857	4205	851	8.5	200	0	0	1236.7860	1	
102	0	1241.4685	0	730	2058	2857	4205	751	8.5	200	1	1	1243.1435	1	
103	0	1248.2386	0	460	1105	2857	4205	501	14.5	200	0	1	1249.6481	0	
104	1	1256.9769	0	460	1105	2857	4205	501	14.5	200	0	0	1257.9165	1	
105	0	1262.8056	0	460	1105	2857	4205	551	2.5	200	0	0	1263.8233	1	
106	0	1267.4941	0	730	2058	2857	4205	651	2.5	200	1	1	1268.6490	1	
107	0	1276.0712	1	460	1105	2857	4205	901	14.5	200	0	1	1276.9629	0	
