Trial	CorrectionTrial?	StartTime	CenterReward?	F1	F2	F3	F4	HoldTime	Atten	Pitch	Side	Response	RespTime	Correct	Mask	
1	0	46.2018	0	460	1105	2857	4205	551	-12.5	200	0	1	52.2456	0	0	
2	1	66.7151	0	460	1105	2857	4205	551	-12.5	200	0	0	68.3287	1	0	
3	0	77.5528	0	730	2058	2857	4205	751	-3.5	200	1	0	78.4522	0	0	
4	1	85.9029	0	730	2058	2857	4205	751	-3.5	200	1	1	87.0846	1	0	
5	0	99.5301	0	730	2058	2857	4205	601	-6.5	200	1	1	101.1082	1	0	
6	0	119.0204	0	460	1105	2857	4205	701	-12.5	200	0	0	120.2984	1	1	
7	0	129.6849	0	730	2058	2857	4205	1001	-9.5	200	1	0	130.8690	0	1	
8	1	137.8650	1	730	2058	2857	4205	1001	-9.5	200	1	1	139.9925	1	1	
9	0	159.1370	1	730	2058	2857	4205	801	-3.5	200	1	1	165.3554	1	1	
10	0	184.9645	0	460	1105	2857	4205	651	-3.5	200	0	0	185.9811	1	0	
11	0	191.4455	0	730	2058	2857	4205	501	-12.5	200	1	0	192.4517	0	0	
12	1	199.1420	0	730	2058	2857	4205	501	-12.5	200	1	1	204.1567	1	0	
13	0	212.1848	0	460	1105	2857	4205	901	-9.5	200	0	0	213.8484	1	1	
14	0	222.8585	0	460	1105	2857	4205	851	-9.5	200	0	0	223.4862	1	0	
15	0	228.4946	1	460	1105	2857	4205	701	-3.5	200	0	1	229.5158	0	1	
16	1	247.8521	1	460	1105	2857	4205	701	-3.5	200	0	0	254.2517	1	1	
17	0	259.7328	0	460	1105	2857	4205	901	-6.5	200	0	0	261.3998	1	0	
18	0	266.9206	0	460	1105	2857	4205	651	-6.5	200	0	0	269.9494	1	1	
19	0	275.7654	0	730	2058	2857	4205	601	-12.5	200	1	1	279.4169	1	1	
20	0	294.2237	0	730	2058	2857	4205	851	-6.5	200	1	0	297.5859	0	1	
21	1	305.5042	0	730	2058	2857	4205	851	-6.5	200	1	0	307.8550	0	1	
22	1	319.5136	0	730	2058	2857	4205	851	-6.5	200	1	1	321.1455	1	1	
23	0	335.5632	0	730	2058	2857	4205	751	-9.5	200	1	0	336.6332	0	0	
24	1	352.0331	0	730	2058	2857	4205	751	-9.5	200	1	0	353.3408	0	0	
25	1	361.2137	0	730	2058	2857	4205	751	-9.5	200	1	1	362.6697	1	0	
26	0	376.6212	0	460	1105	2857	4205	501	-9.5	200	0	0	377.7690	1	0	
27	0	383.3066	0	460	1105	2857	4205	551	-3.5	200	0	0	384.2823	1	1	
28	0	389.4363	0	460	1105	2857	4205	801	-6.5	200	0	0	390.4206	1	0	
29	0	396.8981	0	460	1105	2857	4205	951	-6.5	200	0	0	397.5175	1	1	
30	0	406.9293	0	460	1105	2857	4205	851	-12.5	200	0	0	407.5134	1	1	
31	0	413.9266	1	730	2058	2857	4205	601	-3.5	200	1	1	415.9693	1	0	
32	0	429.3125	0	460	1105	2857	4205	951	-3.5	200	0	0	431.1083	1	0	
33	0	438.3966	0	730	2058	2857	4205	801	-6.5	200	1	0	441.4809	0	1	
34	1	447.3800	0	730	2058	2857	4205	801	-6.5	200	1	1	448.8542	1	1	
35	0	460.9355	0	730	2058	2857	4205	551	-9.5	200	1	0	462.2721	0	1	
36	1	468.9539	0	730	2058	2857	4205	551	-9.5	200	1	0	470.1596	0	1	
37	1	476.4695	0	730	2058	2857	4205	551	-9.5	200	1	1	477.4900	1	1	
38	0	494.5115	0	730	2058	2857	4205	651	-12.5	200	1	0	494.9175	0	1	
39	1	534.5634	0	730	2058	2857	4205	651	-12.5	200	1	0	535.8270	0	1	
40	1	622.2826	0	730	2058	2857	4205	651	-12.5	200	1	-1	-1.0000	0	1	
41	0	648.5022	0	460	1105	2857	4205	751	-12.5	200	0	0	649.8571	1	0	
42	0	659.9941	0	730	2058	2857	4205	901	-3.5	200	1	0	660.7897	0	1	
43	1	669.0391	0	730	2058	2857	4205	901	-3.5	200	1	1	670.7428	1	1	
44	0	683.0002	0	730	2058	2857	4205	701	-9.5	200	1	1	684.8655	1	0	
45	0	696.9824	0	730	2058	2857	4205	501	-12.5	200	1	1	699.1087	1	0	
46	0	711.0223	0	730	2058	2857	4205	1001	-6.5	200	1	0	711.9270	0	0	
47	1	718.9814	0	730	2058	2857	4205	1001	-6.5	200	1	0	720.8580	0	0	
48	1	728.2794	0	730	2058	2857	4205	1001	-6.5	200	1	0	729.4947	0	0	
49	1	738.8508	0	730	2058	2857	4205	1001	-6.5	200	1	1	740.1461	1	0	
50	0	751.7171	1	460	1105	2857	4205	801	-9.5	200	0	0	753.2500	1	1	
51	0	759.2830	0	460	1105	2857	4205	551	-3.5	200	0	0	760.4244	1	0	
52	0	765.3963	0	730	2058	2857	4205	601	-3.5	200	1	0	766.6574	0	0	
53	1	772.6407	0	730	2058	2857	4205	601	-3.5	200	1	0	773.3930	0	0	
54	1	781.9873	0	730	2058	2857	4205	601	-3.5	200	1	0	783.0358	0	0	
55	1	790.4561	0	730	2058	2857	4205	601	-3.5	200	1	1	792.9265	1	0	
56	0	803.6255	0	730	2058	2857	4205	751	-12.5	200	1	0	806.3978	0	0	
57	1	812.7282	0	730	2058	2857	4205	751	-12.5	200	1	1	815.9157	1	0	
58	0	825.6059	0	730	2058	2857	4205	501	-6.5	200	1	1	826.7823	1	0	
59	0	840.5003	0	460	1105	2857	4205	651	-3.5	200	0	0	841.2706	1	1	
60	0	850.4318	0	730	2058	2857	4205	701	-12.5	200	1	1	852.2387	1	1	
61	0	870.5733	0	730	2058	2857	4205	951	-3.5	200	1	0	874.5601	0	1	
62	1	885.1606	0	730	2058	2857	4205	951	-3.5	200	1	0	886.6265	0	1	
63	1	897.6282	0	730	2058	2857	4205	951	-3.5	200	1	0	898.5808	0	1	
