Trial	CorrectionTrial?	StartTime	CenterReward?	F1	F2	F3	F4	HoldTime	Atten	Pitch	Side	Response	RespTime	Correct	Mask	
1	0	39.7023	0	460	1105	2857	4205	951	-6.5	200	0	0	40.4538	1	1	
2	0	47.3268	0	460	1105	2857	4205	1001	-6.5	200	0	0	48.0979	1	0	
3	0	55.0900	0	460	1105	2857	4205	801	-9.5	200	0	1	55.9149	0	0	
4	1	64.7159	1	460	1105	2857	4205	801	-9.5	200	0	0	65.2587	1	0	
5	0	71.5128	1	460	1105	2857	4205	501	-12.5	200	0	0	72.0280	1	0	
6	0	85.1056	0	730	2058	2857	4205	651	-6.5	200	1	1	86.2278	1	0	
7	0	90.3268	1	730	2058	2857	4205	551	-12.5	200	1	1	91.2209	1	1	
8	0	94.5803	0	460	1105	2857	4205	601	-3.5	200	0	0	95.2402	1	1	
9	0	102.4337	1	730	2058	2857	4205	701	-12.5	200	1	1	113.3920	1	0	
10	0	129.8361	0	730	2058	2857	4205	851	-6.5	200	1	1	131.6293	1	1	
11	0	148.2464	0	460	1105	2857	4205	751	-12.5	200	0	0	149.9647	1	1	
12	0	155.9668	0	460	1105	2857	4205	951	-3.5	200	0	0	157.0114	1	0	
13	0	164.1040	0	460	1105	2857	4205	1001	-9.5	200	0	0	165.0488	1	1	
14	0	174.3484	0	730	2058	2857	4205	551	-3.5	200	1	1	176.1192	1	1	
15	0	189.1444	0	730	2058	2857	4205	751	-9.5	200	1	1	190.5325	1	1	
16	0	206.2521	0	730	2058	2857	4205	601	-9.5	200	1	0	209.3095	0	0	
17	1	217.2086	0	730	2058	2857	4205	601	-9.5	200	1	0	218.5446	0	0	
18	1	224.3590	0	730	2058	2857	4205	601	-9.5	200	1	1	226.3588	1	0	
19	0	237.3759	0	730	2058	2857	4205	701	-3.5	200	1	0	238.7091	0	0	
20	1	246.0953	0	730	2058	2857	4205	701	-3.5	200	1	1	247.9442	1	0	
21	0	262.5999	0	730	2058	2857	4205	801	-9.5	200	1	1	265.1618	1	1	
22	0	278.6349	0	460	1105	2857	4205	901	-6.5	200	0	0	279.7231	1	0	
23	0	285.1696	0	730	2058	2857	4205	851	-3.5	200	1	1	286.7480	1	1	
24	0	298.4242	0	730	2058	2857	4205	651	-6.5	200	1	0	299.2715	0	1	
25	1	307.6634	0	730	2058	2857	4205	651	-6.5	200	1	1	309.4084	1	1	
26	0	322.9072	0	730	2058	2857	4205	951	-12.5	200	1	1	323.9082	1	0	
27	0	337.7309	0	730	2058	2857	4205	551	-12.5	200	1	1	339.3586	1	1	
28	0	352.7715	0	460	1105	2857	4205	801	-9.5	200	0	0	353.6286	1	1	
29	0	359.3640	0	730	2058	2857	4205	501	-3.5	200	1	0	360.3753	0	0	
30	1	366.0388	0	730	2058	2857	4205	501	-3.5	200	1	1	367.4034	1	0	
31	0	381.5995	0	460	1105	2857	4205	601	-12.5	200	0	0	382.5908	1	0	
32	0	387.6741	0	460	1105	2857	4205	651	-12.5	200	0	0	388.2499	1	1	
33	0	393.6239	0	460	1105	2857	4205	701	-6.5	200	0	0	394.5628	1	1	
34	0	401.4333	0	730	2058	2857	4205	1001	-6.5	200	1	1	402.6493	1	0	
35	0	414.6296	0	460	1105	2857	4205	901	-3.5	200	0	0	415.4902	1	0	
36	0	420.8071	0	460	1105	2857	4205	851	-3.5	200	0	0	421.4700	1	1	
37	0	436.0684	0	460	1105	2857	4205	601	-9.5	200	0	0	437.0350	1	0	
38	0	442.0606	0	730	2058	2857	4205	701	-9.5	200	1	1	443.0236	1	0	
39	0	460.8219	0	460	1105	2857	4205	1001	-3.5	200	0	1	462.1881	0	1	
40	1	470.9557	1	460	1105	2857	4205	1001	-3.5	200	0	1	472.2795	0	1	
41	1	480.3948	0	460	1105	2857	4205	1001	-3.5	200	0	0	481.4636	1	1	
42	0	487.5098	0	460	1105	2857	4205	651	-12.5	200	0	0	489.0207	1	0	
43	0	496.3613	0	460	1105	2857	4205	751	-6.5	200	0	0	497.3623	1	1	
44	0	502.9661	0	730	2058	2857	4205	801	-12.5	200	1	1	504.1492	1	1	
45	0	511.3574	0	730	2058	2857	4205	901	-9.5	200	1	0	512.3974	0	1	
46	1	521.1893	0	730	2058	2857	4205	901	-9.5	200	1	0	522.5003	0	1	
47	1	528.7735	0	730	2058	2857	4205	901	-9.5	200	1	1	529.9603	1	1	
48	0	544.2196	0	460	1105	2857	4205	501	-9.5	200	0	0	545.3385	1	0	
49	0	551.0205	0	730	2058	2857	4205	951	-9.5	200	1	1	552.3172	1	0	
50	0	564.0777	1	460	1105	2857	4205	551	-3.5	200	0	0	565.0213	1	0	
51	0	570.9425	1	730	2058	2857	4205	901	-6.5	200	1	0	576.5269	0	0	
52	1	586.8681	0	730	2058	2857	4205	901	-6.5	200	1	1	589.4130	1	0	
53	0	610.3715	0	460	1105	2857	4205	1001	-6.5	200	0	0	611.8024	1	0	
54	0	620.1117	0	460	1105	2857	4205	751	-9.5	200	0	0	621.3822	1	1	
55	0	628.0654	0	730	2058	2857	4205	951	-3.5	200	1	1	629.2823	1	0	
56	0	642.4745	0	730	2058	2857	4205	801	-6.5	200	1	1	643.9150	1	1	
57	0	658.3566	1	460	1105	2857	4205	501	-12.5	200	0	0	659.3235	1	1	
58	0	664.3995	1	730	2058	2857	4205	601	-3.5	200	1	0	668.1853	0	1	
59	1	678.3978	0	730	2058	2857	4205	601	-3.5	200	1	0	680.8310	0	1	
60	1	694.8044	0	730	2058	2857	4205	601	-3.5	200	1	1	696.4495	1	1	
61	0	701.2294	1	730	2058	2857	4205	701	-12.5	200	1	0	702.4013	0	0	
62	1	708.2243	0	730	2058	2857	4205	701	-12.5	200	1	0	711.8494	0	0	
63	1	730.0243	0	730	2058	2857	4205	701	-12.5	200	1	1	731.7334	1	0	
64	0	747.3575	1	460	1105	2857	4205	651	-6.5	200	0	0	748.3271	1	0	
65	0	753.2931	0	730	2058	2857	4205	551	-6.5	200	1	1	755.6814	1	1	
66	0	768.4579	0	460	1105	2857	4205	901	-9.5	200	0	0	770.1236	1	1	
67	0	776.0986	0	730	2058	2857	4205	851	-9.5	200	1	1	777.3740	1	1	
68	0	791.0231	0	730	2058	2857	4205	751	-3.5	200	1	1	794.0687	1	1	
69	0	808.3183	0	730	2058	2857	4205	951	-9.5	200	1	0	809.1871	0	0	
70	1	820.9286	0	730	2058	2857	4205	951	-9.5	200	1	0	822.4992	0	0	
71	1	835.8260	0	730	2058	2857	4205	951	-9.5	200	1	0	836.9573	0	0	
72	1	843.2510	0	730	2058	2857	4205	951	-9.5	200	1	1	844.6679	1	0	
73	0	855.9403	0	460	1105	2857	4205	801	-3.5	200	0	0	856.8597	1	0	
74	0	861.8376	0	460	1105	2857	4205	501	-6.5	200	0	0	862.7703	1	1	
75	0	869.0982	0	730	2058	2857	4205	651	-12.5	200	1	0	869.9535	0	0	
76	1	876.2557	0	730	2058	2857	4205	651	-12.5	200	1	1	878.0393	1	0	
77	0	889.1117	0	460	1105	2857	4205	601	-3.5	200	0	0	890.9375	1	1	
78	0	896.3641	0	730	2058	2857	4205	1001	-6.5	200	1	1	897.4450	1	0	
79	0	909.3245	0	460	1105	2857	4205	551	-9.5	200	0	0	910.4310	1	0	
80	0	920.9370	0	460	1105	2857	4205	851	-12.5	200	0	0	922.1622	1	0	
81	0	926.7905	1	460	1105	2857	4205	801	-12.5	200	0	0	928.2272	1	1	
82	0	933.6666	0	730	2058	2857	4205	951	-3.5	200	1	1	937.4678	1	0	
83	0	949.2826	0	730	2058	2857	4205	751	-12.5	200	1	1	950.7107	1	1	
84	0	966.7242	0	730	2058	2857	4205	1001	-3.5	200	1	1	967.9937	1	1	
85	0	981.1855	0	460	1105	2857	4205	551	-6.5	200	0	0	982.1830	1	0	
86	0	987.9569	0	730	2058	2857	4205	601	-12.5	200	1	1	989.2457	1	0	
87	0	999.7419	1	730	2058	2857	4205	501	-9.5	200	1	1	1001.3807	1	1	
88	0	1015.6044	0	460	1105	2857	4205	901	-12.5	200	0	0	1016.8191	1	1	
89	0	1022.7513	0	460	1105	2857	4205	701	-12.5	200	0	0	1024.9641	1	0	
90	0	1032.1209	1	730	2058	2857	4205	851	-12.5	200	1	1	1033.0662	1	1	
91	0	1044.7887	0	730	2058	2857	4205	701	-9.5	200	1	1	1049.3968	1	0	
92	0	1059.5537	0	730	2058	2857	4205	951	-6.5	200	1	0	1061.2188	0	1	
93	1	1067.5429	0	730	2058	2857	4205	951	-6.5	200	1	1	1071.0618	1	1	
94	0	1081.2508	0	460	1105	2857	4205	601	-3.5	200	0	0	1082.5259	1	1	
95	0	1086.8847	0	730	2058	2857	4205	551	-3.5	200	1	0	1088.5149	0	0	
96	1	1095.3914	0	730	2058	2857	4205	551	-3.5	200	1	1	1097.0055	1	0	
97	0	1108.7226	0	460	1105	2857	4205	801	-9.5	200	0	0	1109.4907	1	0	
98	0	1119.1756	0	730	2058	2857	4205	751	-6.5	200	1	0	1120.1861	0	0	
99	1	1126.6358	0	730	2058	2857	4205	751	-6.5	200	1	0	1127.7361	0	0	
