Trial	CorrectionTrial?	StartTime	CenterReward?	F1	F2	F3	F4	HoldTime	Atten	Pitch	Side	Response	RespTime	Correct	Mask	
1	0	139.5741	0	730	2058	2857	4205	501	14.5	200	1	0	140.4612	0	1	
2	1	148.3546	1	730	2058	2857	4205	501	14.5	200	1	1	150.0361	1	1	
3	0	159.1215	0	730	2058	2857	4205	951	11.5	200	1	0	159.7994	0	0	
4	1	163.9865	0	730	2058	2857	4205	951	11.5	200	1	0	164.5586	0	0	
5	1	171.7407	0	730	2058	2857	4205	951	11.5	200	1	1	172.9012	1	0	
6	0	180.4238	0	730	2058	2857	4205	1001	14.5	200	1	1	181.7055	1	0	
7	0	189.8861	0	460	1105	2857	4205	751	2.5	200	0	1	191.0900	0	1	
8	1	197.0347	0	460	1105	2857	4205	751	2.5	200	0	0	198.2520	1	1	
9	0	200.8938	0	460	1105	2857	4205	651	5.5	200	0	0	201.9268	1	1	
10	0	205.3848	0	460	1105	2857	4205	601	-0.5	200	0	0	206.6213	1	0	
11	0	211.0552	0	460	1105	2857	4205	701	-0.5	200	0	0	212.1896	1	1	
12	0	217.0263	0	730	2058	2857	4205	801	17.5	200	1	1	217.9723	1	0	
13	0	224.2554	0	730	2058	2857	4205	851	8.5	200	1	1	225.0302	1	0	
14	0	231.5777	0	460	1105	2857	4205	551	2.5	200	0	0	232.3149	1	0	
15	0	237.1417	0	460	1105	2857	4205	901	11.5	200	0	0	237.7355	1	0	
16	0	242.5459	0	460	1105	2857	4205	751	17.5	200	0	1	243.5073	0	1	
17	1	248.4015	0	460	1105	2857	4205	751	17.5	200	0	1	249.3867	0	1	
18	1	255.7141	0	460	1105	2857	4205	751	17.5	200	0	0	256.3256	1	1	
19	0	260.3409	0	460	1105	2857	4205	501	5.5	200	0	0	261.3536	1	0	
20	0	265.6003	0	460	1105	2857	4205	951	14.5	200	0	0	266.4050	1	0	
21	0	271.0262	0	730	2058	2857	4205	851	2.5	200	1	1	271.7847	1	1	
22	0	277.8556	0	730	2058	2857	4205	651	2.5	200	1	1	279.0136	1	0	
23	0	284.9202	0	730	2058	2857	4205	601	-0.5	200	1	1	286.1295	1	0	
24	0	291.8831	0	460	1105	2857	4205	801	11.5	200	0	1	292.8773	0	1	
25	1	299.0533	0	460	1105	2857	4205	801	11.5	200	0	0	299.8352	1	1	
26	0	303.7939	0	730	2058	2857	4205	701	5.5	200	1	0	304.7082	0	0	
27	1	309.0437	0	730	2058	2857	4205	701	5.5	200	1	1	310.2220	1	0	
28	0	315.6352	0	460	1105	2857	4205	551	8.5	200	0	1	316.7849	0	1	
29	1	323.6734	0	460	1105	2857	4205	551	8.5	200	0	0	324.6100	1	1	
30	0	329.0405	0	460	1105	2857	4205	901	17.5	200	0	0	329.7463	1	0	
31	0	334.2957	0	460	1105	2857	4205	801	8.5	200	0	0	335.2527	1	0	
32	0	339.2975	0	730	2058	2857	4205	601	5.5	200	1	1	340.1030	1	1	
33	0	347.3037	0	730	2058	2857	4205	751	8.5	200	1	1	348.5683	1	1	
34	0	357.4598	0	730	2058	2857	4205	701	-0.5	200	1	0	358.3711	0	1	
35	1	364.4749	0	730	2058	2857	4205	701	-0.5	200	1	1	365.4458	1	1	
36	0	371.4472	0	730	2058	2857	4205	551	17.5	200	1	1	372.8699	1	1	
37	0	380.4928	0	460	1105	2857	4205	651	14.5	200	0	1	381.4590	0	1	
38	1	387.6824	0	460	1105	2857	4205	651	14.5	200	0	0	388.2628	1	1	
39	0	392.6131	0	730	2058	2857	4205	951	11.5	200	1	1	393.5032	1	1	
40	0	398.8618	0	460	1105	2857	4205	1001	8.5	200	0	1	399.6102	0	1	
41	1	424.1279	0	460	1105	2857	4205	1001	8.5	200	0	1	425.4988	0	1	
42	1	436.2511	0	460	1105	2857	4205	1001	8.5	200	0	0	437.2451	1	1	
43	0	442.0677	0	460	1105	2857	4205	851	-0.5	200	0	0	442.9989	1	1	
44	0	447.3634	1	730	2058	2857	4205	501	11.5	200	1	0	449.8566	0	1	
45	1	458.6257	0	730	2058	2857	4205	501	11.5	200	1	1	460.5089	1	1	
46	0	466.4894	0	730	2058	2857	4205	851	2.5	200	1	1	467.6753	1	1	
47	0	481.7876	1	460	1105	2857	4205	651	8.5	200	0	0	482.5251	1	0	
48	0	486.7754	1	460	1105	2857	4205	1001	17.5	200	0	1	492.0861	0	0	
49	1	497.9672	0	460	1105	2857	4205	1001	17.5	200	0	0	499.0888	1	0	
50	0	502.9949	1	730	2058	2857	4205	701	-0.5	200	1	0	507.7783	0	1	
51	1	513.3951	0	730	2058	2857	4205	701	-0.5	200	1	1	514.8290	1	1	
52	0	520.6589	0	460	1105	2857	4205	951	17.5	200	0	1	521.8984	0	1	
53	1	526.8900	0	460	1105	2857	4205	951	17.5	200	0	0	527.7226	1	1	
54	0	532.6638	1	460	1105	2857	4205	801	14.5	200	0	1	537.3726	0	1	
55	1	544.1986	0	460	1105	2857	4205	801	14.5	200	0	0	545.2252	1	1	
56	0	548.9388	0	730	2058	2857	4205	601	17.5	200	1	0	551.6299	0	1	
57	1	557.4018	0	730	2058	2857	4205	601	17.5	200	1	1	558.8656	1	1	
58	0	564.4434	0	730	2058	2857	4205	901	5.5	200	1	1	565.6542	1	1	
59	0	570.8580	0	730	2058	2857	4205	551	11.5	200	1	1	572.3610	1	0	
60	0	578.0198	0	730	2058	2857	4205	501	8.5	200	1	0	579.2188	0	1	
61	1	583.5955	0	730	2058	2857	4205	501	8.5	200	1	1	584.9110	1	1	
62	0	591.9664	1	730	2058	2857	4205	751	-0.5	200	1	1	597.4363	1	0	
63	0	604.5589	0	730	2058	2857	4205	1001	5.5	200	1	1	605.6788	1	0	
64	0	610.3183	0	730	2058	2857	4205	551	8.5	200	1	1	611.6012	1	0	
65	0	618.6241	0	460	1105	2857	4205	801	2.5	200	0	0	619.7287	1	0	
66	0	623.5266	0	460	1105	2857	4205	901	11.5	200	0	0	624.3906	1	1	
67	0	628.2752	0	730	2058	2857	4205	701	17.5	200	1	1	629.4821	1	0	
68	0	635.0767	0	460	1105	2857	4205	651	5.5	200	0	1	636.4521	0	1	
69	1	641.9610	0	460	1105	2857	4205	651	5.5	200	0	0	643.5367	1	1	
70	0	651.5755	1	730	2058	2857	4205	601	14.5	200	1	1	656.2943	1	1	
71	0	662.2334	0	460	1105	2857	4205	951	14.5	200	0	0	662.9226	1	0	
72	0	667.1630	0	730	2058	2857	4205	801	2.5	200	1	0	668.4421	0	0	
73	1	672.6391	0	730	2058	2857	4205	801	2.5	200	1	1	673.7983	1	0	
74	0	679.1108	0	460	1105	2857	4205	951	2.5	200	0	1	680.2271	0	1	
75	1	684.8694	0	460	1105	2857	4205	951	2.5	200	0	0	685.8706	1	1	
76	0	689.9246	0	460	1105	2857	4205	501	5.5	200	0	0	690.9214	1	0	
77	0	695.1396	0	460	1105	2857	4205	851	-0.5	200	0	0	696.5166	1	0	
78	0	700.6143	0	730	2058	2857	4205	701	14.5	200	1	1	701.5881	1	0	
79	0	706.7205	0	460	1105	2857	4205	901	11.5	200	0	0	707.9658	1	0	
80	0	711.8660	0	730	2058	2857	4205	601	14.5	200	1	1	713.0793	1	1	
81	0	718.2480	0	460	1105	2857	4205	551	11.5	200	0	1	719.5057	0	1	
82	1	723.9281	0	460	1105	2857	4205	551	11.5	200	0	0	725.2060	1	1	
83	0	729.9740	0	460	1105	2857	4205	751	5.5	200	0	1	731.3210	0	1	
84	1	746.5904	0	460	1105	2857	4205	751	5.5	200	0	0	747.7111	1	1	
85	0	751.7104	0	460	1105	2857	4205	651	14.5	200	0	1	753.0018	0	1	
86	1	759.0674	1	460	1105	2857	4205	651	14.5	200	0	0	763.1892	1	1	
87	0	768.4342	1	460	1105	2857	4205	901	17.5	200	0	0	771.3599	1	0	
88	0	775.6385	0	460	1105	2857	4205	601	8.5	200	0	0	776.7263	1	0	
89	0	780.5426	1	730	2058	2857	4205	501	8.5	200	1	1	784.3797	1	1	
90	0	788.9061	0	460	1105	2857	4205	1001	2.5	200	0	1	790.3917	0	1	
91	1	795.2531	0	460	1105	2857	4205	1001	2.5	200	0	0	796.6011	1	1	
92	0	800.8202	0	730	2058	2857	4205	701	14.5	200	1	1	802.4512	1	0	
93	0	807.5600	0	730	2058	2857	4205	951	17.5	200	1	1	809.0526	1	0	
94	0	814.2706	0	460	1105	2857	4205	851	8.5	200	0	1	815.6632	0	1	
95	1	821.1995	0	460	1105	2857	4205	851	8.5	200	0	0	822.1432	1	1	
96	0	827.6184	0	730	2058	2857	4205	651	2.5	200	1	1	829.4582	1	1	
97	0	834.2573	0	460	1105	2857	4205	801	5.5	200	0	0	835.3268	1	0	
98	0	839.0569	0	730	2058	2857	4205	751	-0.5	200	1	1	840.2098	1	1	
99	0	845.2075	0	460	1105	2857	4205	1001	17.5	200	0	1	846.5736	0	1	
100	1	858.9406	0	460	1105	2857	4205	1001	17.5	200	0	1	860.1684	0	1	
101	1	873.1469	0	460	1105	2857	4205	1001	17.5	200	0	1	874.5512	0	1	
102	1	879.5288	0	460	1105	2857	4205	1001	17.5	200	0	0	880.7916	1	1	
103	0	886.7135	0	460	1105	2857	4205	951	14.5	200	0	0	887.9356	1	0	
104	0	892.1157	0	460	1105	2857	4205	851	-0.5	200	0	0	893.3217	1	0	
105	0	896.9939	0	460	1105	2857	4205	501	-0.5	200	0	1	898.2151	0	1	
106	1	903.0046	1	460	1105	2857	4205	501	-0.5	200	0	0	907.1917	1	1	
107	0	910.9246	0	730	2058	2857	4205	701	17.5	200	1	1	912.2783	1	1	
108	0	916.9170	0	460	1105	2857	4205	801	11.5	200	0	0	918.2495	1	0	
109	0	922.7878	1	730	2058	2857	4205	601	11.5	200	1	0	929.0206	0	1	
110	1	934.1914	0	730	2058	2857	4205	601	11.5	200	1	1	935.9196	1	1	
111	0	940.6510	0	730	2058	2857	4205	751	5.5	200	1	1	942.1138	1	1	
112	0	947.3656	0	730	2058	2857	4205	651	5.5	200	1	0	948.5304	0	0	
113	1	959.6346	0	730	2058	2857	4205	651	5.5	200	1	1	961.3193	1	0	
114	0	968.1211	0	730	2058	2857	4205	551	2.5	200	1	0	969.8584	0	0	
