Trial	CorrectionTrial?	StartTime	CenterReward?	F1	F2	F3	F4	HoldTime	Atten	Pitch	Side	Response	RespTime	Correct	Mask	
1	0	1086.0257	1	460	1105	2857	4205	951	5.5	200	0	1	1092.0935	0	1	
2	1	1100.3347	0	460	1105	2857	4205	951	5.5	200	0	0	1101.8292	1	1	
3	0	1122.1256	0	730	2058	2857	4205	601	2.5	200	1	1	1125.1858	1	1	
4	0	1135.7903	0	730	2058	2857	4205	751	5.5	200	1	1	1137.1894	1	0	
5	0	1162.7088	0	460	1105	2857	4205	1001	11.5	200	0	1	1164.2508	0	1	
6	1	1168.5334	0	460	1105	2857	4205	1001	11.5	200	0	0	1170.6990	1	1	
7	0	1177.9389	0	460	1105	2857	4205	701	2.5	200	0	0	1179.2935	1	0	
8	0	1198.1972	0	460	1105	2857	4205	651	8.5	200	0	0	1199.1002	1	0	
9	0	1204.2502	0	460	1105	2857	4205	551	5.5	200	0	0	1205.6238	1	0	
10	0	1211.5272	1	460	1105	2857	4205	851	2.5	200	0	1	1217.1993	0	1	
11	1	1221.2155	0	460	1105	2857	4205	851	2.5	200	0	0	1222.4986	1	1	
12	0	1228.7402	0	730	2058	2857	4205	901	8.5	200	1	1	1230.0096	1	0	
13	0	1239.2466	0	730	2058	2857	4205	501	14.5	200	1	1	1240.7019	1	1	
14	0	1247.1978	0	460	1105	2857	4205	551	17.5	200	0	0	1248.4510	1	0	
15	0	1255.0420	1	730	2058	2857	4205	651	17.5	200	1	1	1259.8460	1	1	
16	0	1267.3223	0	730	2058	2857	4205	751	5.5	200	1	0	1268.9607	0	1	
17	1	1275.3070	0	730	2058	2857	4205	751	5.5	200	1	1	1276.6532	1	1	
18	0	1283.2088	0	730	2058	2857	4205	901	17.5	200	1	1	1284.6550	1	0	
19	0	1292.3735	0	460	1105	2857	4205	1001	17.5	200	0	1	1293.5554	0	1	
20	1	1306.4934	0	460	1105	2857	4205	1001	17.5	200	0	1	1307.9715	0	1	
21	1	1312.3081	0	460	1105	2857	4205	1001	17.5	200	0	0	1313.9494	1	1	
22	0	1320.0427	0	460	1105	2857	4205	851	-0.5	200	0	0	1321.2097	1	0	
23	0	1326.6659	0	460	1105	2857	4205	951	8.5	200	0	0	1328.0553	1	1	
24	0	1334.1059	0	460	1105	2857	4205	601	-0.5	200	0	0	1335.5673	1	1	
25	0	1340.5627	0	460	1105	2857	4205	701	14.5	200	0	0	1341.8243	1	0	
26	0	1347.5376	0	460	1105	2857	4205	501	14.5	200	0	1	1349.0731	0	1	
27	1	1352.7856	0	460	1105	2857	4205	501	14.5	200	0	1	1354.8244	0	1	
28	1	1365.3917	0	460	1105	2857	4205	501	14.5	200	0	0	1367.1124	1	1	
29	0	1373.2028	0	730	2058	2857	4205	851	8.5	200	1	1	1374.6676	1	1	
30	0	1380.7965	0	730	2058	2857	4205	901	11.5	200	1	1	1382.3810	1	0	
31	0	1389.0509	0	730	2058	2857	4205	801	2.5	200	1	1	1390.2307	1	0	
32	0	1398.0380	1	730	2058	2857	4205	951	-0.5	200	1	1	1398.8299	1	1	
33	0	1407.5236	0	460	1105	2857	4205	1001	11.5	200	0	0	1408.5577	1	0	
34	0	1413.3320	0	730	2058	2857	4205	651	11.5	200	1	1	1415.3318	1	1	
35	0	1421.5730	0	730	2058	2857	4205	701	14.5	200	1	1	1423.3690	1	0	
36	0	1428.0827	1	730	2058	2857	4205	551	-0.5	200	1	0	1434.1223	0	0	
37	1	1439.4617	0	730	2058	2857	4205	551	-0.5	200	1	1	1441.2553	1	0	
38	0	1446.8673	1	460	1105	2857	4205	751	2.5	200	0	1	1451.2444	0	1	
39	1	1455.1212	0	460	1105	2857	4205	751	2.5	200	0	0	1456.5104	1	1	
40	0	1461.3817	0	460	1105	2857	4205	601	2.5	200	0	0	1462.7814	1	0	
41	0	1469.0782	0	460	1105	2857	4205	951	-0.5	200	0	0	1470.7837	1	1	
42	0	1475.3779	0	460	1105	2857	4205	751	8.5	200	0	1	1476.7012	0	1	
43	1	1480.5995	0	460	1105	2857	4205	751	8.5	200	0	0	1483.3374	1	1	
44	0	1488.0082	1	460	1105	2857	4205	501	-0.5	200	0	0	1492.3335	1	0	
45	0	1497.6342	0	460	1105	2857	4205	851	14.5	200	0	0	1500.1567	1	0	
46	0	1506.3089	0	730	2058	2857	4205	801	2.5	200	1	1	1507.9413	1	0	
47	0	1511.9873	0	730	2058	2857	4205	651	-0.5	200	1	0	1513.8747	0	1	
48	1	1520.1255	0	730	2058	2857	4205	651	-0.5	200	1	1	1521.5573	1	1	
49	0	1527.9794	0	460	1105	2857	4205	1001	8.5	200	0	0	1529.3994	1	0	
50	0	1534.1055	0	730	2058	2857	4205	601	11.5	200	1	1	1535.4906	1	1	
51	0	1542.2289	0	730	2058	2857	4205	701	8.5	200	1	1	1543.4793	1	1	
52	0	1549.6005	0	730	2058	2857	4205	901	-0.5	200	1	1	1550.9819	1	0	
53	0	1556.4359	1	460	1105	2857	4205	801	11.5	200	0	1	1561.0480	0	1	
54	1	1565.2376	0	460	1105	2857	4205	801	11.5	200	0	0	1567.0559	1	1	
55	0	1573.1935	0	730	2058	2857	4205	901	8.5	200	1	1	1574.7213	1	0	
56	0	1580.4657	0	460	1105	2857	4205	701	14.5	200	0	1	1582.1709	0	1	
57	1	1586.1208	0	460	1105	2857	4205	701	14.5	200	0	0	1587.7243	1	1	
58	0	1592.7581	0	460	1105	2857	4205	501	5.5	200	0	1	1594.6116	0	1	
59	1	1598.9141	0	460	1105	2857	4205	501	5.5	200	0	0	1600.3991	1	1	
60	0	1604.8877	0	460	1105	2857	4205	651	17.5	200	0	0	1606.6029	1	0	
61	0	1611.2201	0	730	2058	2857	4205	851	17.5	200	1	1	1612.4146	1	0	
62	0	1618.0493	0	460	1105	2857	4205	951	17.5	200	0	0	1619.8830	1	1	
63	0	1637.1830	0	730	2058	2857	4205	1001	5.5	200	1	1	1640.9074	1	0	
64	0	1645.5464	0	730	2058	2857	4205	601	2.5	200	1	1	1647.5532	1	1	
65	0	1652.7511	0	730	2058	2857	4205	551	17.5	200	1	1	1654.2343	1	1	
66	0	1665.6676	0	460	1105	2857	4205	951	5.5	200	0	0	1667.1710	1	0	
67	0	1671.3074	1	730	2058	2857	4205	851	11.5	200	1	1	1674.8254	1	0	
68	0	1679.8305	0	730	2058	2857	4205	801	5.5	200	1	1	1681.7042	1	1	
69	0	1686.4117	0	730	2058	2857	4205	601	14.5	200	1	0	1688.6407	0	1	
70	1	1695.6080	0	730	2058	2857	4205	601	14.5	200	1	1	1697.3701	1	1	
71	0	1700.9852	0	460	1105	2857	4205	501	11.5	200	0	0	1702.4896	1	0	
72	0	1725.4475	0	730	2058	2857	4205	701	14.5	200	1	0	1731.3874	0	0	
73	1	1769.5613	0	730	2058	2857	4205	701	14.5	200	1	0	1772.8797	0	0	
74	1	1779.6407	0	730	2058	2857	4205	701	14.5	200	1	1	1781.5237	1	0	
