Trial	CorrectionTrial?	StartTime	CenterReward?	F1	F2	F3	F4	HoldTime	Atten	Pitch	Side	Response	RespTime	Correct	Mask	
1	0	1000.6951	0	460	1105	2857	4205	651	8.5	200	0	0	1002.7716	1	1	
2	0	1010.8183	0	460	1105	2857	4205	951	-0.5	200	0	0	1012.1830	1	1	
3	0	1018.4698	0	460	1105	2857	4205	901	11.5	200	0	0	1019.7914	1	0	
4	0	1026.3048	0	460	1105	2857	4205	701	14.5	200	0	0	1027.4492	1	0	
5	0	1033.0848	0	730	2058	2857	4205	551	8.5	200	1	1	1034.7720	1	1	
6	0	1039.8797	0	730	2058	2857	4205	1001	-0.5	200	1	0	1042.1295	0	0	
7	1	1053.6725	0	730	2058	2857	4205	1001	-0.5	200	1	1	1055.1754	1	0	
8	0	1061.9159	0	730	2058	2857	4205	851	5.5	200	1	1	1063.3414	1	0	
9	0	1068.7604	0	460	1105	2857	4205	501	5.5	200	0	0	1070.1917	1	0	
10	0	1076.2836	0	460	1105	2857	4205	751	2.5	200	0	1	1077.8598	0	1	
11	1	1088.4506	0	460	1105	2857	4205	751	2.5	200	0	0	1089.5924	1	1	
12	0	1094.2093	0	460	1105	2857	4205	601	5.5	200	0	1	1095.9123	0	1	
13	1	1100.0343	0	460	1105	2857	4205	601	5.5	200	0	0	1101.3653	1	1	
14	0	1112.2982	0	730	2058	2857	4205	801	17.5	200	1	1	1115.0429	1	0	
15	0	1120.1549	0	730	2058	2857	4205	501	2.5	200	1	1	1122.2340	1	0	
16	0	1127.4762	0	460	1105	2857	4205	1001	-0.5	200	0	0	1128.6869	1	0	
17	0	1133.9939	0	730	2058	2857	4205	951	11.5	200	1	0	1135.5781	0	1	
18	1	1140.1433	0	730	2058	2857	4205	951	11.5	200	1	1	1141.5173	1	1	
19	0	1147.7202	0	730	2058	2857	4205	751	14.5	200	1	1	1148.7231	1	1	
20	0	1155.3957	0	730	2058	2857	4205	601	5.5	200	1	1	1156.7928	1	1	
21	0	1162.4683	0	730	2058	2857	4205	901	11.5	200	1	1	1164.0622	1	0	
22	0	1169.1880	0	460	1105	2857	4205	851	11.5	200	0	0	1170.7467	1	1	
23	0	1177.0062	0	730	2058	2857	4205	551	14.5	200	1	1	1178.6411	1	0	
24	0	1183.3097	0	460	1105	2857	4205	701	8.5	200	0	0	1184.7221	1	0	
25	0	1189.9363	0	730	2058	2857	4205	501	17.5	200	1	1	1191.4786	1	1	
26	0	1196.8206	0	730	2058	2857	4205	1001	-0.5	200	1	1	1198.2968	1	1	
27	0	1204.3490	0	460	1105	2857	4205	601	14.5	200	0	1	1206.1227	0	1	
28	1	1216.2192	0	460	1105	2857	4205	601	14.5	200	0	0	1217.2174	1	1	
29	0	1221.9173	0	460	1105	2857	4205	951	17.5	200	0	1	1223.1070	0	1	
30	1	1227.5635	0	460	1105	2857	4205	951	17.5	200	0	0	1228.5666	1	1	
31	0	1233.9215	0	460	1105	2857	4205	801	17.5	200	0	0	1235.0798	1	0	
32	0	1239.7342	0	730	2058	2857	4205	901	2.5	200	1	1	1240.9857	1	1	
33	0	1245.4905	0	460	1105	2857	4205	851	2.5	200	0	0	1246.9810	1	0	
34	0	1251.8112	0	730	2058	2857	4205	701	8.5	200	1	1	1253.2321	1	0	
35	0	1258.1500	1	460	1105	2857	4205	551	5.5	200	0	1	1262.7515	0	0	
36	1	1267.5382	0	460	1105	2857	4205	551	5.5	200	0	0	1268.7949	1	0	
37	0	1273.2269	1	730	2058	2857	4205	651	17.5	200	1	1	1279.0649	1	0	
38	0	1283.8780	1	460	1105	2857	4205	851	2.5	200	0	1	1290.3012	0	1	
39	1	1294.3436	0	460	1105	2857	4205	851	2.5	200	0	0	1295.7087	1	1	
40	0	1300.4688	0	460	1105	2857	4205	751	5.5	200	0	1	1302.0585	0	1	
41	1	1307.2777	0	460	1105	2857	4205	751	5.5	200	0	0	1308.5664	1	1	
42	0	1313.8869	0	730	2058	2857	4205	651	14.5	200	1	1	1315.7450	1	0	
43	0	1320.2129	0	460	1105	2857	4205	501	14.5	200	0	0	1322.1419	1	0	
44	0	1328.7154	0	460	1105	2857	4205	1001	8.5	200	0	1	1329.9510	0	1	
45	1	1337.5627	1	460	1105	2857	4205	1001	8.5	200	0	0	1338.5633	1	1	
46	0	1344.0982	0	460	1105	2857	4205	901	11.5	200	0	1	1347.8135	0	1	
47	1	1351.9947	0	460	1105	2857	4205	901	11.5	200	0	0	1353.7691	1	1	
48	0	1358.2855	0	460	1105	2857	4205	801	-0.5	200	0	1	1360.1489	0	1	
49	1	1364.4184	0	460	1105	2857	4205	801	-0.5	200	0	0	1366.9729	1	1	
50	0	1372.0716	0	730	2058	2857	4205	701	14.5	200	1	1	1373.6832	1	1	
51	0	1377.9716	0	730	2058	2857	4205	551	11.5	200	1	1	1379.7238	1	1	
52	0	1384.4460	0	730	2058	2857	4205	951	8.5	200	1	1	1386.0404	1	0	
53	0	1390.4092	1	730	2058	2857	4205	501	17.5	200	1	1	1394.7155	1	1	
54	0	1399.5337	1	460	1105	2857	4205	701	8.5	200	0	1	1404.8997	0	0	
55	1	1409.7303	0	460	1105	2857	4205	701	8.5	200	0	0	1411.7252	1	0	
56	0	1416.4191	0	460	1105	2857	4205	851	17.5	200	0	1	1417.9004	0	1	
57	1	1423.4583	0	460	1105	2857	4205	851	17.5	200	0	0	1425.0908	1	1	
58	0	1429.8754	0	460	1105	2857	4205	1001	2.5	200	0	0	1430.8993	1	0	
59	0	1434.7955	0	460	1105	2857	4205	601	17.5	200	0	1	1436.6476	0	0	
60	1	1441.8977	0	460	1105	2857	4205	601	17.5	200	0	0	1443.1715	1	0	
61	0	1448.2565	0	730	2058	2857	4205	651	11.5	200	1	1	1450.0382	1	0	
62	0	1454.1446	0	730	2058	2857	4205	901	5.5	200	1	1	1455.9371	1	0	
63	0	1461.3298	0	730	2058	2857	4205	751	2.5	200	1	1	1463.3368	1	0	
64	0	1468.2413	0	730	2058	2857	4205	801	2.5	200	1	0	1469.7506	0	1	
65	1	1475.7457	0	730	2058	2857	4205	801	2.5	200	1	1	1477.0269	1	1	
66	0	1482.6265	0	730	2058	2857	4205	951	-0.5	200	1	1	1484.0278	1	0	
67	0	1489.0466	1	730	2058	2857	4205	701	5.5	200	1	1	1493.7176	1	1	
68	0	1498.1513	0	730	2058	2857	4205	551	-0.5	200	1	1	1500.7107	1	1	
69	0	1506.0694	0	730	2058	2857	4205	751	8.5	200	1	1	1508.0253	1	1	
70	0	1512.5335	0	460	1105	2857	4205	601	11.5	200	0	0	1513.8552	1	0	
71	0	1519.2193	0	460	1105	2857	4205	1001	14.5	200	0	1	1520.6374	0	1	
72	1	1524.7426	0	460	1105	2857	4205	1001	14.5	200	0	0	1526.3633	1	1	
73	0	1530.6600	0	460	1105	2857	4205	651	-0.5	200	0	0	1531.7510	1	0	
74	0	1536.2096	0	460	1105	2857	4205	801	2.5	200	0	1	1537.7134	0	1	
75	1	1542.0077	0	460	1105	2857	4205	801	2.5	200	0	0	1542.6845	1	1	
76	0	1546.8379	0	730	2058	2857	4205	851	17.5	200	1	1	1548.2392	1	0	
77	0	1552.4022	0	460	1105	2857	4205	501	2.5	200	0	0	1554.0059	1	0	
78	0	1565.5050	0	730	2058	2857	4205	951	8.5	200	1	0	1566.1726	0	0	
79	1	1583.5369	0	730	2058	2857	4205	951	8.5	200	1	0	1586.6967	0	0	
80	1	1597.0469	0	730	2058	2857	4205	951	8.5	200	1	1	1598.4969	1	0	
81	0	1602.1401	0	460	1105	2857	4205	501	-0.5	200	0	0	1603.5547	1	0	
82	0	1609.1798	0	460	1105	2857	4205	901	8.5	200	0	1	1610.6455	0	1	
83	1	1615.3875	0	460	1105	2857	4205	901	8.5	200	0	0	1616.5182	1	1	
84	0	1620.7336	0	460	1105	2857	4205	951	-0.5	200	0	0	1621.9641	1	1	
85	0	1632.8735	0	730	2058	2857	4205	551	11.5	200	1	0	1634.1035	0	1	
86	1	1652.0497	0	730	2058	2857	4205	551	11.5	200	1	1	1655.7176	1	1	
