Trial	CorrectionTrial?	StartTime	CenterReward?	F1	F2	F3	F4	HoldTime	Atten	Pitch	Side	Response	RespTime	Correct	Mask	
1	0	49.4861	0	730	2058	2857	4205	851	8.5	200	1	1	50.8855	1	0	
2	0	67.4266	0	460	1105	2857	4205	751	8.5	200	0	0	68.2496	1	0	
3	0	74.8471	1	460	1105	2857	4205	901	14.5	200	0	1	79.0733	0	0	
4	1	84.1008	0	460	1105	2857	4205	901	14.5	200	0	0	85.4718	1	0	
5	0	89.1767	0	460	1105	2857	4205	801	-0.5	200	0	0	90.2213	1	0	
6	0	94.0691	0	460	1105	2857	4205	651	11.5	200	0	0	95.4589	1	0	
7	0	99.2491	0	460	1105	2857	4205	551	5.5	200	0	0	100.6917	1	1	
8	0	105.0335	0	460	1105	2857	4205	601	-0.5	200	0	1	106.4013	0	1	
9	1	114.9831	0	460	1105	2857	4205	601	-0.5	200	0	0	116.1068	1	1	
10	0	122.7775	0	460	1105	2857	4205	951	11.5	200	0	1	123.6790	0	1	
11	1	132.4069	0	460	1105	2857	4205	951	11.5	200	0	0	132.9164	1	1	
12	0	137.2899	0	730	2058	2857	4205	1001	14.5	200	1	1	138.1933	1	0	
13	0	145.2645	0	460	1105	2857	4205	701	2.5	200	0	1	146.5153	0	1	
14	1	151.7222	0	460	1105	2857	4205	701	2.5	200	0	0	152.8697	1	1	
15	0	157.0388	0	730	2058	2857	4205	951	5.5	200	1	1	157.8184	1	0	
16	0	163.7165	0	460	1105	2857	4205	851	8.5	200	0	1	165.0430	0	1	
17	1	169.9662	0	460	1105	2857	4205	851	8.5	200	0	0	170.6421	1	1	
18	0	174.4195	0	730	2058	2857	4205	551	2.5	200	1	1	175.5791	1	1	
19	0	181.5386	1	730	2058	2857	4205	601	11.5	200	1	1	185.9927	1	1	
20	0	191.5580	0	730	2058	2857	4205	651	-0.5	200	1	1	195.2296	1	0	
21	0	201.6962	0	730	2058	2857	4205	801	5.5	200	1	1	203.4344	1	1	
22	0	209.9104	0	460	1105	2857	4205	501	14.5	200	0	0	211.0928	1	1	
23	0	215.1781	0	730	2058	2857	4205	701	-0.5	200	1	1	216.6822	1	1	
24	0	222.2743	0	730	2058	2857	4205	1001	14.5	200	1	0	223.4919	0	1	
25	1	228.1112	0	730	2058	2857	4205	1001	14.5	200	1	0	229.0690	0	1	
26	1	234.0123	0	730	2058	2857	4205	1001	14.5	200	1	1	235.4865	1	1	
27	0	241.0520	1	460	1105	2857	4205	751	5.5	200	0	0	245.4503	1	0	
28	0	249.3017	0	730	2058	2857	4205	651	8.5	200	1	1	251.0239	1	1	
29	0	256.0685	0	730	2058	2857	4205	601	2.5	200	1	0	257.4233	0	0	
30	1	262.3967	0	730	2058	2857	4205	601	2.5	200	1	1	264.2971	1	0	
31	0	269.4816	1	460	1105	2857	4205	851	2.5	200	0	0	273.2538	1	0	
32	0	276.5297	0	730	2058	2857	4205	751	11.5	200	1	1	278.2572	1	0	
33	0	282.8936	0	460	1105	2857	4205	551	2.5	200	0	0	284.3228	1	0	
34	0	287.5912	0	460	1105	2857	4205	701	-0.5	200	0	0	288.9864	1	0	
35	0	292.5025	0	460	1105	2857	4205	501	11.5	200	0	1	293.7840	0	1	
36	1	302.9647	0	460	1105	2857	4205	501	11.5	200	0	1	304.5896	0	1	
37	1	310.7535	0	460	1105	2857	4205	501	11.5	200	0	0	311.6875	1	1	
38	0	315.8079	0	460	1105	2857	4205	801	-0.5	200	0	0	316.7104	1	1	
39	0	320.6163	0	730	2058	2857	4205	1001	-0.5	200	1	1	321.3795	1	1	
40	0	327.0419	0	730	2058	2857	4205	951	-0.5	200	1	0	328.3898	0	0	
41	1	332.9434	1	730	2058	2857	4205	951	-0.5	200	1	0	336.8147	0	0	
42	1	344.7466	0	730	2058	2857	4205	951	-0.5	200	1	1	346.5746	1	0	
43	0	351.8992	0	730	2058	2857	4205	951	2.5	200	1	1	353.8989	1	1	
44	0	360.0612	0	460	1105	2857	4205	701	8.5	200	0	1	361.8818	0	1	
45	1	371.6582	0	460	1105	2857	4205	701	8.5	200	0	0	372.5221	1	1	
46	0	376.3176	0	730	2058	2857	4205	601	8.5	200	1	1	377.6280	1	1	
47	0	383.0428	0	730	2058	2857	4205	901	11.5	200	1	1	384.4399	1	1	
48	0	390.2104	0	460	1105	2857	4205	651	11.5	200	0	0	391.4338	1	0	
49	0	395.5311	0	460	1105	2857	4205	851	5.5	200	0	0	396.1329	1	0	
50	0	399.7977	1	730	2058	2857	4205	551	11.5	200	1	0	402.9090	0	0	
51	1	409.3349	0	730	2058	2857	4205	551	11.5	200	1	1	411.6749	1	0	
52	0	416.3854	0	730	2058	2857	4205	751	14.5	200	1	1	418.3085	1	0	
53	0	422.5166	0	460	1105	2857	4205	501	14.5	200	0	1	424.1649	0	1	
54	1	433.5902	0	460	1105	2857	4205	501	14.5	200	0	0	434.5724	1	1	
55	0	438.6039	0	730	2058	2857	4205	1001	5.5	200	1	1	439.9720	1	0	
56	0	444.6862	0	460	1105	2857	4205	651	14.5	200	0	1	446.3955	0	0	
57	1	452.7870	0	460	1105	2857	4205	651	14.5	200	0	0	453.4211	1	0	
58	0	457.0657	0	730	2058	2857	4205	951	8.5	200	1	1	458.0696	1	0	
59	0	462.5041	0	730	2058	2857	4205	701	5.5	200	1	1	463.8919	1	1	
60	0	468.7688	0	460	1105	2857	4205	801	2.5	200	0	0	469.9184	1	1	
61	0	474.2221	0	460	1105	2857	4205	851	8.5	200	0	0	475.0834	1	0	
62	0	478.8433	0	730	2058	2857	4205	601	14.5	200	1	1	479.9422	1	1	
63	0	485.7591	0	460	1105	2857	4205	1001	5.5	200	0	0	487.1576	1	1	
64	0	490.4693	0	730	2058	2857	4205	551	2.5	200	1	1	491.8194	1	0	
65	0	496.8849	0	730	2058	2857	4205	901	14.5	200	1	1	498.2398	1	0	
66	0	502.9210	0	730	2058	2857	4205	751	8.5	200	1	1	504.8324	1	0	
67	0	509.4570	0	730	2058	2857	4205	801	2.5	200	1	0	510.8319	0	1	
68	1	516.2659	0	730	2058	2857	4205	801	2.5	200	1	1	517.7573	1	1	
69	0	522.2368	0	730	2058	2857	4205	951	5.5	200	1	1	523.8066	1	1	
70	0	528.7788	0	730	2058	2857	4205	901	11.5	200	1	1	530.0699	1	0	
71	0	535.0481	0	460	1105	2857	4205	851	2.5	200	0	0	536.3268	1	1	
72	0	539.6197	0	460	1105	2857	4205	551	5.5	200	0	0	540.6568	1	0	
73	0	544.1564	0	460	1105	2857	4205	751	2.5	200	0	0	544.8255	1	0	
74	0	548.2254	0	730	2058	2857	4205	701	5.5	200	1	1	549.3139	1	0	
75	0	553.6014	0	730	2058	2857	4205	651	-0.5	200	1	1	555.2959	1	1	
76	0	560.4256	0	730	2058	2857	4205	601	8.5	200	1	1	562.0914	1	1	
77	0	572.5424	0	460	1105	2857	4205	1001	11.5	200	0	0	573.1447	1	0	
78	0	576.5353	0	460	1105	2857	4205	951	8.5	200	0	1	577.4182	0	1	
79	1	587.4006	0	460	1105	2857	4205	951	8.5	200	0	0	588.2966	1	1	
80	0	591.9514	0	460	1105	2857	4205	801	5.5	200	0	1	593.0530	0	1	
81	1	598.4057	0	460	1105	2857	4205	801	5.5	200	0	1	600.2806	0	1	
82	1	606.7251	1	460	1105	2857	4205	801	5.5	200	0	0	610.3610	1	1	
83	0	613.5106	0	460	1105	2857	4205	601	8.5	200	0	0	615.1494	1	0	
84	0	618.3270	0	730	2058	2857	4205	501	-0.5	200	1	1	619.9391	1	0	
85	0	624.4357	0	460	1105	2857	4205	751	14.5	200	0	1	626.0772	0	1	
86	1	632.3814	0	460	1105	2857	4205	751	14.5	200	0	0	633.5221	1	1	
87	0	637.7602	0	730	2058	2857	4205	651	11.5	200	1	1	639.1502	1	1	
88	0	643.3919	0	730	2058	2857	4205	551	14.5	200	1	1	645.4027	1	1	
89	0	649.8619	0	460	1105	2857	4205	901	11.5	200	0	0	651.2882	1	1	
90	0	654.9936	0	460	1105	2857	4205	851	-0.5	200	0	0	656.2092	1	1	
91	0	659.7350	0	460	1105	2857	4205	1001	14.5	200	0	0	660.7206	1	0	
92	0	663.8803	0	730	2058	2857	4205	551	2.5	200	1	1	665.3057	1	0	
93	0	669.8380	0	460	1105	2857	4205	851	-0.5	200	0	0	671.1877	1	0	
94	0	675.2537	0	460	1105	2857	4205	801	2.5	200	0	0	676.3904	1	1	
95	0	680.3519	0	730	2058	2857	4205	1001	2.5	200	1	1	681.8605	1	0	
96	0	686.7411	0	460	1105	2857	4205	751	11.5	200	0	1	688.1602	0	1	
97	1	698.7357	0	460	1105	2857	4205	751	11.5	200	0	0	699.6346	1	1	
98	0	703.2103	1	730	2058	2857	4205	901	8.5	200	1	0	706.9471	0	1	
99	1	712.0015	0	730	2058	2857	4205	901	8.5	200	1	1	714.6773	1	1	
100	0	720.2936	0	730	2058	2857	4205	951	11.5	200	1	1	722.0206	1	1	
101	0	726.3744	0	460	1105	2857	4205	601	14.5	200	0	1	729.3710	0	1	
102	1	734.7449	0	460	1105	2857	4205	601	14.5	200	0	0	735.4403	1	1	
103	0	738.3801	0	730	2058	2857	4205	501	11.5	200	1	1	739.9471	1	0	
104	0	744.5962	0	460	1105	2857	4205	701	8.5	200	0	0	745.7358	1	0	
105	0	749.1423	0	730	2058	2857	4205	801	14.5	200	1	1	750.3725	1	0	
106	0	755.1637	0	460	1105	2857	4205	601	5.5	200	0	0	757.0942	1	0	
107	0	761.5094	0	730	2058	2857	4205	751	2.5	200	1	0	763.2468	0	1	
