Trial	CorrectionTrial?	StartTime	CenterReward?	F1	F2	F3	F4	HoldTime	Atten	Pitch	Side	Response	RespTime	Correct	Mask	
64	0	1157.3311	0	730	2058	2857	4205	801	5.5	200	1	1	1159.2191	1	1	
65	0	1166.8396	0	730	2058	2857	4205	1001	3.5	200	1	1	1168.9048	1	1	
66	0	1177.0810	0	730	2058	2857	4205	901	-2.5	200	1	1	1179.2257	1	0	
67	0	1188.3766	0	730	2058	2857	4205	951	-2.5	200	1	1	1190.1895	1	1	
68	0	1200.4662	1	730	2058	2857	4205	851	-4.5	200	1	1	1205.8719	1	0	
69	0	1211.7694	0	460	1105	2857	4205	551	-2.5	200	0	0	1213.8656	1	1	
70	0	1219.4909	0	460	1105	2857	4205	501	-6.5	200	0	0	1220.9642	1	0	
71	0	1225.2040	0	730	2058	2857	4205	601	-6.5	200	1	0	1227.4033	0	0	
72	1	1233.6279	1	730	2058	2857	4205	601	-6.5	200	1	0	1239.6084	0	0	
73	1	1249.6195	0	730	2058	2857	4205	601	-6.5	200	1	1	1251.9830	1	0	
74	0	1257.8416	0	730	2058	2857	4205	501	1.5	200	1	1	1260.3218	1	0	
75	0	1267.2638	0	460	1105	2857	4205	801	-0.5	200	0	1	1269.8489	0	1	
76	1	1278.8586	0	460	1105	2857	4205	801	-0.5	200	0	0	1280.0693	1	1	
77	0	1286.3662	1	730	2058	2857	4205	751	-4.5	200	1	0	1290.9069	0	1	
78	1	1295.9925	0	730	2058	2857	4205	751	-4.5	200	1	0	1296.9229	0	1	
79	1	1305.6090	0	730	2058	2857	4205	751	-4.5	200	1	1	1307.7923	1	1	
80	0	1316.7863	0	730	2058	2857	4205	951	3.5	200	1	1	1318.6218	1	0	
81	0	1325.3899	0	460	1105	2857	4205	651	-6.5	200	0	0	1327.0007	1	1	
82	0	1333.5724	0	460	1105	2857	4205	1001	-4.5	200	0	0	1335.1045	1	0	
83	0	1340.2234	0	730	2058	2857	4205	851	3.5	200	1	1	1341.5390	1	0	
84	0	1348.6404	0	730	2058	2857	4205	551	3.5	200	1	1	1351.0158	1	1	
85	0	1359.1137	0	730	2058	2857	4205	701	-4.5	200	1	1	1361.4429	1	1	
86	0	1369.4311	0	460	1105	2857	4205	901	-6.5	200	0	0	1371.1292	1	1	
87	0	1376.7157	0	460	1105	2857	4205	701	-2.5	200	0	0	1377.9065	1	0	
88	0	1382.6312	0	730	2058	2857	4205	951	5.5	200	1	1	1383.7715	1	0	
89	0	1391.9555	0	730	2058	2857	4205	801	5.5	200	1	1	1393.8552	1	1	
90	0	1401.0519	0	460	1105	2857	4205	501	1.5	200	0	1	1403.2726	0	1	
91	1	1407.2891	0	460	1105	2857	4205	501	1.5	200	0	0	1408.2410	1	1	
92	0	1414.2226	0	730	2058	2857	4205	1001	-6.5	200	1	1	1415.8833	1	0	
93	0	1422.7245	0	460	1105	2857	4205	851	-0.5	200	0	1	1424.6435	0	0	
94	1	1432.5052	0	460	1105	2857	4205	851	-0.5	200	0	0	1433.4445	1	0	
95	0	1443.4979	0	460	1105	2857	4205	651	-0.5	200	0	0	1444.8751	1	1	
96	0	1449.5433	0	730	2058	2857	4205	551	1.5	200	1	1	1451.4140	1	0	
97	0	1457.9412	0	730	2058	2857	4205	601	-0.5	200	1	1	1460.1570	1	1	
98	0	1467.1187	0	460	1105	2857	4205	901	5.5	200	0	1	1468.9111	0	1	
99	1	1479.1850	0	460	1105	2857	4205	901	5.5	200	0	0	1483.5815	1	1	
100	0	1489.0554	1	730	2058	2857	4205	801	-4.5	200	1	0	1494.3024	0	0	
101	1	1506.5907	0	730	2058	2857	4205	801	-4.5	200	1	1	1512.8232	1	0	
102	0	1518.4965	1	460	1105	2857	4205	951	-4.5	200	0	0	1522.4596	1	0	
103	0	1527.6543	1	730	2058	2857	4205	1001	-6.5	200	1	0	1532.5381	0	1	
104	1	1540.2197	0	730	2058	2857	4205	1001	-6.5	200	1	1	1543.6992	1	1	
105	0	1551.5542	1	460	1105	2857	4205	901	3.5	200	0	1	1558.0453	0	1	
106	1	1568.1312	0	460	1105	2857	4205	901	3.5	200	0	1	1569.8312	0	1	
107	1	1577.6930	0	460	1105	2857	4205	901	3.5	200	0	0	1578.9587	1	1	
108	0	1584.9192	0	730	2058	2857	4205	601	1.5	200	1	1	1586.5907	1	1	
109	0	1593.0140	0	460	1105	2857	4205	851	-4.5	200	0	0	1595.5126	1	1	
110	0	1607.0117	0	730	2058	2857	4205	651	-0.5	200	1	0	1609.9002	0	0	
111	1	1616.9874	0	730	2058	2857	4205	651	-0.5	200	1	0	1618.3298	0	0	
112	1	1623.2433	1	730	2058	2857	4205	651	-0.5	200	1	1	1630.6463	1	0	
113	0	1635.9409	0	460	1105	2857	4205	501	5.5	200	0	1	1637.9747	0	0	
114	1	1645.5480	0	460	1105	2857	4205	501	5.5	200	0	0	1646.7237	1	0	
115	0	1651.6819	0	730	2058	2857	4205	551	-2.5	200	1	1	1653.4148	1	0	
116	0	1659.1064	0	460	1105	2857	4205	701	3.5	200	0	1	1660.8836	0	0	
117	1	1669.2009	0	460	1105	2857	4205	701	3.5	200	0	0	1670.3509	1	0	
118	0	1675.3977	0	460	1105	2857	4205	601	1.5	200	0	0	1676.5067	1	0	
119	0	1681.1085	0	730	2058	2857	4205	851	-2.5	200	1	1	1682.8065	1	1	
120	0	1688.7916	0	460	1105	2857	4205	651	-6.5	200	0	0	1690.0671	1	0	
121	0	1694.6533	0	460	1105	2857	4205	901	-2.5	200	0	0	1695.9424	1	1	
122	0	1700.7508	1	460	1105	2857	4205	951	5.5	200	0	1	1708.6163	0	1	
123	1	1716.4211	0	460	1105	2857	4205	951	5.5	200	0	1	1718.3785	0	1	
124	1	1727.1436	0	460	1105	2857	4205	951	5.5	200	0	0	1731.3073	1	1	
125	0	1736.5148	1	460	1105	2857	4205	551	1.5	200	0	1	1743.3978	0	1	
126	1	1748.0457	0	460	1105	2857	4205	551	1.5	200	0	0	1750.0692	1	1	
127	0	1755.7671	0	460	1105	2857	4205	751	-4.5	200	0	0	1757.0064	1	0	
128	0	1762.5306	0	730	2058	2857	4205	801	5.5	200	1	1	1764.2281	1	0	
129	0	1769.8827	0	730	2058	2857	4205	701	-4.5	200	1	1	1771.4135	1	1	
130	0	1779.6008	0	460	1105	2857	4205	1001	-0.5	200	0	0	1780.8002	1	1	
131	0	1786.1868	0	460	1105	2857	4205	901	-6.5	200	0	0	1787.0424	1	1	
132	0	1791.8558	0	730	2058	2857	4205	601	1.5	200	1	0	1792.8326	0	0	
133	1	1797.7283	1	730	2058	2857	4205	601	1.5	200	1	1	1803.3725	1	0	
134	0	1810.0987	1	460	1105	2857	4205	851	-2.5	200	0	1	1816.4392	0	1	
135	1	1831.5767	0	460	1105	2857	4205	851	-2.5	200	0	0	1835.6296	1	1	
136	0	1840.6454	1	460	1105	2857	4205	801	-6.5	200	0	0	1846.1891	1	0	
137	0	1852.0372	0	730	2058	2857	4205	951	-4.5	200	1	0	1853.8545	0	0	
138	1	1861.5884	0	730	2058	2857	4205	951	-4.5	200	1	1	1864.3237	1	0	
139	0	1871.7839	0	730	2058	2857	4205	701	-2.5	200	1	1	1873.9397	1	0	
140	0	1880.0622	0	460	1105	2857	4205	651	1.5	200	0	1	1883.2259	0	0	
141	1	1889.4378	0	460	1105	2857	4205	651	1.5	200	0	0	1891.2128	1	0	
142	0	1897.0337	0	730	2058	2857	4205	1001	-0.5	200	1	1	1898.4391	1	1	
143	0	1905.0555	0	460	1105	2857	4205	501	3.5	200	0	0	1906.4476	1	0	
144	0	1913.5757	0	460	1105	2857	4205	751	5.5	200	0	0	1914.9206	1	0	
145	0	1922.3273	0	730	2058	2857	4205	751	3.5	200	1	0	1925.4249	0	0	
146	1	1931.0207	0	730	2058	2857	4205	751	3.5	200	1	0	1932.7269	0	0	
147	1	1939.2892	0	730	2058	2857	4205	751	3.5	200	1	1	1944.3257	1	0	
148	0	1950.4257	0	460	1105	2857	4205	701	3.5	200	0	1	1952.4390	0	1	
149	1	1956.2552	0	460	1105	2857	4205	701	3.5	200	0	0	1957.2962	1	1	
150	0	1962.7978	0	730	2058	2857	4205	951	5.5	200	1	1	1964.1139	1	1	
151	0	1970.2451	0	730	2058	2857	4205	901	-2.5	200	1	1	1971.9347	1	1	
152	0	1977.5496	0	730	2058	2857	4205	651	3.5	200	1	0	1978.7375	0	1	
153	1	1984.9418	0	730	2058	2857	4205	651	3.5	200	1	0	1989.2519	0	1	
154	1	2005.4272	0	730	2058	2857	4205	651	3.5	200	1	1	2008.1174	1	1	
155	0	2014.8216	0	730	2058	2857	4205	801	-0.5	200	1	1	2016.2956	1	0	
156	0	2022.3194	0	460	1105	2857	4205	551	-4.5	200	0	0	2023.5018	1	1	
157	0	2030.9031	0	730	2058	2857	4205	501	1.5	200	1	0	2033.7046	0	1	
