Trial	CorrectionTrial?	StartTime	CenterReward?	F1	F2	F3	F4	HoldTime	Atten	Pitch	Side	Response	RespTime	Correct	Mask	
1	0	460.1256	0	730	2058	2857	4205	501	14.5	200	1	1	462.4814	1	1	
2	0	468.5835	0	730	2058	2857	4205	751	17.5	200	1	0	470.8717	0	1	
3	1	476.2299	1	730	2058	2857	4205	751	17.5	200	1	1	482.2158	1	1	
4	0	493.0640	0	730	2058	2857	4205	551	2.5	200	1	1	495.3049	1	1	
5	0	507.2744	0	730	2058	2857	4205	701	2.5	200	1	1	509.4488	1	0	
6	0	519.5188	0	460	1105	2857	4205	951	17.5	200	0	0	520.5786	1	0	
7	0	527.3226	0	730	2058	2857	4205	901	11.5	200	1	1	528.8000	1	1	
8	0	534.4495	0	460	1105	2857	4205	801	11.5	200	0	0	535.8024	1	0	
9	0	542.7396	0	460	1105	2857	4205	851	5.5	200	0	0	543.4928	1	0	
10	0	549.4030	0	730	2058	2857	4205	1001	5.5	200	1	1	550.9251	1	1	
11	0	562.9640	0	460	1105	2857	4205	651	2.5	200	0	0	563.9742	1	0	
12	0	568.9339	1	460	1105	2857	4205	651	5.5	200	0	0	573.7479	1	1	
13	0	579.1101	0	730	2058	2857	4205	801	8.5	200	1	1	580.7491	1	1	
14	0	585.7151	0	460	1105	2857	4205	701	8.5	200	0	0	586.7991	1	1	
15	0	591.9402	0	730	2058	2857	4205	901	17.5	200	1	1	593.5834	1	0	
16	0	599.9315	0	730	2058	2857	4205	551	11.5	200	1	1	601.3463	1	0	
17	0	616.2142	0	730	2058	2857	4205	851	8.5	200	1	0	617.8409	0	0	
18	1	623.4974	0	730	2058	2857	4205	851	8.5	200	1	1	626.1405	1	0	
19	0	632.2637	0	460	1105	2857	4205	951	14.5	200	0	0	633.3136	1	0	
20	0	639.9389	0	730	2058	2857	4205	1001	14.5	200	1	1	642.1495	1	0	
21	0	650.5526	0	460	1105	2857	4205	501	17.5	200	0	1	653.1186	0	1	
22	1	661.5156	0	460	1105	2857	4205	501	17.5	200	0	0	662.7577	1	1	
23	0	666.8222	0	460	1105	2857	4205	751	2.5	200	0	1	668.4328	0	1	
24	1	681.5646	0	460	1105	2857	4205	751	2.5	200	0	0	682.7982	1	1	
25	0	688.5520	0	460	1105	2857	4205	801	8.5	200	0	0	689.3664	1	0	
26	0	694.3579	0	730	2058	2857	4205	751	5.5	200	1	0	695.4691	0	0	
27	1	701.0825	0	730	2058	2857	4205	751	5.5	200	1	1	702.3616	1	0	
28	0	707.6690	0	460	1105	2857	4205	701	11.5	200	0	1	709.0845	0	1	
29	1	712.8652	0	460	1105	2857	4205	701	11.5	200	0	0	714.0494	1	1	
30	0	721.5303	0	460	1105	2857	4205	951	14.5	200	0	1	722.9420	0	1	
31	1	727.8255	0	460	1105	2857	4205	951	14.5	200	0	0	729.6708	1	1	
32	0	735.0524	0	460	1105	2857	4205	601	11.5	200	0	0	736.3423	1	0	
33	0	741.3409	1	460	1105	2857	4205	1001	17.5	200	0	0	746.3766	1	1	
34	0	751.1575	0	460	1105	2857	4205	551	14.5	200	0	1	753.2384	0	0	
35	1	763.3764	0	460	1105	2857	4205	551	14.5	200	0	0	764.3901	1	0	
36	0	769.9309	0	730	2058	2857	4205	851	2.5	200	1	1	771.5217	1	1	
37	0	777.0282	0	460	1105	2857	4205	651	5.5	200	0	0	778.1738	1	0	
38	0	783.0633	0	460	1105	2857	4205	501	17.5	200	0	0	784.7923	1	0	
39	0	790.3171	0	730	2058	2857	4205	551	11.5	200	1	1	791.7887	1	0	
40	0	797.3349	0	730	2058	2857	4205	501	17.5	200	1	1	799.4511	1	1	
41	0	806.2436	0	730	2058	2857	4205	1001	5.5	200	1	1	807.4912	1	1	
42	0	813.7515	0	460	1105	2857	4205	751	8.5	200	0	1	815.4650	0	1	
43	1	825.8675	0	460	1105	2857	4205	751	8.5	200	0	0	827.2112	1	1	
44	0	831.6950	0	730	2058	2857	4205	851	14.5	200	1	1	833.4764	1	0	
45	0	840.1845	0	730	2058	2857	4205	651	5.5	200	1	0	841.7071	0	0	
46	1	845.7730	0	730	2058	2857	4205	651	5.5	200	1	1	847.6529	1	0	
47	0	853.4884	0	730	2058	2857	4205	951	2.5	200	1	1	855.3435	1	0	
48	0	860.9208	0	460	1105	2857	4205	801	5.5	200	0	1	862.5961	0	1	
49	1	872.0014	0	460	1105	2857	4205	801	5.5	200	0	0	872.7206	1	1	
50	0	876.9523	0	730	2058	2857	4205	601	11.5	200	1	1	878.8063	1	1	
51	0	883.1185	1	460	1105	2857	4205	901	2.5	200	0	0	888.3880	1	1	
52	0	892.7909	0	730	2058	2857	4205	551	8.5	200	1	1	894.5646	1	1	
53	0	899.1031	0	460	1105	2857	4205	951	2.5	200	0	0	900.4979	1	0	
54	0	905.7713	0	460	1105	2857	4205	501	14.5	200	0	1	907.4339	0	1	
55	1	915.6551	0	460	1105	2857	4205	501	14.5	200	0	0	916.7940	1	1	
56	0	924.7259	0	460	1105	2857	4205	1001	8.5	200	0	0	925.5111	1	0	
57	0	930.0545	0	730	2058	2857	4205	651	8.5	200	1	1	931.6418	1	0	
58	0	936.6648	0	730	2058	2857	4205	751	17.5	200	1	1	939.4599	1	0	
59	0	944.3341	0	730	2058	2857	4205	801	14.5	200	1	0	945.7423	0	1	
60	1	953.0225	0	730	2058	2857	4205	801	14.5	200	1	0	954.3587	0	1	
61	1	959.4302	0	730	2058	2857	4205	801	14.5	200	1	1	961.6379	1	1	
62	0	966.7526	0	460	1105	2857	4205	901	11.5	200	0	1	970.9502	0	1	
63	1	978.9651	0	460	1105	2857	4205	901	11.5	200	0	0	979.6951	1	1	
64	0	983.5936	0	730	2058	2857	4205	601	5.5	200	1	1	985.5232	1	1	
65	0	989.6885	0	730	2058	2857	4205	851	5.5	200	1	0	991.4350	0	0	
66	1	997.6055	0	730	2058	2857	4205	851	5.5	200	1	1	999.6603	1	0	
67	0	1005.8124	0	460	1105	2857	4205	751	2.5	200	0	0	1007.1093	1	1	
68	0	1011.5284	1	730	2058	2857	4205	601	17.5	200	1	0	1015.3882	0	0	
69	1	1021.8336	0	730	2058	2857	4205	601	17.5	200	1	1	1024.5648	1	0	
70	0	1030.4809	0	730	2058	2857	4205	551	14.5	200	1	0	1031.8884	0	1	
71	1	1038.2333	0	730	2058	2857	4205	551	14.5	200	1	0	1039.7170	0	1	
72	1	1046.2039	0	730	2058	2857	4205	551	14.5	200	1	1	1047.7540	1	1	
73	0	1052.4580	0	730	2058	2857	4205	501	2.5	200	1	1	1054.7074	1	0	
74	0	1060.6386	0	730	2058	2857	4205	651	14.5	200	1	1	1062.1703	1	0	
75	0	1066.8781	0	460	1105	2857	4205	701	11.5	200	0	0	1068.1762	1	0	
76	0	1073.1573	0	460	1105	2857	4205	901	17.5	200	0	1	1074.8924	0	1	
77	1	1080.2785	0	460	1105	2857	4205	901	17.5	200	0	0	1081.8666	1	1	
78	0	1086.1247	0	730	2058	2857	4205	801	17.5	200	1	1	1088.7185	1	1	
79	0	1093.6023	0	460	1105	2857	4205	851	14.5	200	0	0	1095.4881	1	1	
80	0	1100.5952	0	460	1105	2857	4205	951	8.5	200	0	0	1101.8168	1	0	
81	0	1106.5632	0	460	1105	2857	4205	551	14.5	200	0	0	1107.9274	1	0	
82	0	1112.3820	0	730	2058	2857	4205	751	11.5	200	1	1	1114.8910	1	0	
83	0	1119.1441	0	730	2058	2857	4205	651	2.5	200	1	1	1120.7166	1	1	
84	0	1125.2820	1	460	1105	2857	4205	501	17.5	200	0	0	1128.6477	1	0	
85	0	1133.4429	1	460	1105	2857	4205	951	11.5	200	0	0	1137.2777	1	1	
86	0	1140.9231	0	460	1105	2857	4205	801	5.5	200	0	1	1142.3822	0	1	
87	1	1146.2731	0	460	1105	2857	4205	801	5.5	200	0	0	1147.9220	1	1	
88	0	1157.0698	0	460	1105	2857	4205	1001	5.5	200	0	0	1158.1806	1	0	
89	0	1162.4065	0	730	2058	2857	4205	901	8.5	200	1	1	1164.1377	1	0	
90	0	1168.7558	1	730	2058	2857	4205	701	8.5	200	1	0	1174.7872	0	1	
91	1	1179.2430	0	730	2058	2857	4205	701	8.5	200	1	0	1180.6971	0	1	
92	1	1187.8599	0	730	2058	2857	4205	701	8.5	200	1	1	1189.6104	1	1	
93	0	1196.6121	0	460	1105	2857	4205	601	8.5	200	0	0	1198.0291	1	1	
94	0	1203.0015	0	730	2058	2857	4205	851	11.5	200	1	1	1204.4333	1	1	
95	0	1211.5843	0	460	1105	2857	4205	651	2.5	200	0	0	1212.7267	1	0	
96	0	1216.0427	0	460	1105	2857	4205	501	14.5	200	0	1	1217.4313	0	1	
97	1	1221.2437	1	460	1105	2857	4205	501	14.5	200	0	0	1226.5605	1	1	
98	0	1231.3552	0	460	1105	2857	4205	951	2.5	200	0	0	1232.2999	1	1	
99	0	1235.9351	0	730	2058	2857	4205	601	11.5	200	1	1	1237.5187	1	1	
100	0	1242.7921	0	460	1105	2857	4205	901	17.5	200	0	1	1244.6106	0	0	
101	1	1249.0080	1	460	1105	2857	4205	901	17.5	200	0	0	1252.4330	1	0	
102	0	1261.2222	0	730	2058	2857	4205	551	17.5	200	1	0	1262.9620	0	0	
103	1	1280.9337	0	730	2058	2857	4205	551	17.5	200	1	0	1287.4230	0	0	
104	1	1298.0410	0	730	2058	2857	4205	551	17.5	200	1	0	1299.1057	0	0	
105	1	1325.2569	0	730	2058	2857	4205	551	17.5	200	1	1	1326.6739	1	0	
106	0	1334.5182	0	460	1105	2857	4205	1001	14.5	200	0	0	1345.0727	1	0	
107	0	1350.3307	0	730	2058	2857	4205	751	14.5	200	1	0	1351.7739	0	0	
108	1	1357.9266	0	730	2058	2857	4205	751	14.5	200	1	0	1362.4560	0	0	
109	1	1378.6094	1	730	2058	2857	4205	751	14.5	200	1	0	1382.3415	0	0	
