Trial	CorrectionTrial?	StartTime	CenterReward?	F1	F2	F3	F4	HoldTime	Atten	Pitch	Side	Response	RespTime	Correct	SpatialMask	
1	0	8.5950	1	730	2058	2857	4205	801	10.0	200	1	1	9.6781	1	0	
2	0	15.0239	1	730	2058	2857	4205	701	10.0	200	1	1	16.2320	1	5	
3	0	30.9338	0	460	1105	2857	4205	1001	10.0	200	0	0	31.9823	1	0	
4	0	39.9712	0	730	2058	2857	4205	851	10.0	200	1	0	40.4686	0	1	
5	1	63.3039	0	730	2058	2857	4205	851	10.0	200	1	1	65.1160	1	1	
6	0	72.3481	0	730	2058	2857	4205	651	10.0	200	1	1	73.1370	1	2	
7	0	93.3157	0	730	2058	2857	4205	551	10.0	200	1	0	94.3241	0	3	
8	1	102.4132	1	730	2058	2857	4205	551	10.0	200	1	1	103.1510	1	3	
9	0	112.1830	0	460	1105	2857	4205	601	10.0	200	0	0	113.0529	1	1	
10	0	124.1386	0	460	1105	2857	4205	901	10.0	200	0	0	125.0488	1	4	
11	0	131.1891	0	730	2058	2857	4205	501	10.0	200	1	1	132.3744	1	2	
12	0	147.5838	0	460	1105	2857	4205	951	10.0	200	0	0	148.2367	1	4	
13	0	157.7151	0	730	2058	2857	4205	801	10.0	200	1	1	158.1959	1	0	
14	0	170.9167	1	460	1105	2857	4205	951	10.0	200	0	0	171.8504	1	2	
15	0	181.4133	0	460	1105	2857	4205	551	10.0	200	0	0	181.8471	1	1	
16	0	189.0225	0	730	2058	2857	4205	1001	10.0	200	1	0	189.7458	0	1	
17	1	204.9427	0	730	2058	2857	4205	1001	10.0	200	1	0	205.3104	0	1	
18	1	211.8996	0	730	2058	2857	4205	1001	10.0	200	1	0	212.5551	0	1	
19	1	218.9201	0	730	2058	2857	4205	1001	10.0	200	1	1	219.4881	1	1	
20	0	227.9523	0	460	1105	2857	4205	601	10.0	200	0	0	228.8189	1	2	
21	0	237.0875	0	730	2058	2857	4205	851	10.0	200	1	1	237.8615	1	5	
22	0	246.3726	0	460	1105	2857	4205	651	10.0	200	0	0	246.9186	1	5	
23	0	260.2700	1	460	1105	2857	4205	901	10.0	200	0	0	260.8101	1	5	
24	0	268.3784	1	460	1105	2857	4205	751	10.0	200	0	0	268.8074	1	5	
25	0	274.8751	0	730	2058	2857	4205	701	10.0	200	1	0	276.0785	0	5	
26	1	287.6641	0	730	2058	2857	4205	701	10.0	200	1	1	288.4717	1	5	
27	0	296.3937	0	730	2058	2857	4205	501	10.0	200	1	0	296.9126	0	4	
28	1	302.8047	0	730	2058	2857	4205	501	10.0	200	1	1	304.0008	1	4	
29	0	313.3682	0	460	1105	2857	4205	551	10.0	200	0	0	313.7159	1	4	
30	0	319.4016	1	730	2058	2857	4205	651	10.0	200	1	1	320.9691	1	4	
31	0	337.9189	0	730	2058	2857	4205	751	10.0	200	1	0	338.4728	0	2	
32	1	356.0213	0	730	2058	2857	4205	751	10.0	200	1	0	356.5112	0	2	
33	1	365.7676	0	730	2058	2857	4205	751	10.0	200	1	1	366.2968	1	2	
34	0	376.3390	0	460	1105	2857	4205	601	10.0	200	0	0	376.8961	1	3	
35	0	391.3508	0	460	1105	2857	4205	901	10.0	200	0	1	391.9654	0	3	
36	1	403.0650	0	460	1105	2857	4205	901	10.0	200	0	0	403.6738	1	3	
37	0	412.3672	0	460	1105	2857	4205	701	10.0	200	0	0	412.9756	1	2	
38	0	418.5819	0	730	2058	2857	4205	801	10.0	200	1	1	419.7741	1	4	
39	0	434.0205	0	460	1105	2857	4205	1001	10.0	200	0	0	434.4298	1	0	
40	0	439.9698	0	730	2058	2857	4205	951	10.0	200	1	0	440.3467	0	3	
41	1	455.2262	0	730	2058	2857	4205	951	10.0	200	1	0	456.3997	0	3	
42	1	466.0224	0	730	2058	2857	4205	951	10.0	200	1	1	466.5292	1	3	
43	0	479.3995	0	460	1105	2857	4205	501	10.0	200	0	0	479.9138	1	0	
44	0	488.4173	0	460	1105	2857	4205	801	10.0	200	0	0	488.7621	1	3	
45	0	499.1743	1	730	2058	2857	4205	1001	10.0	200	1	1	499.9637	1	3	
46	0	511.5350	0	730	2058	2857	4205	601	10.0	200	1	0	512.0540	0	0	
47	1	519.1578	0	730	2058	2857	4205	601	10.0	200	1	1	519.9811	1	0	
48	0	537.2837	1	460	1105	2857	4205	901	10.0	200	0	0	537.7184	1	1	
49	0	550.6623	0	730	2058	2857	4205	951	10.0	200	1	1	551.7479	1	1	
50	0	564.6560	0	730	2058	2857	4205	551	10.0	200	1	0	565.2102	0	2	
51	1	575.2434	1	730	2058	2857	4205	551	10.0	200	1	1	576.5825	1	2	
52	0	587.0585	0	730	2058	2857	4205	851	10.0	200	1	0	587.6001	0	5	
53	1	598.3649	1	730	2058	2857	4205	851	10.0	200	1	1	600.4314	1	5	
54	0	611.4439	0	730	2058	2857	4205	701	10.0	200	1	1	612.3130	1	4	
55	0	619.5862	0	460	1105	2857	4205	651	10.0	200	0	0	622.0303	1	2	
56	0	627.7914	0	460	1105	2857	4205	651	10.0	200	0	0	628.2442	1	5	
57	0	633.4839	0	730	2058	2857	4205	801	10.0	200	1	1	634.4070	1	0	
58	0	647.8131	0	460	1105	2857	4205	701	10.0	200	0	0	648.1634	1	4	
59	0	653.5273	0	460	1105	2857	4205	551	10.0	200	0	0	653.9695	1	2	
60	0	669.2322	1	730	2058	2857	4205	1001	10.0	200	1	0	670.5267	0	0	
61	1	683.9640	0	730	2058	2857	4205	1001	10.0	200	1	1	684.7321	1	0	
62	0	693.9811	0	730	2058	2857	4205	751	10.0	200	1	1	695.0377	1	5	
63	0	706.1252	0	730	2058	2857	4205	951	10.0	200	1	0	706.6594	0	3	
64	1	718.8681	0	730	2058	2857	4205	951	10.0	200	1	0	719.4715	0	3	
65	1	755.5561	0	730	2058	2857	4205	951	10.0	200	1	0	756.3638	0	3	
