Trial	CorrectionTrial?	StartTime	CenterReward?	F1	F2	F3	F4	HoldTime	Atten	Pitch	Side	Response	RespTime	Correct	SpatialMask	
1	0	6.6235	0	730	2058	2857	4205	601	-7.0	200	1	1	7.6996	1	4	
2	0	12.0872	0	730	2058	2857	4205	501	-7.0	200	1	1	12.8437	1	3	
3	0	18.0592	0	730	2058	2857	4205	851	-7.0	200	1	1	18.5185	1	5	
4	0	23.8540	0	460	1105	2857	4205	701	-5.0	200	0	1	24.2033	0	1	
5	1	29.9833	0	460	1105	2857	4205	701	-5.0	200	0	0	31.2534	1	1	
6	0	36.9530	0	460	1105	2857	4205	651	-5.0	200	0	1	37.8242	0	4	
7	1	47.0875	1	460	1105	2857	4205	651	-5.0	200	0	0	49.8406	1	4	
8	0	58.7544	0	460	1105	2857	4205	751	-5.0	200	0	0	59.7637	1	0	
9	0	87.2238	0	460	1105	2857	4205	1001	-5.0	200	0	1	97.3260	0	3	
10	1	106.2075	0	460	1105	2857	4205	1001	-5.0	200	0	0	106.8129	1	3	
11	0	114.4693	0	730	2058	2857	4205	801	-7.0	200	1	1	115.1527	1	5	
12	0	126.1909	0	460	1105	2857	4205	901	-5.0	200	0	0	126.5748	1	2	
13	0	132.9174	0	460	1105	2857	4205	551	-5.0	200	0	0	133.4361	1	1	
14	0	145.1933	0	730	2058	2857	4205	851	-7.0	200	1	1	145.5699	1	2	
15	0	157.5391	0	460	1105	2857	4205	651	-5.0	200	0	0	159.1126	1	0	
16	0	172.0162	0	730	2058	2857	4205	801	-7.0	200	1	0	172.4500	0	1	
17	1	179.6656	0	730	2058	2857	4205	801	-7.0	200	1	1	180.2319	1	1	
18	0	184.9111	0	730	2058	2857	4205	551	-7.0	200	1	1	185.2956	1	0	
19	0	190.5874	0	730	2058	2857	4205	501	-7.0	200	1	1	191.0837	1	5	
20	0	195.9370	0	460	1105	2857	4205	701	-5.0	200	0	0	197.2068	1	5	
21	0	213.7706	0	730	2058	2857	4205	1001	-7.0	200	1	1	214.0680	1	3	
22	0	220.7395	0	730	2058	2857	4205	751	-7.0	200	1	1	221.3702	1	2	
23	0	226.0039	0	730	2058	2857	4205	601	-7.0	200	1	1	226.6860	1	4	
24	0	232.8651	0	460	1105	2857	4205	951	-5.0	200	0	1	233.2592	0	3	
25	1	239.6568	0	460	1105	2857	4205	951	-5.0	200	0	0	240.5824	1	3	
26	0	248.7961	0	730	2058	2857	4205	751	-7.0	200	1	1	249.2868	1	0	
27	0	253.8891	0	460	1105	2857	4205	551	-5.0	200	0	1	254.4234	0	0	
28	1	263.6796	0	460	1105	2857	4205	551	-5.0	200	0	0	264.9787	1	0	
29	0	272.8282	0	730	2058	2857	4205	701	-7.0	200	1	1	273.5780	1	2	
30	0	280.0528	0	730	2058	2857	4205	951	-7.0	200	1	1	280.2555	1	0	
31	0	285.9290	0	460	1105	2857	4205	601	-5.0	200	0	1	286.5491	0	2	
32	1	293.0079	0	460	1105	2857	4205	601	-5.0	200	0	0	294.3964	1	2	
33	0	300.9621	0	730	2058	2857	4205	651	-7.0	200	1	1	301.3300	1	4	
34	0	305.8348	0	460	1105	2857	4205	501	-5.0	200	0	1	306.3541	0	1	
35	1	312.3818	0	460	1105	2857	4205	501	-5.0	200	0	0	313.3136	1	1	
36	0	320.1440	0	730	2058	2857	4205	901	-7.0	200	1	1	320.5809	1	3	
37	0	331.0149	0	460	1105	2857	4205	1001	-5.0	200	0	0	331.2380	1	3	
38	0	338.4153	1	460	1105	2857	4205	801	-5.0	200	0	0	339.9179	1	5	
39	0	345.6159	0	730	2058	2857	4205	751	-7.0	200	1	0	346.9810	0	1	
40	1	356.1859	0	730	2058	2857	4205	751	-7.0	200	1	1	356.9129	1	1	
41	0	369.0542	0	460	1105	2857	4205	951	-5.0	200	0	0	370.2969	1	2	
42	0	377.0049	0	730	2058	2857	4205	1001	-7.0	200	1	0	378.1795	0	1	
43	1	385.4982	0	730	2058	2857	4205	1001	-7.0	200	1	1	385.8030	1	1	
44	0	391.1097	0	460	1105	2857	4205	701	-5.0	200	0	0	392.5196	1	5	
45	0	398.5193	0	460	1105	2857	4205	501	-5.0	200	0	1	399.4478	0	4	
46	1	406.5380	0	460	1105	2857	4205	501	-5.0	200	0	0	407.9212	1	4	
47	0	415.0263	0	460	1105	2857	4205	901	-5.0	200	0	0	415.2639	1	4	
48	0	421.5198	0	730	2058	2857	4205	551	-7.0	200	1	1	421.9895	1	0	
49	0	425.7349	1	460	1105	2857	4205	801	-5.0	200	0	0	426.9694	1	5	
50	0	432.7943	0	730	2058	2857	4205	651	-7.0	200	1	1	435.5732	1	2	
51	0	440.8605	0	460	1105	2857	4205	851	-5.0	200	0	1	441.2377	0	2	
52	1	449.0530	0	460	1105	2857	4205	851	-5.0	200	0	0	450.4986	1	2	
53	0	456.4039	1	460	1105	2857	4205	801	-5.0	200	0	0	456.7226	1	0	
54	0	463.1280	0	460	1105	2857	4205	551	-5.0	200	0	1	467.2827	0	1	
55	1	473.9724	0	460	1105	2857	4205	551	-5.0	200	0	0	475.0779	1	1	
56	0	480.8382	0	730	2058	2857	4205	501	-7.0	200	1	1	481.7752	1	3	
57	0	486.2858	0	460	1105	2857	4205	651	-5.0	200	0	1	487.0660	0	5	
58	1	496.3317	0	460	1105	2857	4205	651	-5.0	200	0	0	497.8552	1	5	
59	0	504.9048	0	460	1105	2857	4205	701	-5.0	200	0	0	505.5777	1	5	
60	0	512.9565	1	460	1105	2857	4205	951	-5.0	200	0	1	513.4881	0	3	
61	1	524.0935	1	460	1105	2857	4205	951	-5.0	200	0	0	524.9842	1	3	
62	0	532.4092	0	460	1105	2857	4205	851	-5.0	200	0	1	536.9797	0	0	
63	1	543.8509	0	460	1105	2857	4205	851	-5.0	200	0	0	544.7512	1	0	
64	0	551.1218	0	730	2058	2857	4205	1001	-7.0	200	1	1	551.6910	1	0	
65	0	556.3715	0	730	2058	2857	4205	601	-7.0	200	1	1	556.7560	1	3	
66	0	561.8682	0	460	1105	2857	4205	751	-5.0	200	0	1	562.2542	0	2	
67	1	572.4165	0	460	1105	2857	4205	751	-5.0	200	0	0	573.1765	1	2	
68	0	579.2294	0	460	1105	2857	4205	801	-5.0	200	0	0	580.9106	1	4	
69	0	591.1388	0	730	2058	2857	4205	901	-7.0	200	1	1	591.5890	1	1	
70	0	596.7521	0	730	2058	2857	4205	601	-7.0	200	1	1	597.2243	1	4	
71	0	601.8894	0	730	2058	2857	4205	551	-7.0	200	1	1	602.7110	1	4	
72	0	609.0822	0	460	1105	2857	4205	751	-5.0	200	0	0	609.7410	1	2	
73	0	616.4513	0	460	1105	2857	4205	701	-5.0	200	0	0	617.1356	1	4	
74	0	624.3128	0	730	2058	2857	4205	651	-7.0	200	1	1	625.2225	1	0	
75	0	629.9342	0	460	1105	2857	4205	851	-5.0	200	0	0	630.3249	1	3	
76	0	636.8234	0	730	2058	2857	4205	951	-7.0	200	1	1	637.1056	1	4	
77	0	642.9834	0	730	2058	2857	4205	1001	-7.0	200	1	1	643.3470	1	2	
78	0	649.3337	0	730	2058	2857	4205	601	-7.0	200	1	1	650.5529	1	5	
79	0	655.0172	0	730	2058	2857	4205	801	-7.0	200	1	1	655.6660	1	5	
80	0	676.6621	0	460	1105	2857	4205	951	-5.0	200	0	1	677.0340	0	0	
81	1	689.4130	0	460	1105	2857	4205	951	-5.0	200	0	0	690.2731	1	0	
82	0	695.6782	0	460	1105	2857	4205	551	-5.0	200	0	1	696.0653	0	1	
83	1	728.6067	0	460	1105	2857	4205	551	-5.0	200	0	0	735.4297	1	1	
84	0	742.5735	1	730	2058	2857	4205	701	-7.0	200	1	1	742.8488	1	3	
85	0	746.1352	0	730	2058	2857	4205	651	-7.0	200	1	1	748.9035	1	5	
86	0	753.6978	0	730	2058	2857	4205	501	-7.0	200	1	1	754.2652	1	1	
87	0	758.9676	0	460	1105	2857	4205	1001	-5.0	200	0	0	759.9124	1	1	
88	0	766.7614	0	730	2058	2857	4205	901	-7.0	200	1	1	767.2584	1	2	
89	0	772.9052	0	460	1105	2857	4205	851	-5.0	200	0	1	773.2031	0	3	
