Trial	CorrectionTrial?	StartTime	CenterReward?	F1	F2	F3	F4	HoldTime	Atten	Pitch	Side	Response	RespTime	Correct	SpatialMask	
1	0	5.4026	0	460	1105	2857	4205	751	-5.0	200	0	1	6.0584	0	0	
2	1	18.5681	0	460	1105	2857	4205	751	-5.0	200	0	1	20.0002	0	0	
3	1	26.2037	0	460	1105	2857	4205	751	-5.0	200	0	0	28.0011	1	0	
4	0	37.7023	0	460	1105	2857	4205	651	-5.0	200	0	1	38.1733	0	1	
5	1	48.5406	0	460	1105	2857	4205	651	-5.0	200	0	1	49.9992	0	1	
6	1	58.3682	0	460	1105	2857	4205	651	-5.0	200	0	0	61.2238	1	1	
7	0	79.1720	0	730	2058	2857	4205	851	-7.0	200	1	1	79.7892	1	1	
8	0	93.4372	0	730	2058	2857	4205	1001	-7.0	200	1	1	93.9245	1	1	
9	0	100.0801	0	460	1105	2857	4205	601	-5.0	200	0	0	101.6471	1	2	
10	0	107.6374	0	730	2058	2857	4205	501	-7.0	200	1	1	108.4211	1	1	
11	0	116.1662	0	730	2058	2857	4205	801	-7.0	200	1	1	116.7508	1	3	
12	0	123.2271	0	730	2058	2857	4205	701	-7.0	200	1	1	123.6142	1	0	
13	0	129.9030	0	460	1105	2857	4205	551	-5.0	200	0	1	130.5174	0	1	
14	1	138.5236	0	460	1105	2857	4205	551	-5.0	200	0	1	139.2757	0	1	
15	1	149.9913	0	460	1105	2857	4205	551	-5.0	200	0	1	151.3022	0	1	
16	1	161.6567	0	460	1105	2857	4205	551	-5.0	200	0	0	163.7570	1	1	
17	0	166.1424	0	730	2058	2857	4205	951	-7.0	200	1	1	166.5521	1	3	
18	0	186.4334	0	460	1105	2857	4205	901	-5.0	200	0	1	186.9485	0	3	
19	1	193.0049	0	460	1105	2857	4205	901	-5.0	200	0	1	193.6927	0	3	
20	1	202.9054	0	460	1105	2857	4205	901	-5.0	200	0	0	204.4005	1	3	
21	0	212.5460	0	460	1105	2857	4205	701	-5.0	200	0	1	212.9370	0	2	
22	1	220.1564	0	460	1105	2857	4205	701	-5.0	200	0	1	221.1599	0	2	
23	1	229.4931	0	460	1105	2857	4205	701	-5.0	200	0	1	230.2707	0	2	
24	1	250.4992	0	460	1105	2857	4205	701	-5.0	200	0	1	251.2856	0	2	
25	1	258.7772	0	460	1105	2857	4205	701	-5.0	200	0	1	259.2492	0	2	
26	1	265.6536	0	460	1105	2857	4205	701	-5.0	200	0	0	267.9337	1	2	
27	0	276.3801	1	460	1105	2857	4205	651	-5.0	200	0	0	277.6455	1	1	
28	0	290.8118	0	730	2058	2857	4205	801	-7.0	200	1	1	291.5994	1	2	
29	0	301.5558	1	730	2058	2857	4205	601	-7.0	200	1	1	302.2400	1	0	
30	0	308.6858	0	730	2058	2857	4205	551	-7.0	200	1	1	314.3643	1	2	
31	0	324.6521	0	460	1105	2857	4205	1001	-5.0	200	0	1	325.1460	0	0	
32	1	331.3869	0	460	1105	2857	4205	1001	-5.0	200	0	0	333.1163	1	0	
33	0	341.1161	1	460	1105	2857	4205	951	-5.0	200	0	0	342.6492	1	0	
34	0	350.6582	0	730	2058	2857	4205	751	-7.0	200	1	1	357.4520	1	2	
35	0	363.0022	0	460	1105	2857	4205	501	-5.0	200	0	1	363.5474	0	3	
36	1	370.3812	0	460	1105	2857	4205	501	-5.0	200	0	0	372.1108	1	3	
37	0	381.1917	0	460	1105	2857	4205	651	-5.0	200	0	0	383.1710	1	3	
38	0	391.8905	0	730	2058	2857	4205	801	-7.0	200	1	0	393.1971	0	3	
39	1	404.9419	0	730	2058	2857	4205	801	-7.0	200	1	1	405.4256	1	3	
40	0	412.3618	0	730	2058	2857	4205	501	-7.0	200	1	1	413.1721	1	0	
41	0	419.7665	0	460	1105	2857	4205	701	-5.0	200	0	1	420.7217	0	2	
42	1	430.3522	0	460	1105	2857	4205	701	-5.0	200	0	0	431.9052	1	2	
43	0	440.5780	0	460	1105	2857	4205	951	-5.0	200	0	0	441.9276	1	2	
44	0	449.8168	0	730	2058	2857	4205	601	-7.0	200	1	0	451.2630	0	0	
45	1	466.0152	0	730	2058	2857	4205	601	-7.0	200	1	1	466.5769	1	0	
46	0	474.1564	0	460	1105	2857	4205	751	-5.0	200	0	0	475.6023	1	1	
47	0	481.0854	0	460	1105	2857	4205	551	-5.0	200	0	0	482.5348	1	2	
48	0	492.3111	0	730	2058	2857	4205	901	-7.0	200	1	1	492.8800	1	2	
49	0	506.4032	0	730	2058	2857	4205	1001	-7.0	200	1	1	506.8359	1	1	
50	0	523.1998	0	460	1105	2857	4205	901	-5.0	200	0	0	524.5796	1	3	
51	0	531.3030	0	730	2058	2857	4205	551	-7.0	200	1	1	532.1479	1	3	
52	0	539.0853	0	460	1105	2857	4205	851	-5.0	200	0	1	539.5907	0	2	
53	1	561.3577	0	460	1105	2857	4205	851	-5.0	200	0	1	562.0616	0	2	
54	1	584.9774	0	460	1105	2857	4205	851	-5.0	200	0	0	586.6014	1	2	
55	0	598.3558	0	730	2058	2857	4205	751	-7.0	200	1	1	599.0855	1	3	
56	0	618.8283	0	460	1105	2857	4205	801	-5.0	200	0	0	619.5182	1	1	
57	0	637.8925	0	730	2058	2857	4205	1001	-7.0	200	1	1	638.4284	1	3	
58	0	645.3857	1	730	2058	2857	4205	501	-7.0	200	1	1	645.8035	1	1	
59	0	651.2378	0	460	1105	2857	4205	601	-5.0	200	0	1	655.2185	0	0	
60	1	661.8365	0	460	1105	2857	4205	601	-5.0	200	0	0	663.6813	1	0	
61	0	672.9089	1	730	2058	2857	4205	951	-7.0	200	1	1	673.3403	1	0	
62	0	680.0441	0	730	2058	2857	4205	701	-7.0	200	1	1	684.2524	1	2	
63	0	691.1264	0	460	1105	2857	4205	851	-5.0	200	0	1	692.3009	0	3	
64	1	699.6985	0	460	1105	2857	4205	851	-5.0	200	0	1	700.1281	0	3	
65	1	708.7798	0	460	1105	2857	4205	851	-5.0	200	0	1	709.2622	0	3	
66	1	715.3867	0	460	1105	2857	4205	851	-5.0	200	0	1	716.0329	0	3	
67	1	722.9109	0	460	1105	2857	4205	851	-5.0	200	0	0	727.0277	1	3	
68	0	732.1236	0	460	1105	2857	4205	951	-5.0	200	0	1	732.6251	0	3	
69	1	755.1462	0	460	1105	2857	4205	951	-5.0	200	0	1	755.5379	0	3	
70	1	765.3927	0	460	1105	2857	4205	951	-5.0	200	0	0	766.8699	1	3	
71	0	778.0598	0	460	1105	2857	4205	601	-5.0	200	0	1	778.6758	0	1	
72	1	786.6755	0	460	1105	2857	4205	601	-5.0	200	0	0	787.9891	1	1	
73	0	797.1276	0	460	1105	2857	4205	801	-5.0	200	0	1	797.5749	0	0	
74	1	818.3490	0	460	1105	2857	4205	801	-5.0	200	0	1	819.1845	0	0	
75	1	826.7995	0	460	1105	2857	4205	801	-5.0	200	0	0	828.4428	1	0	
76	0	837.8662	0	730	2058	2857	4205	651	-7.0	200	1	1	838.2939	1	1	
77	0	844.4124	0	460	1105	2857	4205	701	-5.0	200	0	1	844.8727	0	0	
78	1	852.5497	0	460	1105	2857	4205	701	-5.0	200	0	1	853.2382	0	0	
79	1	862.2633	0	460	1105	2857	4205	701	-5.0	200	0	0	864.3428	1	0	
80	0	870.8616	0	730	2058	2857	4205	501	-7.0	200	1	1	871.5022	1	0	
81	0	881.1302	1	730	2058	2857	4205	1001	-7.0	200	1	1	881.6135	1	2	
82	0	888.2078	0	460	1105	2857	4205	901	-5.0	200	0	1	892.0138	0	1	
83	1	901.7913	0	460	1105	2857	4205	901	-5.0	200	0	0	903.3492	1	1	
84	0	910.4690	1	460	1105	2857	4205	751	-5.0	200	0	0	911.9941	1	3	
85	0	920.4942	0	460	1105	2857	4205	651	-5.0	200	0	1	925.3390	0	3	
86	1	932.1036	0	460	1105	2857	4205	651	-5.0	200	0	1	932.6009	0	3	
87	1	941.5865	0	460	1105	2857	4205	651	-5.0	200	0	1	942.0961	0	3	
88	1	949.0587	0	460	1105	2857	4205	651	-5.0	200	0	0	950.4225	1	3	
89	0	973.2597	0	730	2058	2857	4205	951	-7.0	200	1	1	973.9731	1	2	
90	0	980.6962	0	730	2058	2857	4205	701	-7.0	200	1	1	981.0431	1	1	
91	0	989.5338	0	730	2058	2857	4205	801	-7.0	200	1	1	990.5508	1	0	
92	0	996.5271	0	730	2058	2857	4205	501	-7.0	200	1	1	997.3756	1	0	
93	0	1007.9357	0	730	2058	2857	4205	901	-7.0	200	1	1	1008.9102	1	3	
94	0	1018.3320	0	730	2058	2857	4205	751	-7.0	200	1	1	1019.2377	1	1	
95	0	1025.0468	0	460	1105	2857	4205	601	-5.0	200	0	1	1025.7612	0	2	
96	1	1034.0875	0	460	1105	2857	4205	601	-5.0	200	0	1	1034.6789	0	2	
97	1	1042.8244	0	460	1105	2857	4205	601	-5.0	200	0	0	1044.8436	1	2	
98	0	1055.1869	0	460	1105	2857	4205	551	-5.0	200	0	1	1055.7609	0	0	
99	1	1065.6230	1	460	1105	2857	4205	551	-5.0	200	0	1	1070.5796	0	0	
100	1	1079.4933	0	460	1105	2857	4205	551	-5.0	200	0	1	1080.4951	0	0	
101	1	1092.4377	0	460	1105	2857	4205	551	-5.0	200	0	0	1093.8605	1	0	
102	0	1103.0346	0	730	2058	2857	4205	851	-7.0	200	1	1	1103.3745	1	3	
103	0	1109.4075	0	460	1105	2857	4205	551	-5.0	200	0	1	1110.0839	0	3	
104	1	1118.6796	0	460	1105	2857	4205	551	-5.0	200	0	0	1120.2519	1	3	
105	0	1129.5155	0	460	1105	2857	4205	901	-5.0	200	0	0	1130.7951	1	2	
106	0	1139.8910	0	460	1105	2857	4205	851	-5.0	200	0	0	1141.2027	1	2	
107	0	1149.8345	0	460	1105	2857	4205	501	-5.0	200	0	1	1150.8398	0	1	
108	1	1159.9853	0	460	1105	2857	4205	501	-5.0	200	0	1	1160.5197	0	1	
109	1	1167.3497	0	460	1105	2857	4205	501	-5.0	200	0	0	1168.9569	1	1	
110	0	1177.6225	0	460	1105	2857	4205	601	-5.0	200	0	0	1178.8904	1	1	
111	0	1186.2271	0	730	2058	2857	4205	751	-7.0	200	1	0	1187.5961	0	1	
112	1	1201.5789	0	730	2058	2857	4205	751	-7.0	200	1	1	1202.2641	1	1	
113	0	1208.8433	0	730	2058	2857	4205	1001	-7.0	200	1	1	1209.4515	1	0	
114	0	1218.1738	0	460	1105	2857	4205	801	-5.0	200	0	1	1219.1765	0	0	
115	1	1227.1488	1	460	1105	2857	4205	801	-5.0	200	0	0	1228.3708	1	0	
116	0	1237.8441	0	460	1105	2857	4205	651	-5.0	200	0	0	1242.8299	1	0	
117	0	1251.6796	0	730	2058	2857	4205	701	-7.0	200	1	0	1253.6294	0	2	
118	1	1263.6253	0	730	2058	2857	4205	701	-7.0	200	1	0	1264.2545	0	2	
119	1	1272.2083	0	730	2058	2857	4205	701	-7.0	200	1	1	1272.8457	1	2	
120	0	1278.7107	0	730	2058	2857	4205	501	-7.0	200	1	1	1279.6643	1	3	
121	0	1285.2193	0	730	2058	2857	4205	601	-7.0	200	1	1	1285.9597	1	2	
122	0	1292.7861	0	460	1105	2857	4205	751	-5.0	200	0	0	1294.3146	1	3	
123	0	1303.0012	0	730	2058	2857	4205	851	-7.0	200	1	0	1304.3660	0	3	
124	1	1311.7352	0	730	2058	2857	4205	851	-7.0	200	1	1	1312.1250	1	3	
125	0	1336.4636	0	460	1105	2857	4205	651	-5.0	200	0	1	1336.9865	0	0	
126	1	1343.1065	0	460	1105	2857	4205	651	-5.0	200	0	0	1345.6698	1	0	
127	0	1353.6208	0	460	1105	2857	4205	701	-5.0	200	0	1	1354.3030	0	3	
128	1	1362.8061	0	460	1105	2857	4205	701	-5.0	200	0	1	1363.6008	0	3	
129	1	1377.4275	0	460	1105	2857	4205	701	-5.0	200	0	0	1378.5891	1	3	
130	0	1387.2985	0	730	2058	2857	4205	951	-7.0	200	1	1	1387.6642	1	1	
131	0	1396.2664	0	460	1105	2857	4205	901	-5.0	200	0	0	1397.3828	1	1	
132	0	1405.5696	0	460	1105	2857	4205	801	-5.0	200	0	1	1405.9697	0	0	
133	1	1412.2854	0	460	1105	2857	4205	801	-5.0	200	0	0	1413.5760	1	0	
134	0	1423.4472	0	730	2058	2857	4205	551	-7.0	200	1	1	1423.8871	1	1	
135	0	1432.9933	0	730	2058	2857	4205	901	-7.0	200	1	1	1433.5820	1	2	
136	0	1439.7697	0	460	1105	2857	4205	751	-5.0	200	0	0	1441.4062	1	0	
137	0	1450.0549	0	730	2058	2857	4205	801	-7.0	200	1	0	1451.2382	0	3	
138	1	1464.4309	0	730	2058	2857	4205	801	-7.0	200	1	0	1465.6057	0	3	
139	1	1472.5761	0	730	2058	2857	4205	801	-7.0	200	1	1	1473.0178	1	3	
140	0	1480.2967	1	730	2058	2857	4205	1001	-7.0	200	1	1	1480.9843	1	0	
141	0	1487.6212	0	730	2058	2857	4205	501	-7.0	200	1	1	1491.5281	1	2	
142	0	1496.9138	0	730	2058	2857	4205	701	-7.0	200	1	1	1499.1480	1	0	
143	0	1507.2530	1	730	2058	2857	4205	651	-7.0	200	1	0	1509.1438	0	0	
144	1	1517.0835	0	730	2058	2857	4205	651	-7.0	200	1	1	1521.1602	1	0	
145	0	1526.2555	1	460	1105	2857	4205	551	-5.0	200	0	1	1533.4087	0	2	
146	1	1539.1308	0	460	1105	2857	4205	551	-5.0	200	0	0	1541.2619	1	2	
147	0	1548.4920	0	730	2058	2857	4205	601	-7.0	200	1	0	1550.3778	0	2	
