Trial	CorrectionTrial?	StartTime	CenterReward?	F1	F2	F3	F4	HoldTime	Atten	Pitch	Side	Response	RespTime	Correct	SpatialMask	Mask	
1	0	33.7646	1	730	2058	2857	4205	508	-6.5	200	1	1	40.5853	1	2	
2	0	43.7168	0	460	1105	2857	4205	506	-0.5	200	0	0	47.2692	1	3	
3	0	51.3887	1	730	2058	2857	4205	510	2.5	200	1	1	56.6216	1	0	
4	0	74.1621	1	460	1105	2857	4205	504	-6.5	200	0	1	79.0295	0	2	
5	1	83.7348	1	460	1105	2857	4205	504	-6.5	200	0	1	88.7878	0	2	
6	1	92.7635	1	460	1105	2857	4205	504	-6.5	200	0	0	98.5116	1	2	
7	0	108.5910	0	460	1105	2857	4205	505	-9.5	200	0	0	110.2850	1	5	
8	0	114.5016	1	730	2058	2857	4205	507	-3.5	200	1	0	119.4669	0	0	
9	1	123.4796	1	730	2058	2857	4205	507	-3.5	200	1	0	128.3412	0	0	
10	1	132.7877	1	730	2058	2857	4205	507	-3.5	200	1	1	137.5125	1	0	
11	0	152.4561	1	460	1105	2857	4205	502	-0.5	200	0	1	157.6424	0	5	
12	1	161.3190	1	460	1105	2857	4205	502	-0.5	200	0	1	166.1778	0	5	
13	1	170.7018	1	460	1105	2857	4205	502	-0.5	200	0	0	175.9852	1	5	
14	0	179.6306	0	730	2058	2857	4205	509	-6.5	200	1	1	184.4747	1	0	
15	0	193.4218	1	460	1105	2857	4205	501	-6.5	200	0	1	197.7636	0	3	
16	1	204.6360	1	460	1105	2857	4205	501	-6.5	200	0	0	209.0906	1	3	
17	0	213.6612	0	460	1105	2857	4205	511	-3.5	200	0	0	215.6322	1	3	
18	0	220.1597	0	730	2058	2857	4205	504	-0.5	200	1	1	223.8282	1	0	
19	0	228.3380	0	730	2058	2857	4205	501	-0.5	200	1	0	231.5589	0	3	
20	1	245.0706	1	730	2058	2857	4205	501	-0.5	200	1	1	249.3810	1	3	
21	0	258.1494	0	460	1105	2857	4205	510	-12.5	200	0	0	259.3899	1	0	
22	0	264.1725	0	730	2058	2857	4205	507	-12.5	200	1	1	267.7955	1	0	
23	0	274.8921	0	460	1105	2857	4205	506	-0.5	200	0	0	276.3816	1	4	
24	0	280.9304	1	460	1105	2857	4205	508	-9.5	200	0	0	280.9902	1	1	
25	0	282.9420	1	730	2058	2857	4205	509	-0.5	200	1	0	288.5179	0	2	
26	1	292.1482	1	730	2058	2857	4205	509	-0.5	200	1	0	292.2048	0	2	
27	1	296.9569	1	730	2058	2857	4205	509	-0.5	200	1	0	296.9670	0	2	
28	1	303.5405	1	730	2058	2857	4205	509	-0.5	200	1	0	303.5727	0	2	
29	1	308.8634	1	730	2058	2857	4205	509	-0.5	200	1	0	308.9494	0	2	
30	1	312.5261	0	730	2058	2857	4205	509	-0.5	200	1	0	312.6363	0	2	
31	1	316.3587	1	730	2058	2857	4205	509	-0.5	200	1	0	316.4768	0	2	
32	1	320.4041	1	730	2058	2857	4205	509	-0.5	200	1	0	320.4710	0	2	
33	1	324.8402	1	730	2058	2857	4205	509	-0.5	200	1	0	324.9260	0	2	
34	1	331.9074	0	730	2058	2857	4205	509	-0.5	200	1	0	331.9925	0	2	
35	1	338.6420	0	730	2058	2857	4205	509	-0.5	200	1	0	338.7518	0	2	
36	1	345.3211	0	730	2058	2857	4205	509	-0.5	200	1	0	345.3575	0	2	
37	1	355.8149	1	730	2058	2857	4205	509	-0.5	200	1	0	355.9573	0	2	
38	1	360.0762	0	730	2058	2857	4205	509	-0.5	200	1	0	360.1050	0	2	
39	1	364.4859	0	730	2058	2857	4205	509	-0.5	200	1	0	364.5600	0	2	
40	1	373.7005	1	730	2058	2857	4205	509	-0.5	200	1	0	373.7772	0	2	
41	1	377.5360	0	730	2058	2857	4205	509	-0.5	200	1	0	377.6178	0	2	
42	1	381.2438	1	730	2058	2857	4205	509	-0.5	200	1	0	381.3047	0	2	
43	1	385.0295	0	730	2058	2857	4205	509	-0.5	200	1	0	385.1452	0	2	
44	1	388.7338	1	730	2058	2857	4205	509	-0.5	200	1	0	388.8321	0	2	
45	1	392.9680	1	730	2058	2857	4205	509	-0.5	200	1	0	392.9798	0	2	
46	1	399.5562	1	730	2058	2857	4205	509	-0.5	200	1	0	399.5855	0	2	
47	1	407.3922	1	730	2058	2857	4205	509	-0.5	200	1	0	407.4201	0	2	
48	1	411.1063	1	730	2058	2857	4205	509	-0.5	200	1	0	411.2606	0	2	
49	1	414.9217	0	730	2058	2857	4205	509	-0.5	200	1	0	415.1012	0	2	
50	1	419.8063	0	730	2058	2857	4205	509	-0.5	200	1	0	419.8634	0	2	
51	1	423.6542	0	730	2058	2857	4205	509	-0.5	200	1	0	423.7039	0	2	
52	1	428.4204	1	730	2058	2857	4205	509	-0.5	200	1	0	428.4661	0	2	
53	1	436.2032	0	730	2058	2857	4205	509	-0.5	200	1	0	436.3008	0	2	
54	1	445.1913	0	730	2058	2857	4205	509	-0.5	200	1	0	445.2108	0	2	
55	1	450.3774	1	730	2058	2857	4205	509	-0.5	200	1	0	450.4339	0	2	
56	1	457.2224	0	730	2058	2857	4205	509	-0.5	200	1	0	457.3468	0	2	
57	1	461.7137	1	730	2058	2857	4205	509	-0.5	200	1	0	461.8018	0	2	
58	1	473.3919	0	730	2058	2857	4205	509	-0.5	200	1	0	473.4770	0	2	
59	1	481.4402	0	730	2058	2857	4205	509	-0.5	200	1	0	481.4652	0	2	
60	1	486.0065	1	730	2058	2857	4205	509	-0.5	200	1	0	486.0738	0	2	
61	1	493.3657	1	730	2058	2857	4205	509	-0.5	200	1	0	493.4476	0	2	
62	1	498.2727	0	730	2058	2857	4205	509	-0.5	200	1	0	498.3635	0	2	
63	1	503.8919	1	730	2058	2857	4205	509	-0.5	200	1	0	503.8938	0	2	
64	1	508.2385	1	730	2058	2857	4205	509	-0.5	200	1	0	508.3488	0	2	
65	1	512.5818	0	730	2058	2857	4205	509	-0.5	200	1	0	512.6502	0	2	
66	1	517.8695	0	730	2058	2857	4205	509	-0.5	200	1	0	517.8733	0	2	
67	1	521.4377	0	730	2058	2857	4205	509	-0.5	200	1	0	521.5601	0	2	
68	1	527.5088	0	730	2058	2857	4205	509	-0.5	200	1	0	527.5514	0	2	
69	1	534.5636	1	730	2058	2857	4205	509	-0.5	200	1	0	534.6179	0	2	
70	1	542.6461	1	730	2058	2857	4205	509	-0.5	200	1	0	542.7598	0	2	
71	1	546.8183	0	730	2058	2857	4205	509	-0.5	200	1	0	546.9075	0	2	
72	1	552.3794	1	730	2058	2857	4205	509	-0.5	200	1	0	552.4379	0	2	
73	1	556.1633	0	730	2058	2857	4205	509	-0.5	200	1	0	556.2784	0	2	
74	1	560.8452	1	730	2058	2857	4205	509	-0.5	200	1	0	560.8870	0	2	
75	1	564.9854	0	730	2058	2857	4205	509	-0.5	200	1	0	565.0348	0	2	
76	1	569.0374	1	730	2058	2857	4205	509	-0.5	200	1	0	569.1825	0	2	
77	1	573.2424	0	730	2058	2857	4205	509	-0.5	200	1	0	573.3303	0	2	
78	1	577.5115	0	730	2058	2857	4205	509	-0.5	200	1	0	577.6316	0	2	
79	1	586.0999	0	730	2058	2857	4205	509	-0.5	200	1	0	586.0807	0	2	
80	1	590.0200	1	730	2058	2857	4205	509	-0.5	200	1	0	590.0749	0	2	
81	1	594.1344	0	730	2058	2857	4205	509	-0.5	200	1	0	594.2227	0	2	
82	1	602.4258	0	730	2058	2857	4205	509	-0.5	200	1	0	602.5182	0	2	
83	1	610.2610	1	730	2058	2857	4205	509	-0.5	200	1	0	610.3528	0	2	
84	1	614.0259	1	730	2058	2857	4205	509	-0.5	200	1	0	614.1933	0	2	
85	1	617.9519	1	730	2058	2857	4205	509	-0.5	200	1	0	618.0338	0	2	
86	1	621.6636	1	730	2058	2857	4205	509	-0.5	200	1	0	621.7207	0	2	
87	1	626.8185	1	730	2058	2857	4205	509	-0.5	200	1	0	626.9438	0	2	
88	1	630.5200	1	730	2058	2857	4205	509	-0.5	200	1	0	630.6307	0	2	
89	1	634.9542	0	730	2058	2857	4205	509	-0.5	200	1	0	635.0857	0	2	
90	1	640.5727	1	730	2058	2857	4205	509	-0.5	200	1	0	640.6160	0	2	
91	1	644.3934	1	730	2058	2857	4205	509	-0.5	200	1	0	644.4565	0	2	
92	1	648.6164	1	730	2058	2857	4205	509	-0.5	200	1	0	648.7579	0	2	
93	1	653.1434	0	730	2058	2857	4205	509	-0.5	200	1	0	653.2129	0	2	
94	1	658.2890	0	730	2058	2857	4205	509	-0.5	200	1	0	658.2824	0	2	
95	1	662.5851	0	730	2058	2857	4205	509	-0.5	200	1	0	662.5837	0	2	
96	1	667.6230	1	730	2058	2857	4205	509	-0.5	200	1	0	667.6532	0	2	
97	1	671.3170	0	730	2058	2857	4205	509	-0.5	200	1	0	671.4937	0	2	
98	1	675.8383	1	730	2058	2857	4205	509	-0.5	200	1	0	675.9487	0	2	
99	1	680.8113	1	730	2058	2857	4205	509	-0.5	200	1	0	680.8646	0	2	
100	1	685.1653	1	730	2058	2857	4205	509	-0.5	200	1	0	685.1660	0	2	
101	1	691.0681	1	730	2058	2857	4205	509	-0.5	200	1	0	691.1572	0	2	
102	1	695.0159	0	730	2058	2857	4205	509	-0.5	200	1	0	695.1512	0	2	
103	1	701.1741	0	730	2058	2857	4205	509	-0.5	200	1	0	701.2961	0	2	
104	1	709.9774	1	730	2058	2857	4205	509	-0.5	200	1	0	710.0525	0	2	
105	1	716.2388	0	730	2058	2857	4205	509	-0.5	200	1	0	716.3509	0	2	
106	1	720.2644	0	730	2058	2857	4205	509	-0.5	200	1	0	720.3450	0	2	
107	1	724.6103	1	730	2058	2857	4205	509	-0.5	200	1	0	724.8001	0	2	
108	1	729.2078	0	730	2058	2857	4205	509	-0.5	200	1	0	729.2550	0	2	
109	1	732.9672	1	730	2058	2857	4205	509	-0.5	200	1	0	733.0955	0	2	
110	1	736.8437	0	730	2058	2857	4205	509	-0.5	200	1	0	736.9360	0	2	
111	1	744.8103	1	730	2058	2857	4205	509	-0.5	200	1	0	744.9243	0	2	
112	1	751.3176	1	730	2058	2857	4205	509	-0.5	200	1	0	751.3764	0	2	
113	1	755.0490	1	730	2058	2857	4205	509	-0.5	200	1	0	755.0633	0	2	
114	1	758.7941	0	730	2058	2857	4205	509	-0.5	200	1	0	758.9038	0	2	
115	1	764.6550	1	730	2058	2857	4205	509	-0.5	200	1	0	764.7414	0	2	
116	1	772.2226	1	730	2058	2857	4205	509	-0.5	200	1	0	772.2688	0	2	
117	1	775.8332	1	730	2058	2857	4205	509	-0.5	200	1	0	775.9557	0	2	
118	1	781.4089	1	730	2058	2857	4205	509	-0.5	200	1	0	781.4860	0	2	
119	1	787.6764	0	730	2058	2857	4205	509	-0.5	200	1	0	791.3927	0	2	
120	1	795.6764	1	730	2058	2857	4205	509	-0.5	200	1	1	803.4465	1	2	
121	0	809.5127	1	730	2058	2857	4205	511	-9.5	200	1	0	818.1899	0	3	
122	1	822.4445	1	730	2058	2857	4205	511	-9.5	200	1	0	830.2331	0	3	
123	1	834.5088	0	730	2058	2857	4205	511	-9.5	200	1	1	837.4970	1	3	
124	0	843.2926	0	460	1105	2857	4205	505	-3.5	200	0	1	846.7099	0	0	
125	1	851.7535	0	460	1105	2857	4205	505	-3.5	200	0	0	853.5513	1	0	
126	0	857.8083	1	460	1105	2857	4205	503	-12.5	200	0	0	862.0219	1	1	
127	0	865.6930	0	460	1105	2857	4205	511	-6.5	200	0	0	867.2564	1	4	
128	0	870.8402	1	730	2058	2857	4205	508	-12.5	200	1	0	876.6108	0	3	
129	1	881.8268	1	730	2058	2857	4205	508	-12.5	200	1	0	887.5037	0	3	
130	1	891.1841	0	730	2058	2857	4205	508	-12.5	200	1	1	893.3600	1	3	
131	0	902.0407	0	730	2058	2857	4205	504	-12.5	200	1	1	903.9580	1	2	
132	0	913.3330	0	730	2058	2857	4205	510	-9.5	200	1	0	915.8847	0	1	
133	1	921.9275	1	730	2058	2857	4205	510	-9.5	200	1	1	928.8511	1	1	
134	0	933.8313	0	730	2058	2857	4205	505	-3.5	200	1	1	935.8341	1	5	
135	0	941.3589	1	730	2058	2857	4205	506	-3.5	200	1	1	948.0061	1	1	
136	0	955.7717	1	730	2058	2857	4205	502	-0.5	200	1	1	961.8318	1	1	
137	0	968.0490	0	730	2058	2857	4205	507	-0.5	200	1	1	969.7382	1	4	
138	0	978.8974	1	730	2058	2857	4205	503	-0.5	200	1	1	986.2865	1	5	
139	0	990.7167	1	730	2058	2857	4205	501	-6.5	200	1	1	997.5294	1	4	
140	0	1002.9463	0	730	2058	2857	4205	501	-12.5	200	1	1	1005.3872	1	4	
141	0	1010.3468	0	460	1105	2857	4205	509	-3.5	200	0	1	1012.2450	0	1	
142	1	1016.0098	0	460	1105	2857	4205	509	-3.5	200	0	0	1017.6972	1	1	
143	0	1022.2209	0	730	2058	2857	4205	503	2.5	200	1	1	1024.1918	1	2	
144	0	1028.7864	1	460	1105	2857	4205	507	-9.5	200	0	1	1034.0866	0	3	
145	1	1043.0797	1	460	1105	2857	4205	507	-9.5	200	0	0	1047.6391	1	3	
146	0	1051.4119	0	460	1105	2857	4205	510	-9.5	200	0	1	1053.2914	0	0	
147	1	1058.6952	1	460	1105	2857	4205	510	-9.5	200	0	1	1063.1003	0	0	
148	1	1069.0805	1	460	1105	2857	4205	510	-9.5	200	0	0	1074.7516	1	0	
149	0	1078.3539	1	460	1105	2857	4205	502	-6.5	200	0	0	1083.5484	1	1	
150	0	1086.9809	1	460	1105	2857	4205	504	2.5	200	0	1	1090.7166	0	4	
151	1	1098.9615	1	460	1105	2857	4205	504	2.5	200	0	1	1106.7280	0	4	
152	1	1110.8400	1	460	1105	2857	4205	504	2.5	200	0	0	1115.7802	1	4	
153	0	1119.3539	1	460	1105	2857	4205	506	-3.5	200	0	0	1123.0630	1	2	
154	0	1126.6134	0	730	2058	2857	4205	508	-12.5	200	1	1	1128.6077	1	1	
155	0	1132.4388	0	460	1105	2857	4205	505	-9.5	200	0	0	1135.1828	1	4	
156	0	1138.5806	1	730	2058	2857	4205	504	-6.5	200	1	0	1142.6732	0	3	
157	1	1147.4492	0	730	2058	2857	4205	504	-6.5	200	1	1	1150.2717	1	3	
158	0	1158.4531	1	460	1105	2857	4205	509	2.5	200	0	0	1163.8058	1	1	
159	0	1167.6292	1	730	2058	2857	4205	506	-6.5	200	1	1	1172.9469	1	1	
160	0	1177.4166	1	730	2058	2857	4205	503	2.5	200	1	1	1182.3935	1	4	
161	0	1192.3933	1	730	2058	2857	4205	505	-3.5	200	1	1	1198.3754	1	4	
162	0	1203.1929	1	460	1105	2857	4205	502	-0.5	200	0	0	1219.6138	1	2	
163	0	1225.3372	1	460	1105	2857	4205	501	2.5	200	0	0	1228.8578	1	2	
164	0	1236.8533	0	460	1105	2857	4205	507	-0.5	200	0	1	1239.3148	0	1	
