Trial	CorrectionTrial?	StartTime	CenterReward?	F1	F2	F3	F4	HoldTime	Atten	Pitch	Side	Response	RespTime	Correct	SpatialMask	Mask	
1	0	888.7666	0	730	2058	2857	4205	501	8.5	200	1	0	898.2222	0	2	
2	1	903.1683	1	730	2058	2857	4205	501	8.5	200	1	0	908.4777	0	2	
3	1	922.8502	0	730	2058	2857	4205	501	8.5	200	1	0	924.5665	0	2	
4	1	929.0070	0	730	2058	2857	4205	501	8.5	200	1	1	930.7135	1	2	
5	0	936.9782	0	730	2058	2857	4205	506	-0.5	200	1	0	938.5266	0	0	
6	1	942.4362	1	730	2058	2857	4205	506	-0.5	200	1	0	947.1703	0	0	
7	1	951.6860	0	730	2058	2857	4205	506	-0.5	200	1	1	953.6990	1	0	
8	0	958.0556	0	460	1105	2857	4205	509	5.5	200	0	0	959.2884	1	1	
9	0	964.6282	0	460	1105	2857	4205	502	8.5	200	0	0	966.0269	1	3	
10	0	971.7564	0	460	1105	2857	4205	507	5.5	200	0	0	973.1967	1	4	
11	0	977.8338	1	460	1105	2857	4205	503	-3.5	200	0	0	982.3963	1	2	
12	0	988.4946	0	460	1105	2857	4205	505	2.5	200	0	1	990.4834	0	2	
13	1	994.5376	0	460	1105	2857	4205	505	2.5	200	0	0	996.0301	1	2	
14	0	1002.7005	0	730	2058	2857	4205	510	-6.5	200	1	1	1004.2188	1	0	
15	0	1008.4646	0	460	1105	2857	4205	504	2.5	200	0	1	1010.2611	0	0	
16	1	1018.3772	0	460	1105	2857	4205	504	2.5	200	0	0	1019.8137	1	0	
17	0	1025.5385	0	730	2058	2857	4205	511	5.5	200	1	1	1026.9252	1	1	
18	0	1031.4611	0	460	1105	2857	4205	509	5.5	200	0	1	1032.8177	0	3	
19	1	1038.3237	0	460	1105	2857	4205	509	5.5	200	0	0	1039.3601	1	3	
20	0	1044.1434	0	460	1105	2857	4205	501	-6.5	200	0	0	1045.3240	1	5	
21	0	1050.5480	0	730	2058	2857	4205	506	5.5	200	1	1	1051.9902	1	4	
22	0	1056.5974	0	460	1105	2857	4205	503	2.5	200	0	0	1057.8421	1	3	
23	0	1062.5030	1	730	2058	2857	4205	502	2.5	200	1	1	1066.6172	1	4	
24	0	1071.2918	0	460	1105	2857	4205	511	-0.5	200	0	1	1073.1438	0	2	
25	1	1077.5569	1	460	1105	2857	4205	511	-0.5	200	0	0	1081.5478	1	2	
26	0	1086.9359	0	460	1105	2857	4205	510	-0.5	200	0	0	1088.0984	1	3	
27	0	1091.7265	0	730	2058	2857	4205	507	8.5	200	1	1	1093.8123	1	3	
28	0	1097.9127	1	730	2058	2857	4205	505	2.5	200	1	1	1102.5802	1	1	
29	0	1107.3290	0	730	2058	2857	4205	504	5.5	200	1	0	1108.8525	0	3	
30	1	1112.7470	0	730	2058	2857	4205	504	5.5	200	1	1	1114.7764	1	3	
31	0	1120.2109	0	460	1105	2857	4205	506	5.5	200	0	1	1121.8380	0	2	
32	1	1125.7358	0	460	1105	2857	4205	506	5.5	200	0	0	1126.7701	1	2	
33	0	1133.0217	1	730	2058	2857	4205	503	5.5	200	1	1	1136.7983	1	0	
34	0	1142.7706	0	460	1105	2857	4205	501	8.5	200	0	1	1144.7479	0	1	
35	1	1153.3100	0	460	1105	2857	4205	501	8.5	200	0	0	1154.4524	1	1	
36	0	1159.2448	1	460	1105	2857	4205	509	2.5	200	0	0	1162.5017	1	5	
37	0	1166.6025	0	460	1105	2857	4205	511	-3.5	200	0	0	1167.9067	1	3	
38	0	1172.4596	0	460	1105	2857	4205	510	-0.5	200	0	0	1173.7652	1	1	
39	0	1178.4430	0	730	2058	2857	4205	508	2.5	200	1	1	1180.2486	1	2	
40	0	1188.7803	0	460	1105	2857	4205	502	-3.5	200	0	0	1189.9852	1	0	
41	0	1195.4041	0	730	2058	2857	4205	507	-6.5	200	1	1	1196.8731	1	4	
42	0	1201.0279	0	730	2058	2857	4205	505	-3.5	200	1	1	1202.8390	1	3	
43	0	1208.3444	1	460	1105	2857	4205	510	-0.5	200	0	0	1212.2184	1	4	
44	0	1217.0135	1	460	1105	2857	4205	509	-6.5	200	0	1	1221.1809	0	4	
45	1	1231.9903	1	460	1105	2857	4205	509	-6.5	200	0	0	1235.6608	1	4	
46	0	1240.5457	1	730	2058	2857	4205	507	-3.5	200	1	1	1244.4460	1	4	
47	0	1248.5208	0	730	2058	2857	4205	506	-6.5	200	1	1	1250.7756	1	3	
48	0	1254.8024	0	460	1105	2857	4205	508	5.5	200	0	0	1256.2734	1	5	
49	0	1261.6602	0	730	2058	2857	4205	503	2.5	200	1	1	1263.4038	1	5	
50	0	1267.2930	0	460	1105	2857	4205	511	8.5	200	0	1	1269.0873	0	0	
51	1	1273.3108	0	460	1105	2857	4205	511	8.5	200	0	0	1274.8248	1	0	
52	0	1279.3115	0	460	1105	2857	4205	504	5.5	200	0	1	1280.9487	0	0	
53	1	1289.4752	0	460	1105	2857	4205	504	5.5	200	0	0	1290.8236	1	0	
54	0	1295.4406	0	460	1105	2857	4205	505	-6.5	200	0	0	1296.7709	1	1	
55	0	1300.7787	0	730	2058	2857	4205	501	5.5	200	1	0	1302.0706	0	5	
56	1	1307.5377	0	730	2058	2857	4205	501	5.5	200	1	1	1309.1636	1	5	
57	0	1312.6183	0	730	2058	2857	4205	505	-3.5	200	1	0	1314.0282	0	0	
58	1	1321.5574	0	730	2058	2857	4205	505	-3.5	200	1	1	1324.4004	1	0	
59	0	1327.7447	0	460	1105	2857	4205	507	2.5	200	0	1	1329.4826	0	4	
60	1	1335.6905	0	460	1105	2857	4205	507	2.5	200	0	0	1336.8836	1	4	
61	0	1340.9858	0	730	2058	2857	4205	508	-0.5	200	1	1	1342.4949	1	2	
62	0	1346.2581	0	460	1105	2857	4205	510	2.5	200	0	1	1348.8745	0	1	
63	1	1353.2979	0	460	1105	2857	4205	510	2.5	200	0	0	1354.4616	1	1	
64	0	1359.2501	0	460	1105	2857	4205	511	-3.5	200	0	0	1360.2294	1	5	
65	0	1364.9012	0	730	2058	2857	4205	504	-0.5	200	1	1	1366.3419	1	5	
66	0	1370.3583	0	730	2058	2857	4205	502	-3.5	200	1	1	1371.9523	1	2	
67	0	1375.8030	0	460	1105	2857	4205	506	-6.5	200	0	0	1377.0260	1	0	
68	0	1382.6515	0	460	1105	2857	4205	509	-0.5	200	0	0	1383.7468	1	5	
69	0	1395.1794	1	460	1105	2857	4205	501	-3.5	200	0	0	1401.0563	1	1	
70	0	1404.9255	0	460	1105	2857	4205	507	8.5	200	0	1	1407.0486	0	4	
71	1	1417.8615	0	460	1105	2857	4205	507	8.5	200	0	0	1419.3623	1	4	
72	0	1423.6628	0	460	1105	2857	4205	504	-6.5	200	0	0	1424.8650	1	3	
73	0	1435.4560	0	460	1105	2857	4205	511	-0.5	200	0	0	1438.1012	1	0	
74	0	1445.4655	0	730	2058	2857	4205	503	-3.5	200	1	0	1447.4410	0	1	
75	1	1451.5331	1	730	2058	2857	4205	503	-3.5	200	1	0	1455.3806	0	1	
76	1	1467.0917	0	730	2058	2857	4205	503	-3.5	200	1	1	1469.3445	1	1	
77	0	1472.5595	1	460	1105	2857	4205	510	8.5	200	0	1	1477.5332	0	5	
78	1	1486.3394	0	460	1105	2857	4205	510	8.5	200	0	0	1488.1007	1	5	
79	0	1499.1286	0	730	2058	2857	4205	509	8.5	200	1	0	1501.3020	0	1	
80	1	1517.3326	0	730	2058	2857	4205	509	8.5	200	1	1	1520.7848	1	1	
81	0	1524.8707	0	730	2058	2857	4205	505	-6.5	200	1	0	1526.0942	0	5	
