Trial	CorrectionTrial?	StartTime	CenterReward?	F1	F2	F3	F4	HoldTime	Atten	Pitch	Side	Response	RespTime	Correct	SpatialMask	Mask	
1	0	1130.0483	0	460	1105	2857	4205	506	-3.5	200	0	1	1131.7465	0	0	
2	1	1135.3761	0	460	1105	2857	4205	506	-3.5	200	0	0	1137.8242	1	0	
3	0	1144.4608	0	460	1105	2857	4205	507	8.5	200	0	0	1147.0158	1	1	
4	0	1155.9172	1	730	2058	2857	4205	501	-6.5	200	1	1	1161.5678	1	0	
5	0	1176.3849	0	730	2058	2857	4205	510	2.5	200	1	1	1177.6476	1	2	
6	0	1187.0947	0	730	2058	2857	4205	502	-0.5	200	1	0	1188.8302	0	0	
7	1	1193.8201	0	730	2058	2857	4205	502	-0.5	200	1	1	1195.2428	1	0	
8	0	1206.7175	1	730	2058	2857	4205	509	5.5	200	1	1	1213.2561	1	4	
9	0	1221.8874	0	460	1105	2857	4205	508	-0.5	200	0	0	1225.7544	1	3	
10	0	1232.4790	1	460	1105	2857	4205	503	8.5	200	0	0	1239.6307	1	3	
11	0	1252.8381	1	730	2058	2857	4205	505	-3.5	200	1	0	1258.5256	0	5	
12	1	1262.2139	0	730	2058	2857	4205	505	-3.5	200	1	1	1263.7181	1	5	
13	0	1271.3125	1	460	1105	2857	4205	511	-0.5	200	0	0	1277.2436	1	1	
14	0	1283.6924	0	460	1105	2857	4205	502	5.5	200	0	0	1285.5317	1	4	
15	0	1292.3179	0	730	2058	2857	4205	503	2.5	200	1	1	1293.8007	1	1	
16	0	1299.7525	0	730	2058	2857	4205	501	-6.5	200	1	0	1301.9795	0	3	
17	1	1308.6144	0	730	2058	2857	4205	501	-6.5	200	1	1	1310.0895	1	3	
18	0	1315.6851	0	730	2058	2857	4205	504	-0.5	200	1	1	1317.5017	1	4	
19	0	1322.9578	0	460	1105	2857	4205	507	-0.5	200	0	1	1324.4042	0	0	
20	1	1328.0791	0	460	1105	2857	4205	507	-0.5	200	0	0	1330.2514	1	0	
21	0	1340.1077	0	460	1105	2857	4205	506	-3.5	200	0	0	1342.1987	1	2	
22	0	1346.4760	0	730	2058	2857	4205	510	-0.5	200	1	1	1347.9875	1	2	
23	0	1353.3301	1	730	2058	2857	4205	508	-6.5	200	1	0	1359.3702	0	1	
24	1	1365.7229	1	730	2058	2857	4205	508	-6.5	200	1	0	1371.2944	0	1	
25	1	1378.9551	0	730	2058	2857	4205	508	-6.5	200	1	1	1384.2432	1	1	
26	0	1390.2178	0	460	1105	2857	4205	511	5.5	200	0	1	1391.8429	0	0	
27	1	1401.1585	1	460	1105	2857	4205	511	5.5	200	0	0	1405.6074	1	0	
28	0	1410.2492	0	730	2058	2857	4205	509	2.5	200	1	1	1411.8019	1	4	
29	0	1416.4232	0	460	1105	2857	4205	506	5.5	200	0	1	1417.9554	0	2	
30	1	1421.8191	0	460	1105	2857	4205	506	5.5	200	0	0	1423.3847	1	2	
31	0	1429.7137	0	730	2058	2857	4205	507	-0.5	200	1	1	1431.0220	1	3	
32	0	1435.6682	0	460	1105	2857	4205	503	-3.5	200	0	0	1438.4539	1	5	
33	0	1442.9533	1	460	1105	2857	4205	510	-6.5	200	0	0	1448.2901	1	0	
34	0	1452.9071	1	460	1105	2857	4205	511	-6.5	200	0	0	1458.6318	1	1	
35	0	1463.0892	1	460	1105	2857	4205	505	8.5	200	0	1	1468.7807	0	0	
36	1	1473.4061	0	460	1105	2857	4205	505	8.5	200	0	0	1475.5507	1	0	
37	0	1480.1461	0	730	2058	2857	4205	502	8.5	200	1	1	1481.9122	1	5	
38	0	1487.8265	0	730	2058	2857	4205	504	-6.5	200	1	0	1489.9578	0	2	
39	1	1496.7518	0	730	2058	2857	4205	504	-6.5	200	1	1	1498.6042	1	2	
40	0	1504.2157	1	730	2058	2857	4205	508	-3.5	200	1	0	1508.5822	0	2	
41	1	1512.3903	0	730	2058	2857	4205	508	-3.5	200	1	1	1514.4555	1	2	
42	0	1518.6115	0	730	2058	2857	4205	509	-3.5	200	1	1	1520.2402	1	1	
43	0	1524.8749	1	730	2058	2857	4205	504	8.5	200	1	1	1530.2258	1	1	
44	0	1536.2536	0	460	1105	2857	4205	502	-3.5	200	0	0	1539.2717	1	4	
45	0	1544.5488	0	460	1105	2857	4205	509	8.5	200	0	0	1546.1694	1	4	
46	0	1550.4332	0	460	1105	2857	4205	501	-0.5	200	0	1	1552.1753	0	4	
47	1	1557.5279	0	460	1105	2857	4205	501	-0.5	200	0	0	1559.6367	1	4	
48	0	1565.0347	0	460	1105	2857	4205	510	-0.5	200	0	0	1566.6959	1	5	
49	0	1571.7714	0	460	1105	2857	4205	511	-0.5	200	0	1	1573.1506	0	2	
50	1	1578.3908	0	460	1105	2857	4205	511	-0.5	200	0	0	1580.5309	1	2	
51	0	1586.0533	1	730	2058	2857	4205	503	8.5	200	1	1	1590.8679	1	3	
52	0	1594.9781	0	730	2058	2857	4205	505	8.5	200	1	1	1596.6747	1	0	
53	0	1601.1402	0	460	1105	2857	4205	506	-3.5	200	0	1	1602.7635	0	3	
54	1	1615.8201	0	460	1105	2857	4205	506	-3.5	200	0	0	1617.8196	1	3	
55	0	1623.0380	1	460	1105	2857	4205	507	5.5	200	0	1	1627.4471	0	1	
56	1	1631.0578	0	460	1105	2857	4205	507	5.5	200	0	0	1632.8968	1	1	
57	0	1637.7912	1	460	1105	2857	4205	507	2.5	200	0	1	1643.1332	0	0	
58	1	1646.6670	1	460	1105	2857	4205	507	2.5	200	0	0	1652.0792	1	0	
59	0	1659.8091	0	460	1105	2857	4205	503	2.5	200	0	0	1661.9045	1	4	
60	0	1666.4869	0	730	2058	2857	4205	511	2.5	200	1	1	1668.0927	1	3	
61	0	1672.1748	0	730	2058	2857	4205	505	-3.5	200	1	1	1673.7485	1	4	
62	0	1678.8387	0	460	1105	2857	4205	510	8.5	200	0	1	1680.7004	0	2	
63	1	1684.4561	0	460	1105	2857	4205	510	8.5	200	0	0	1686.5005	1	2	
64	0	1691.7424	0	460	1105	2857	4205	508	2.5	200	0	1	1693.5073	0	2	
65	1	1704.9815	1	460	1105	2857	4205	508	2.5	200	0	0	1708.7608	1	2	
66	0	1713.4966	0	460	1105	2857	4205	501	-3.5	200	0	1	1715.2988	0	1	
67	1	1720.2900	0	460	1105	2857	4205	501	-3.5	200	0	0	1722.1706	1	1	
68	0	1727.6161	0	460	1105	2857	4205	504	2.5	200	0	0	1728.9259	1	5	
69	0	1733.5440	0	460	1105	2857	4205	502	2.5	200	0	0	1734.8359	1	1	
70	0	1740.3075	0	730	2058	2857	4205	506	8.5	200	1	1	1741.8563	1	2	
71	0	1746.2583	0	730	2058	2857	4205	502	5.5	200	1	1	1748.7906	1	3	
72	0	1753.7380	0	460	1105	2857	4205	504	-6.5	200	0	0	1755.9372	1	4	
73	0	1760.3856	1	730	2058	2857	4205	509	8.5	200	1	1	1765.5790	1	4	
74	0	1769.9281	0	460	1105	2857	4205	503	-6.5	200	0	0	1772.5350	1	5	
75	0	1777.9243	1	460	1105	2857	4205	508	2.5	200	0	1	1782.8959	0	3	
76	1	1789.1949	0	460	1105	2857	4205	508	2.5	200	0	0	1791.0646	1	3	
77	0	1795.4616	0	730	2058	2857	4205	506	-3.5	200	1	1	1797.4257	1	0	
78	0	1802.5161	0	460	1105	2857	4205	501	-6.5	200	0	1	1804.1499	0	2	
79	1	1812.8231	0	460	1105	2857	4205	501	-6.5	200	0	0	1814.3261	1	2	
80	0	1818.3194	0	730	2058	2857	4205	505	-0.5	200	1	1	1820.0397	1	5	
81	0	1824.0312	0	730	2058	2857	4205	511	5.5	200	1	1	1825.5305	1	1	
82	0	1830.0594	0	460	1105	2857	4205	510	5.5	200	0	0	1831.9386	1	3	
83	0	1840.4465	0	730	2058	2857	4205	502	2.5	200	1	0	1842.6076	0	5	
84	1	1860.3383	0	730	2058	2857	4205	502	2.5	200	1	1	1862.6917	1	5	
85	0	1868.5983	0	730	2058	2857	4205	501	-6.5	200	1	1	1869.9441	1	5	
86	0	1874.2947	1	730	2058	2857	4205	511	5.5	200	1	0	1880.3515	0	5	
87	1	1884.2567	0	730	2058	2857	4205	511	5.5	200	1	0	1886.3523	0	5	
88	1	1896.7971	0	730	2058	2857	4205	511	5.5	200	1	1	1898.4023	1	5	
89	0	1903.2647	0	730	2058	2857	4205	506	5.5	200	1	1	1904.6828	1	0	
90	0	1909.5434	0	730	2058	2857	4205	503	-3.5	200	1	0	1911.1248	0	3	
91	1	1917.2840	0	730	2058	2857	4205	503	-3.5	200	1	1	1919.0288	1	3	
92	0	1926.6494	0	730	2058	2857	4205	504	-6.5	200	1	1	1927.8093	1	4	
93	0	1932.0172	0	460	1105	2857	4205	507	5.5	200	0	0	1933.5165	1	5	
94	0	1938.9871	0	730	2058	2857	4205	508	5.5	200	1	1	1940.4114	1	2	
95	0	1944.4163	0	730	2058	2857	4205	509	2.5	200	1	1	1945.9971	1	0	
96	0	1950.6522	0	730	2058	2857	4205	505	-0.5	200	1	0	1952.8135	0	1	
97	1	1963.6173	1	730	2058	2857	4205	505	-0.5	200	1	0	1968.1942	0	1	
98	1	1983.5504	0	730	2058	2857	4205	505	-0.5	200	1	1	1986.1774	1	1	
99	0	1989.8917	0	460	1105	2857	4205	506	-6.5	200	0	0	1992.0046	1	3	
100	0	1996.1807	0	460	1105	2857	4205	507	8.5	200	0	0	1997.8268	1	5	
101	0	2001.4316	1	730	2058	2857	4205	511	2.5	200	1	1	2005.1902	1	2	
102	0	2009.0484	0	730	2058	2857	4205	501	2.5	200	1	1	2010.8170	1	3	
103	0	2015.2020	0	460	1105	2857	4205	505	-0.5	200	0	0	2016.9305	1	5	
104	0	2026.2565	0	730	2058	2857	4205	503	2.5	200	1	1	2028.7999	1	4	
105	0	2032.1919	0	730	2058	2857	4205	504	5.5	200	1	0	2033.7987	0	2	
106	1	2042.1070	1	730	2058	2857	4205	504	5.5	200	1	0	2045.9543	0	2	
107	1	2061.1267	1	730	2058	2857	4205	504	5.5	200	1	1	2065.9118	1	2	
108	0	2069.3852	0	730	2058	2857	4205	510	-6.5	200	1	0	2071.6965	0	2	
