Trial	CorrectionTrial?	StartTime	CenterReward?	F1	F2	F3	F4	HoldTime	Atten	Pitch	Side	Response	RespTime	Correct	SpatialMask	
1	0	762.8086	0	460	1105	2857	4205	505	-0.5	200	0	0	805.7291	1	5	
2	0	816.5604	1	730	2058	2857	4205	507	-6.5	200	1	1	823.2357	1	3	
3	0	834.7233	1	730	2058	2857	4205	503	-0.5	200	1	0	840.9115	0	4	
4	1	844.7849	1	730	2058	2857	4205	503	-0.5	200	1	1	851.4976	1	4	
5	0	858.5419	0	460	1105	2857	4205	504	-0.5	200	0	0	860.7735	1	3	
6	0	866.7404	0	730	2058	2857	4205	510	-3.5	200	1	0	869.4025	0	4	
7	1	875.3431	1	730	2058	2857	4205	510	-3.5	200	1	1	881.7793	1	4	
8	0	889.4992	0	460	1105	2857	4205	508	2.5	200	0	1	892.1089	0	2	
9	1	896.4633	1	460	1105	2857	4205	508	2.5	200	0	0	902.6489	1	2	
10	0	907.3316	1	460	1105	2857	4205	511	-6.5	200	0	1	912.4531	0	2	
11	1	916.1385	0	460	1105	2857	4205	511	-6.5	200	0	0	917.4471	1	2	
12	0	922.0379	1	460	1105	2857	4205	506	2.5	200	0	0	926.4122	1	5	
13	0	931.1803	1	730	2058	2857	4205	501	-9.5	200	1	0	935.6630	0	5	
14	1	943.9286	1	730	2058	2857	4205	501	-9.5	200	1	0	949.2791	0	5	
15	1	953.3660	0	730	2058	2857	4205	501	-9.5	200	1	1	956.4887	1	5	
16	0	962.0221	1	460	1105	2857	4205	502	2.5	200	0	1	967.0201	0	0	
17	1	970.7494	0	460	1105	2857	4205	502	2.5	200	0	0	972.1976	1	0	
18	0	977.5532	0	460	1105	2857	4205	508	2.5	200	0	1	980.1839	0	1	
19	1	984.3665	1	460	1105	2857	4205	508	2.5	200	0	0	990.0236	1	1	
20	0	997.1888	0	460	1105	2857	4205	506	2.5	200	0	0	998.7804	1	4	
21	0	1002.4908	0	730	2058	2857	4205	504	-12.5	200	1	1	1005.0307	1	3	
22	0	1013.7207	0	730	2058	2857	4205	511	2.5	200	1	1	1016.0400	1	3	
23	0	1021.0026	0	730	2058	2857	4205	502	-12.5	200	1	0	1022.8405	0	4	
24	1	1026.6248	0	730	2058	2857	4205	502	-12.5	200	1	0	1028.0650	0	4	
25	1	1032.7686	0	730	2058	2857	4205	502	-12.5	200	1	1	1034.5480	1	4	
26	0	1040.1296	1	730	2058	2857	4205	505	2.5	200	1	1	1044.9930	1	4	
27	0	1051.1307	0	730	2058	2857	4205	501	2.5	200	1	1	1053.2914	1	5	
28	0	1058.3658	0	730	2058	2857	4205	510	-12.5	200	1	1	1060.5770	1	0	
29	0	1065.8860	0	730	2058	2857	4205	503	-9.5	200	1	0	1067.4414	0	1	
30	1	1072.0102	0	730	2058	2857	4205	503	-9.5	200	1	1	1073.7272	1	1	
31	0	1079.5066	1	460	1105	2857	4205	507	-12.5	200	0	0	1084.8574	1	5	
32	0	1089.2024	0	730	2058	2857	4205	501	-6.5	200	1	1	1090.7942	1	0	
33	0	1096.7301	0	730	2058	2857	4205	506	-6.5	200	1	1	1098.4497	1	1	
34	0	1104.4536	1	460	1105	2857	4205	509	-6.5	200	0	1	1109.6559	0	4	
35	1	1124.0365	1	460	1105	2857	4205	509	-6.5	200	0	0	1127.5275	1	4	
36	0	1131.3009	1	460	1105	2857	4205	511	-12.5	200	0	1	1135.8494	0	2	
37	1	1140.6009	1	460	1105	2857	4205	511	-12.5	200	0	0	1145.7773	1	2	
38	0	1149.8831	1	730	2058	2857	4205	508	-9.5	200	1	1	1154.5024	1	4	
39	0	1160.2455	1	730	2058	2857	4205	505	-3.5	200	1	0	1165.4304	0	0	
40	1	1170.3617	0	730	2058	2857	4205	505	-3.5	200	1	1	1172.5861	1	0	
41	0	1177.4580	1	460	1105	2857	4205	503	-6.5	200	0	0	1181.7898	1	0	
42	0	1185.1947	1	730	2058	2857	4205	502	2.5	200	1	1	1189.2725	1	2	
43	0	1194.4065	1	730	2058	2857	4205	507	-12.5	200	1	0	1200.2560	0	2	
44	1	1205.9795	0	730	2058	2857	4205	507	-12.5	200	1	0	1207.4682	0	2	
45	1	1211.4625	1	730	2058	2857	4205	507	-12.5	200	1	1	1216.2081	1	2	
46	0	1220.7442	0	730	2058	2857	4205	510	-6.5	200	1	1	1225.4385	1	4	
47	0	1230.1674	0	460	1105	2857	4205	507	-0.5	200	0	1	1232.2995	0	2	
48	1	1241.7015	1	460	1105	2857	4205	507	-0.5	200	0	0	1245.9858	1	2	
49	0	1250.4203	0	460	1105	2857	4205	510	-3.5	200	0	1	1252.2980	0	3	
50	1	1260.4576	0	460	1105	2857	4205	510	-3.5	200	0	1	1264.6539	0	3	
51	1	1269.1803	1	460	1105	2857	4205	510	-3.5	200	0	1	1274.5556	0	3	
52	1	1286.5309	0	460	1105	2857	4205	510	-3.5	200	0	0	1287.6174	1	3	
53	0	1292.6381	1	460	1105	2857	4205	501	-9.5	200	0	0	1296.2109	1	5	
54	0	1299.8341	0	460	1105	2857	4205	506	-3.5	200	0	1	1301.4517	0	5	
55	1	1305.4995	0	460	1105	2857	4205	506	-3.5	200	0	0	1306.8449	1	5	
56	0	1310.9100	0	730	2058	2857	4205	505	-9.5	200	1	1	1312.5201	1	0	
57	0	1316.9722	0	460	1105	2857	4205	511	-9.5	200	0	1	1319.0373	0	4	
58	1	1323.2438	0	460	1105	2857	4205	511	-9.5	200	0	0	1324.8545	1	4	
59	0	1329.1577	1	730	2058	2857	4205	503	-0.5	200	1	0	1333.2269	0	2	
60	1	1339.7724	1	730	2058	2857	4205	503	-0.5	200	1	0	1343.9190	0	2	
61	1	1348.4993	1	730	2058	2857	4205	503	-0.5	200	1	1	1353.2196	1	2	
62	0	1357.4903	0	460	1105	2857	4205	502	-0.5	200	0	1	1359.8906	0	0	
63	1	1364.4498	1	460	1105	2857	4205	502	-0.5	200	0	0	1367.9773	1	0	
64	0	1372.3871	1	460	1105	2857	4205	504	-12.5	200	0	1	1377.3408	0	1	
65	1	1381.5346	1	460	1105	2857	4205	504	-12.5	200	0	0	1385.3857	1	1	
66	0	1389.9851	1	460	1105	2857	4205	509	-3.5	200	0	0	1397.5572	1	0	
67	0	1402.1131	0	460	1105	2857	4205	504	-0.5	200	0	1	1403.9738	0	1	
68	1	1408.8223	1	460	1105	2857	4205	504	-0.5	200	0	0	1412.9267	1	1	
69	0	1419.6847	0	730	2058	2857	4205	511	-3.5	200	1	1	1421.5443	1	1	
70	0	1425.6583	0	730	2058	2857	4205	510	-12.5	200	1	1	1428.0960	1	5	
71	0	1432.3756	1	460	1105	2857	4205	506	2.5	200	0	0	1436.9941	1	3	
72	0	1441.2530	1	460	1105	2857	4205	503	-3.5	200	0	0	1445.5330	1	4	
73	0	1449.7274	0	730	2058	2857	4205	501	-6.5	200	1	1	1451.3277	1	5	
74	0	1456.1780	0	730	2058	2857	4205	505	-9.5	200	1	1	1459.4372	1	2	
75	0	1463.5773	0	730	2058	2857	4205	509	-0.5	200	1	1	1466.6572	1	0	
76	0	1472.7694	0	730	2058	2857	4205	507	-12.5	200	1	1	1474.5503	1	1	
77	0	1478.9129	0	460	1105	2857	4205	502	-9.5	200	0	0	1480.4076	1	0	
78	0	1488.1823	0	730	2058	2857	4205	503	-0.5	200	1	0	1489.5073	0	5	
79	1	1493.4567	1	730	2058	2857	4205	503	-0.5	200	1	1	1498.0361	1	5	
80	0	1501.9988	0	460	1105	2857	4205	510	-12.5	200	0	1	1504.2712	0	0	
81	1	1511.1915	0	460	1105	2857	4205	510	-12.5	200	0	0	1512.7632	1	0	
82	0	1516.7301	0	730	2058	2857	4205	501	-3.5	200	1	0	1518.3670	0	3	
83	1	1522.1391	0	730	2058	2857	4205	501	-3.5	200	1	1	1524.2448	1	3	
84	0	1537.0056	1	730	2058	2857	4205	511	-9.5	200	1	0	1541.0430	0	3	
85	1	1549.2044	1	730	2058	2857	4205	511	-9.5	200	1	0	1552.5773	0	3	
86	1	1563.9881	1	730	2058	2857	4205	511	-9.5	200	1	1	1568.4039	1	3	
87	0	1572.3856	0	460	1105	2857	4205	504	-12.5	200	0	0	1573.7807	1	3	
88	0	1578.1351	0	460	1105	2857	4205	508	-6.5	200	0	1	1580.8189	0	1	
89	1	1584.4463	1	460	1105	2857	4205	508	-6.5	200	0	0	1588.1303	1	1	
90	0	1594.8826	1	460	1105	2857	4205	506	-3.5	200	0	0	1598.5782	1	1	
91	0	1602.7420	1	460	1105	2857	4205	509	-0.5	200	0	1	1606.9894	0	4	
92	1	1610.7787	1	460	1105	2857	4205	509	-0.5	200	0	0	1615.0831	1	4	
93	0	1622.0371	0	730	2058	2857	4205	507	-6.5	200	1	1	1626.0900	1	2	
94	0	1629.9313	0	730	2058	2857	4205	505	-3.5	200	1	0	1631.4250	0	2	
95	1	1643.1584	1	730	2058	2857	4205	505	-3.5	200	1	1	1647.2383	1	2	
96	0	1660.7166	0	460	1105	2857	4205	501	-3.5	200	0	0	1663.4508	1	2	
97	0	1670.6049	1	460	1105	2857	4205	504	-9.5	200	0	0	1673.5253	1	2	
98	0	1685.3898	0	460	1105	2857	4205	506	-9.5	200	0	0	1687.5115	1	1	
99	0	1711.8858	1	730	2058	2857	4205	510	-3.5	200	1	0	1715.4821	0	5	
100	1	1742.9173	1	730	2058	2857	4205	510	-3.5	200	1	1	1747.1306	1	5