Trial	CorrectionTrial?	StartTime	CenterReward?	F1	F2	F3	F4	HoldTime	Atten	Pitch	Side	Response	RespTime	Correct	SpatialMask	Mask	
1	0	1152.1538	0	460	1105	2857	4205	509	-6.5	200	0	0	1155.9539	1	3	
2	0	1162.3018	0	730	2058	2857	4205	505	5.5	200	1	1	1168.1609	1	1	
3	0	1178.3862	1	460	1105	2857	4205	502	-0.5	200	0	0	1179.2764	1	4	
4	0	1190.8516	0	460	1105	2857	4205	503	-3.5	200	0	0	1195.7402	1	1	
5	0	1212.2178	1	460	1105	2857	4205	508	8.5	200	0	0	1216.4565	1	3	
6	0	1228.1480	0	460	1105	2857	4205	506	-3.5	200	0	1	1229.8240	0	2	
7	1	1239.6895	0	460	1105	2857	4205	506	-3.5	200	0	1	1241.3447	0	2	
8	1	1245.5715	0	460	1105	2857	4205	506	-3.5	200	0	0	1246.8153	1	2	
9	0	1257.0214	0	730	2058	2857	4205	510	-6.5	200	1	0	1258.1887	0	4	
10	1	1264.3095	0	730	2058	2857	4205	510	-6.5	200	1	1	1265.6737	1	4	
11	0	1278.0740	0	460	1105	2857	4205	501	-6.5	200	0	0	1278.9823	1	2	
12	0	1286.8556	0	460	1105	2857	4205	507	-3.5	200	0	0	1288.0616	1	5	
13	0	1294.5655	1	460	1105	2857	4205	504	5.5	200	0	1	1300.0686	0	0	
14	1	1308.0574	0	460	1105	2857	4205	504	5.5	200	0	0	1309.2056	1	0	
15	0	1315.2791	1	730	2058	2857	4205	506	-6.5	200	1	0	1320.0607	0	1	
16	1	1328.0328	0	730	2058	2857	4205	506	-6.5	200	1	0	1329.2498	0	1	
17	1	1339.6505	0	730	2058	2857	4205	506	-6.5	200	1	1	1341.0388	1	1	
18	0	1351.6154	0	730	2058	2857	4205	509	2.5	200	1	0	1353.2474	0	4	
19	1	1360.3258	1	730	2058	2857	4205	509	2.5	200	1	0	1365.2199	0	4	
20	1	1368.8416	0	730	2058	2857	4205	509	2.5	200	1	1	1371.6994	1	4	
21	0	1384.1877	0	730	2058	2857	4205	508	-0.5	200	1	1	1385.7690	1	0	
22	0	1396.1562	1	460	1105	2857	4205	504	8.5	200	0	0	1400.5815	1	1	
23	0	1410.4007	0	730	2058	2857	4205	502	-6.5	200	1	1	1412.5477	1	0	
24	0	1422.5803	0	730	2058	2857	4205	510	-0.5	200	1	1	1427.7666	1	5	
25	0	1433.2348	0	730	2058	2857	4205	503	-0.5	200	1	1	1434.8616	1	1	
26	0	1439.5146	0	460	1105	2857	4205	505	-0.5	200	0	1	1441.4396	0	0	
27	1	1445.3903	0	460	1105	2857	4205	505	-0.5	200	0	0	1446.6695	1	0	
28	0	1460.2723	0	460	1105	2857	4205	501	2.5	200	0	0	1461.5352	1	1	
29	0	1469.1472	0	460	1105	2857	4205	507	2.5	200	0	1	1470.8743	0	2	
30	1	1474.4740	0	460	1105	2857	4205	507	2.5	200	0	0	1475.5458	1	2	
31	0	1483.2379	0	460	1105	2857	4205	501	-3.5	200	0	1	1484.9311	0	0	
32	1	1490.2236	0	460	1105	2857	4205	501	-3.5	200	0	0	1491.2830	1	0	
33	0	1498.5870	1	730	2058	2857	4205	508	-6.5	200	1	1	1504.4403	1	3	
34	0	1509.3155	0	730	2058	2857	4205	506	8.5	200	1	1	1510.9508	1	5	
35	0	1517.1084	0	460	1105	2857	4205	511	8.5	200	0	1	1518.5692	0	0	
36	1	1527.8409	1	460	1105	2857	4205	511	8.5	200	0	0	1532.1042	1	0	
37	0	1535.4536	0	730	2058	2857	4205	502	-3.5	200	1	1	1537.0802	1	3	
38	0	1541.6764	0	730	2058	2857	4205	505	8.5	200	1	1	1543.2465	1	1	
39	0	1548.1315	1	730	2058	2857	4205	509	2.5	200	1	0	1553.4403	0	3	
40	1	1562.1797	0	730	2058	2857	4205	509	2.5	200	1	1	1563.8924	1	3	
41	0	1568.8892	0	730	2058	2857	4205	510	-3.5	200	1	1	1570.7939	1	5	
42	0	1575.3848	0	460	1105	2857	4205	504	8.5	200	0	0	1576.5334	1	5	
43	0	1588.3847	0	460	1105	2857	4205	503	-3.5	200	0	0	1589.7580	1	4	
44	0	1596.8448	0	460	1105	2857	4205	506	-0.5	200	0	1	1598.2148	0	2	
45	1	1607.5532	0	460	1105	2857	4205	506	-0.5	200	0	0	1608.7581	1	2	
46	0	1614.3806	1	730	2058	2857	4205	507	2.5	200	1	1	1619.9500	1	2	
47	0	1624.4575	0	460	1105	2857	4205	501	2.5	200	0	1	1626.7167	0	3	
48	1	1630.5747	0	460	1105	2857	4205	501	2.5	200	0	0	1632.0042	1	3	
49	0	1640.7536	1	730	2058	2857	4205	502	5.5	200	1	1	1646.8735	1	0	
50	0	1651.6030	0	460	1105	2857	4205	504	5.5	200	0	0	1653.1841	1	4	
51	0	1659.9399	1	730	2058	2857	4205	511	8.5	200	1	1	1665.1090	1	4	
52	0	1669.6038	1	460	1105	2857	4205	508	5.5	200	0	0	1674.8375	1	2	
53	0	1681.8758	0	730	2058	2857	4205	505	-3.5	200	1	1	1683.3425	1	0	
54	0	1687.9406	0	730	2058	2857	4205	503	8.5	200	1	1	1689.6264	1	3	
55	0	1695.6044	0	730	2058	2857	4205	510	5.5	200	1	1	1697.2730	1	5	
56	0	1703.3209	0	730	2058	2857	4205	502	2.5	200	1	1	1704.7044	1	1	
57	0	1710.4540	1	730	2058	2857	4205	504	-0.5	200	1	0	1715.1662	0	4	
58	1	1721.1089	1	730	2058	2857	4205	504	-0.5	200	1	1	1727.8670	1	4	
59	0	1732.0713	0	460	1105	2857	4205	507	-0.5	200	0	1	1734.2736	0	1	
60	1	1738.2944	0	460	1105	2857	4205	507	-0.5	200	0	0	1739.6951	1	1	
61	0	1748.5054	0	730	2058	2857	4205	510	-0.5	200	1	1	1749.9660	1	3	
62	0	1754.3589	1	460	1105	2857	4205	511	8.5	200	0	1	1760.2547	0	2	
63	1	1764.8728	0	460	1105	2857	4205	511	8.5	200	0	0	1766.2424	1	2	
64	0	1788.2579	0	460	1105	2857	4205	508	2.5	200	0	0	1789.5547	1	5	
65	0	1796.3760	0	460	1105	2857	4205	501	-6.5	200	0	0	1797.9046	1	0	
66	0	1804.9016	1	730	2058	2857	4205	503	5.5	200	1	1	1809.9323	1	2	
67	0	1814.8383	0	460	1105	2857	4205	505	-0.5	200	0	1	1816.9482	0	3	
68	1	1820.6378	1	460	1105	2857	4205	505	-0.5	200	0	0	1824.7215	1	3	
69	0	1829.9696	0	460	1105	2857	4205	506	-6.5	200	0	0	1832.5062	1	5	
70	0	1838.9082	0	460	1105	2857	4205	510	2.5	200	0	0	1840.5633	1	4	
71	0	1850.5630	0	730	2058	2857	4205	508	-0.5	200	1	1	1852.5643	1	2	
72	0	1857.4959	1	460	1105	2857	4205	507	5.5	200	0	0	1861.7355	1	5	
73	0	1868.3064	0	730	2058	2857	4205	509	-6.5	200	1	1	1870.1091	1	2	
74	0	1873.9583	0	460	1105	2857	4205	506	-6.5	200	0	0	1875.1688	1	4	
75	0	1892.3935	0	730	2058	2857	4205	505	5.5	200	1	1	1894.4632	1	4	
76	0	1898.6027	0	460	1105	2857	4205	504	-0.5	200	0	0	1900.1768	1	5	
77	0	1910.6736	1	460	1105	2857	4205	501	5.5	200	0	0	1915.5347	1	1	
78	0	1923.3738	0	730	2058	2857	4205	511	5.5	200	1	1	1926.3860	1	3	
79	0	1930.9462	0	730	2058	2857	4205	503	-3.5	200	1	1	1932.3352	1	1	
80	0	1936.8308	0	460	1105	2857	4205	504	-6.5	200	0	0	1939.1762	1	1	
81	0	1944.5665	0	730	2058	2857	4205	505	-6.5	200	1	1	1946.4008	1	5	
82	0	1952.9053	1	460	1105	2857	4205	507	2.5	200	0	0	1957.4461	1	0	
83	0	1974.5767	0	730	2058	2857	4205	502	8.5	200	1	0	1976.7860	0	2	
84	1	1990.4240	1	730	2058	2857	4205	502	8.5	200	1	1	1996.5731	1	2	
85	0	2001.7617	0	730	2058	2857	4205	511	2.5	200	1	1	2003.6236	1	5	
86	0	2008.7744	0	730	2058	2857	4205	509	-3.5	200	1	1	2010.2965	1	4	
87	0	2033.7910	0	460	1105	2857	4205	510	5.5	200	0	0	2035.7330	1	3	
88	0	2043.4013	0	730	2058	2857	4205	508	8.5	200	1	1	2045.0517	1	0	
89	0	2048.7982	0	730	2058	2857	4205	506	-3.5	200	1	1	2050.3067	1	2	
90	0	2054.5651	1	460	1105	2857	4205	503	8.5	200	0	0	2057.6756	1	4	
91	0	2064.1210	0	460	1105	2857	4205	502	-3.5	200	0	1	2067.0004	0	3	
92	1	2070.9578	0	460	1105	2857	4205	502	-3.5	200	0	0	2072.1553	1	3	
93	0	2082.0133	0	730	2058	2857	4205	511	2.5	200	1	1	2083.6131	1	0	
94	0	2088.0754	0	730	2058	2857	4205	506	8.5	200	1	1	2091.3388	1	5	
95	0	2096.3464	0	730	2058	2857	4205	504	-3.5	200	1	1	2099.0229	1	4	
96	0	2103.2269	0	730	2058	2857	4205	509	-6.5	200	1	0	2104.7763	0	0	
97	1	2117.2496	0	730	2058	2857	4205	509	-6.5	200	1	1	2119.1819	1	0	
98	0	2128.5388	1	730	2058	2857	4205	503	5.5	200	1	0	2131.9864	0	0	
99	1	2142.8388	0	730	2058	2857	4205	503	5.5	200	1	1	2146.6902	1	0	
100	0	2150.3212	0	460	1105	2857	4205	501	5.5	200	0	0	2152.0132	1	1	
