Trial	CorrectionTrial?	StartTime	CenterReward?	SpkrIdx	SpkrPos	duration	HoldTime	Atten	Response	RespTime	Correct	ComputerTime	SoundOrLED	
1	0	176.733	0	2	-90	250	751	4.5	2	177.551	1	736168.365219	0	
2	0	186.463	0	8	90	250	551	9.0	7	188.407	0	736168.365344	1	
3	0	197.383	0	3	-60	250	501	0.0	3	199.109	1	736168.365468	1	
4	0	216.902	0	7	60	250	951	4.5	7	217.831	1	736168.365684	1	
5	0	230.640	0	3	-60	250	901	9.0	3	232.495	1	736168.365854	0	
6	0	243.463	0	5	0	250	851	0.0	3	244.516	0	736168.365993	1	
7	0	263.982	0	7	60	250	801	9.0	7	265.397	1	736168.366235	0	
8	0	274.216	0	4	-30	250	701	4.5	7	275.234	0	736168.366349	0	
9	0	283.765	0	2	-90	250	601	9.0	3	285.930	0	736168.366473	1	
10	0	305.692	0	8	90	250	651	0.0	8	306.415	1	736168.366711	1	
11	0	315.003	0	6	30	250	601	9.0	6	316.054	1	736168.366821	1	
12	0	330.082	0	6	30	250	501	0.0	5	331.288	0	736168.366998	1	
13	0	340.106	0	4	-30	250	551	0.0	4	340.969	1	736168.367110	0	
14	0	347.786	0	3	-60	250	751	9.0	3	349.307	1	736168.367207	0	
15	0	367.747	0	5	0	250	1001	9.0	4	368.629	0	736168.367430	1	
16	0	375.243	0	4	-30	250	801	4.5	4	376.290	1	736168.367519	1	
17	0	385.555	0	3	-60	250	651	9.0	3	388.295	1	736168.367658	1	
18	0	405.751	0	7	60	250	851	0.0	8	406.567	0	736168.367870	0	
19	0	419.984	0	4	-30	250	901	0.0	4	421.017	1	736168.368036	1	
20	0	428.619	0	6	30	250	951	4.5	6	429.407	1	736168.368134	0	
21	0	439.784	0	6	30	250	901	0.0	6	440.570	1	736168.368264	0	
22	0	448.700	0	7	60	250	501	9.0	7	449.609	1	736168.368367	1	
23	0	461.229	0	8	90	250	1001	9.0	8	461.887	1	736168.368511	0	
24	0	470.363	0	5	0	250	951	4.5	4	471.017	0	736168.368617	0	
25	0	477.062	0	2	-90	250	751	0.0	2	477.756	1	736168.368694	0	
26	0	487.010	0	2	-90	250	851	4.5	2	487.767	1	736168.368810	1	
27	0	496.481	0	5	0	250	601	9.0	5	497.259	1	736168.368919	0	
28	0	507.000	0	8	90	250	551	4.5	8	508.275	1	736168.369046	0	
29	0	516.052	0	2	-90	250	801	9.0	2	516.955	1	736168.369146	1	
30	0	525.528	0	2	-90	250	651	4.5	3	526.711	0	736168.369260	1	
31	0	544.755	0	5	0	250	901	4.5	6	545.503	0	736168.369479	0	
32	0	551.678	0	7	60	250	1001	0.0	7	552.565	1	736168.369558	0	
33	0	559.067	0	5	0	250	501	0.0	5	560.250	1	736168.369647	0	
34	0	570.683	0	3	-60	250	601	4.5	3	571.773	1	736168.369782	1	
35	0	587.073	0	3	-60	250	851	9.0	3	588.452	1	736168.369974	1	
36	0	600.959	0	7	60	250	801	4.5	6	601.972	0	736168.370131	0	
37	0	611.566	0	5	0	250	651	4.5	7	612.707	0	736168.370255	1	
38	0	622.390	0	7	60	250	551	0.0	7	623.537	1	736168.370380	1	
39	0	631.788	0	6	30	250	701	9.0	6	632.750	1	736168.370487	0	
40	0	640.271	0	8	90	250	751	0.0	8	641.039	1	736168.370584	1	
41	0	648.096	0	6	30	250	501	4.5	6	650.098	1	736168.370688	1	
42	0	658.946	0	6	30	250	601	0.0	6	659.932	1	736168.370801	1	
43	0	668.874	0	3	-60	250	701	0.0	4	669.498	0	736168.370915	0	
44	0	679.747	0	4	-30	250	551	4.5	4	680.775	1	736168.371043	1	
45	0	687.564	0	3	-60	250	851	4.5	3	688.501	1	736168.371132	0	
46	0	695.834	0	8	90	250	1001	9.0	8	696.493	1	736168.371227	0	
47	0	705.124	0	8	90	250	801	0.0	7	706.060	0	736168.371336	1	
48	0	714.492	0	6	30	250	651	4.5	6	715.391	1	736168.371443	0	
49	0	724.850	0	2	-90	250	751	4.5	3	726.189	0	736168.371568	0	
50	0	737.572	0	4	-30	250	951	9.0	5	738.654	0	736168.371713	0	
51	0	746.178	0	2	-90	250	901	4.5	4	746.978	0	736168.371810	0	
52	0	766.869	0	4	-30	250	551	0.0	4	767.725	1	736168.372049	1	
53	0	774.408	0	8	90	250	851	9.0	8	775.084	1	736168.372136	0	
54	0	782.094	0	7	60	250	951	0.0	7	782.688	1	736168.372225	1	
55	0	788.984	0	5	0	250	751	0.0	5	789.999	1	736168.372307	1	
56	0	799.583	0	4	-30	250	801	9.0	4	800.290	1	736168.372428	0	
57	0	808.018	0	7	60	250	601	4.5	7	809.027	1	736168.372527	1	
58	0	816.376	0	3	-60	250	1001	9.0	4	817.034	0	736168.372622	0	
59	0	826.581	0	5	0	250	501	0.0	5	827.493	1	736168.372741	0	
60	0	835.045	0	4	-30	250	701	4.5	4	835.864	1	736168.372838	1	
61	0	842.384	0	5	0	250	801	4.5	4	843.221	0	736168.372923	1	
62	0	850.804	0	6	30	250	1001	9.0	6	851.657	1	736168.373021	1	
63	0	863.691	0	3	-60	250	501	9.0	3	864.695	1	736168.373172	1	
64	0	871.983	0	8	90	250	901	0.0	8	872.802	1	736168.373266	0	
65	0	879.251	0	8	90	250	701	4.5	8	880.051	1	736168.373350	0	
66	0	886.711	0	6	30	250	601	0.0	6	887.587	1	736168.373436	0	
67	0	896.301	0	2	-90	250	651	0.0	3	898.169	0	736168.373559	1	
68	0	907.501	0	3	-60	250	551	4.5	4	908.235	0	736168.373677	0	
69	0	922.343	0	8	90	250	951	9.0	8	923.145	1	736168.373848	1	
70	0	930.123	0	8	90	250	751	0.0	8	930.921	1	736168.373938	1	
71	0	937.555	0	2	-90	250	701	9.0	4	938.568	0	736168.374027	0	
72	0	946.036	0	6	30	250	501	4.5	6	946.836	1	736168.374122	0	
73	0	954.809	0	2	-90	250	901	9.0	7	955.922	0	736168.374227	1	
74	0	968.601	0	5	0	250	851	0.0	6	969.261	0	736168.374384	0	
75	0	975.667	0	2	-90	250	601	4.5	5	976.483	0	736168.374466	0	
76	0	986.292	0	7	60	250	551	9.0	7	987.315	1	736168.374590	1	
77	0	993.380	0	4	-30	250	751	4.5	4	994.564	1	736168.374675	0	
78	0	1001.871	1	5	0	250	951	0.0	3	1002.676	0	736168.374769	1	
79	0	1023.507	0	7	60	250	1001	4.5	7	1024.333	1	736168.375020	0	
80	0	1033.465	0	4	-30	250	651	9.0	4	1034.545	1	736168.375137	1	
81	0	1042.610	0	4	-30	250	751	0.0	4	1043.280	1	736168.375240	0	
82	0	1049.473	0	7	60	250	551	9.0	7	1050.331	1	736168.375320	0	
83	0	1056.898	0	6	30	250	601	9.0	6	1057.772	1	736168.375406	1	
84	0	1065.144	0	3	-60	250	801	0.0	4	1066.092	0	736168.375503	1	
85	0	1080.621	0	2	-90	250	901	9.0	7	1081.406	0	736168.375680	0	
86	0	1094.270	0	7	60	250	951	0.0	7	1094.954	1	736168.375839	0	
87	0	1100.945	0	3	-60	250	651	9.0	5	1102.082	0	736168.375919	0	
88	0	1109.595	0	6	30	250	1001	0.0	6	1111.091	1	736168.376024	0	
89	0	1119.644	0	3	-60	250	501	9.0	6	1120.557	0	736168.376133	0	
90	0	1130.162	0	3	-60	250	851	0.0	3	1131.012	1	736168.376254	1	
91	0	1137.792	0	2	-90	250	701	9.0	3	1139.724	0	736168.376355	1	
92	0	1151.118	0	2	-90	250	651	4.5	3	1152.576	0	736168.376504	0	
93	0	1164.742	0	4	-30	250	751	9.0	4	1165.659	1	736168.376654	1	
94	0	1171.996	0	2	-90	250	601	4.5	2	1173.082	1	736168.376741	1	
95	0	1181.200	0	7	60	250	801	9.0	7	1182.010	1	736168.376845	0	
96	0	1190.859	0	7	60	250	501	4.5	7	1191.880	1	736168.376958	1	
97	0	1198.089	0	5	0	250	1001	4.5	5	1199.213	1	736168.377043	0	
98	0	1206.096	1	5	0	250	851	0.0	5	1207.107	1	736168.377135	1	
99	0	1216.414	0	8	90	250	901	9.0	8	1218.931	1	736168.377271	0	
100	0	1235.834	0	6	30	250	551	0.0	6	1236.847	1	736168.377478	1	
101	0	1243.406	0	8	90	250	851	9.0	8	1244.172	1	736168.377565	0	
102	0	1250.933	0	4	-30	250	901	4.5	5	1251.798	0	736168.377652	0	
103	0	1259.200	0	3	-60	250	651	0.0	4	1260.145	0	736168.377748	1	
104	0	1271.370	0	6	30	250	951	9.0	6	1272.238	1	736168.377888	0	
105	0	1277.931	0	4	-30	250	601	9.0	5	1278.832	0	736168.377964	0	
106	0	1284.912	0	8	90	250	501	0.0	8	1286.042	1	736168.378048	1	
107	0	1292.675	0	5	0	250	1001	9.0	5	1293.616	1	736168.378136	1	
108	0	1298.733	0	5	0	250	751	0.0	5	1299.803	1	736168.378208	0	
109	0	1306.638	0	6	30	250	801	4.5	6	1307.511	1	736168.378297	1	
110	0	1315.039	0	8	90	250	701	9.0	8	1315.880	1	736168.378394	1	
111	0	1322.472	1	4	-30	250	901	0.0	4	1323.417	1	736168.378480	1	
112	0	1329.872	0	7	60	250	801	4.5	7	1333.076	1	736168.378592	1	
113	0	1337.725	0	7	60	250	501	9.0	7	1338.614	1	736168.378657	0	
114	0	1343.391	0	7	60	250	751	0.0	7	1344.527	1	736168.378725	1	
115	0	1350.124	0	4	-30	250	601	0.0	4	1351.099	1	736168.378801	1	
116	0	1357.397	0	6	30	250	551	9.0	6	1358.478	1	736168.378887	0	
117	0	1368.263	0	8	90	250	651	4.5	8	1369.167	1	736168.379010	1	
118	0	1375.938	0	2	-90	250	951	9.0	4	1376.666	0	736168.379098	0	
119	0	1387.997	0	5	0	250	1001	9.0	6	1389.101	0	736168.379241	1	
