Trial	CorrectionTrial?	StartTime	CenterReward?	SpkrIdx	SpkrPos	duration	HoldTime	Atten	Response	RespTime	Correct	ComputerTime	SoundOrLED	
1	0	25.128	0	3	-60	100	851	0.0	2	27.751	0	736175.458341	0	
2	0	39.137	0	4	-30	100	501	4.5	3	41.719	0	736175.458503	0	
3	0	51.145	0	7	60	100	551	9.0	8	52.571	0	736175.458628	0	
4	0	97.889	0	6	30	100	701	0.0	6	98.856	1	736175.459164	0	
5	0	123.258	0	7	60	100	801	9.0	8	124.110	0	736175.459456	0	
6	0	134.494	0	5	0	100	901	0.0	4	135.402	0	736175.459588	0	
7	0	154.147	0	2	-90	100	651	9.0	2	155.369	1	736175.459818	0	
8	0	176.416	0	5	0	100	951	4.5	5	177.764	1	736175.460077	0	
9	0	192.415	0	6	30	100	601	9.0	6	193.518	1	736175.460260	0	
10	0	208.691	0	8	90	100	1001	0.0	8	210.181	1	736175.460453	0	
11	0	216.625	0	2	-90	100	701	0.0	2	217.624	1	736175.460539	0	
12	0	227.952	0	4	-30	100	951	9.0	3	228.767	0	736175.460668	0	
13	0	239.800	0	8	90	100	901	0.0	8	240.661	1	736175.460806	0	
14	0	250.192	0	3	-60	100	801	4.5	2	251.057	0	736175.460926	0	
15	0	263.940	0	4	-30	100	501	9.0	6	265.194	0	736175.461089	0	
16	0	273.592	0	2	-90	100	751	0.0	2	274.436	1	736175.461196	0	
17	0	284.539	1	3	-60	100	551	0.0	3	285.379	1	736175.461323	0	
18	0	304.187	0	8	90	100	601	9.0	7	306.308	0	736175.461566	0	
19	0	335.168	0	7	60	100	651	0.0	6	336.235	0	736175.461912	0	
20	0	345.101	0	7	60	100	851	9.0	6	346.087	0	736175.462026	0	
21	0	353.048	0	6	30	100	651	0.0	6	353.957	1	736175.462117	0	
22	0	364.348	0	8	90	100	851	9.0	8	365.216	1	736175.462247	0	
23	0	373.003	0	2	-90	100	751	9.0	2	373.779	1	736175.462346	0	
24	0	383.746	0	6	30	100	551	4.5	6	384.695	1	736175.462473	0	
25	0	398.896	0	3	-60	100	901	9.0	3	399.777	1	736175.462647	0	
26	0	405.498	0	4	-30	100	701	4.5	3	406.321	0	736175.462723	0	
27	0	415.405	0	5	0	100	601	0.0	6	416.414	0	736175.462840	0	
28	0	422.721	0	5	0	100	951	4.5	5	423.580	1	736175.462922	0	
29	0	433.438	0	4	-30	100	501	4.5	3	434.239	0	736175.463046	0	
30	0	444.801	0	5	0	100	801	0.0	5	445.580	1	736175.463179	0	
31	0	455.452	0	2	-90	100	601	4.5	2	456.247	1	736175.463301	0	
32	0	468.456	1	8	90	100	751	9.0	8	469.264	1	736175.463452	0	
33	0	477.109	0	6	30	100	651	9.0	6	480.082	1	736175.463576	0	
34	0	491.072	0	4	-30	100	701	0.0	3	491.852	0	736175.463713	0	
35	0	501.450	0	7	60	100	1001	0.0	7	502.331	1	736175.463834	0	
36	0	508.723	0	3	-60	100	501	4.5	3	509.737	1	736175.463920	0	
37	0	517.038	0	5	0	100	551	9.0	6	518.149	0	736175.464017	0	
38	0	525.111	1	3	-60	100	801	4.5	2	525.820	0	736175.464107	0	
39	0	551.318	0	2	-90	100	901	4.5	2	554.351	1	736175.464436	0	
40	0	568.200	0	8	90	100	851	0.0	8	569.533	1	736175.464612	0	
41	0	577.026	0	6	30	100	851	4.5	6	577.942	1	736175.464710	0	
42	0	585.935	0	7	60	100	1001	9.0	6	586.768	0	736175.464812	0	
43	0	593.407	0	8	90	100	801	4.5	8	594.117	1	736175.464898	0	
44	0	601.016	1	5	0	100	501	9.0	3	602.285	0	736175.464991	0	
45	0	620.805	1	6	30	100	701	4.5	6	621.828	1	736175.465218	0	
46	0	632.903	1	3	-60	100	551	0.0	3	633.785	1	736175.465355	0	
47	0	641.154	0	7	60	100	601	0.0	7	644.432	1	736175.465479	0	
48	0	651.387	0	5	0	100	951	9.0	3	652.217	0	736175.465569	0	
49	0	662.061	0	8	90	100	651	4.5	8	662.940	1	736175.465692	0	
50	0	671.518	0	4	-30	100	901	9.0	3	672.447	0	736175.465803	0	
51	0	683.265	0	2	-90	100	751	0.0	2	683.974	1	736175.465938	0	
52	0	701.726	0	3	-60	100	901	9.0	2	702.666	0	736175.466153	0	
53	0	711.851	0	6	30	100	551	0.0	6	712.801	1	736175.466270	0	
54	0	721.664	0	4	-30	100	1001	9.0	3	722.406	0	736175.466382	0	
55	0	734.047	0	2	-90	100	651	0.0	2	734.916	1	736175.466526	0	
56	0	748.640	0	7	60	100	851	9.0	8	749.356	0	736175.466695	0	
57	0	757.703	0	4	-30	100	501	4.5	3	758.944	0	736175.466805	0	
58	0	769.669	0	6	30	100	951	0.0	5	770.713	0	736175.466940	0	
59	0	778.170	0	5	0	100	801	4.5	5	779.234	1	736175.467040	0	
60	0	790.045	0	6	30	100	701	9.0	8	790.875	0	736175.467174	0	
61	0	801.244	0	3	-60	100	701	0.0	2	802.032	0	736175.467304	0	
62	0	815.634	0	8	90	100	851	4.5	8	816.445	1	736175.467471	0	
63	0	822.630	0	7	60	100	651	4.5	7	823.552	1	736175.467552	0	
64	0	831.431	0	4	-30	100	551	0.0	4	832.462	1	736175.467655	0	
65	0	836.360	0	8	90	100	751	4.5	8	837.250	1	736175.467711	0	
66	0	845.711	0	2	-90	100	901	0.0	2	846.480	1	736175.467818	0	
67	0	861.823	0	7	60	100	1001	0.0	7	862.695	1	736175.468005	0	
68	0	870.139	0	5	0	100	951	4.5	7	870.940	0	736175.468101	0	
69	0	885.308	0	2	-90	100	601	0.0	2	886.054	1	736175.468277	0	
70	0	895.660	0	3	-60	100	501	9.0	2	896.859	0	736175.468401	0	
71	0	911.006	0	7	60	100	951	0.0	7	911.914	1	736175.468574	0	
72	0	918.957	0	7	60	100	701	9.0	7	919.694	1	736175.468666	0	
73	0	928.779	0	5	0	100	501	0.0	5	929.946	1	736175.468784	0	
74	0	939.209	0	6	30	100	551	4.5	6	940.097	1	736175.468900	0	
75	0	947.810	0	5	0	100	851	0.0	6	948.622	0	736175.468999	0	
76	0	956.857	0	3	-60	100	751	9.0	2	957.596	0	736175.469104	0	
77	0	972.957	0	2	-90	100	651	0.0	2	973.849	1	736175.469292	0	
78	0	988.746	0	8	90	100	901	4.5	8	989.688	1	736175.469475	0	
79	0	997.158	0	8	90	100	601	4.5	8	997.882	1	736175.469571	0	
80	0	1004.944	0	4	-30	100	801	0.0	3	1005.768	0	736175.469660	0	
81	0	1014.030	0	3	-60	100	551	4.5	2	1014.741	0	736175.469766	0	
82	0	1025.802	0	4	-30	100	951	0.0	4	1026.876	1	736175.469905	0	
83	0	1034.664	0	2	-90	100	901	0.0	2	1035.511	1	736175.470005	0	
84	0	1044.591	0	6	30	100	651	4.5	6	1045.699	1	736175.470122	0	
85	0	1055.400	0	8	90	100	701	9.0	8	1056.252	1	736175.470245	0	
86	0	1062.428	0	5	0	100	801	4.5	6	1063.313	0	736175.470326	0	
87	0	1069.580	0	5	0	100	751	0.0	3	1070.373	0	736175.470409	0	
88	0	1078.805	0	3	-60	100	851	9.0	2	1079.513	0	736175.470517	0	
89	0	1093.458	0	4	-30	100	1001	0.0	3	1094.290	0	736175.470686	0	
90	0	1105.348	0	7	60	100	501	4.5	6	1106.678	0	736175.470829	0	
91	0	1112.913	0	6	30	100	851	4.5	6	1113.866	1	736175.470912	0	
92	0	1121.817	0	6	30	100	901	0.0	6	1122.757	1	736175.471015	0	
93	0	1131.869	0	4	-30	100	801	9.0	3	1132.715	0	736175.471131	0	
94	0	1140.932	0	7	60	100	501	0.0	7	1141.950	1	736175.471237	0	
95	0	1149.331	0	3	-60	100	1001	0.0	3	1150.229	1	736175.471333	0	
96	0	1156.983	0	2	-90	100	651	9.0	2	1158.165	1	736175.471425	0	
97	0	1164.053	0	2	-90	100	701	4.5	3	1164.873	0	736175.471503	0	
98	0	1172.817	0	8	90	100	951	0.0	8	1173.760	1	736175.471605	0	
99	0	1179.300	0	8	90	100	601	4.5	8	1180.628	1	736175.471685	0	
100	0	1187.083	0	3	-60	100	551	0.0	3	1187.804	1	736175.471768	0	
101	0	1194.875	0	5	0	100	901	0.0	7	1195.600	0	736175.471859	0	
102	0	1207.271	0	7	60	100	601	4.5	8	1208.037	0	736175.472002	0	
103	0	1225.476	0	3	-60	100	951	0.0	3	1226.295	1	736175.472213	0	
104	0	1232.633	0	4	-30	100	651	4.5	3	1233.567	0	736175.472297	0	
105	0	1243.175	0	2	-90	100	751	4.5	3	1244.177	0	736175.472420	0	
106	0	1253.569	0	6	30	100	501	0.0	7	1254.569	0	736175.472540	0	
107	0	1268.917	0	7	60	100	1001	9.0	8	1270.040	0	736175.472720	0	
108	0	1303.328	0	8	90	100	851	4.5	8	1304.098	1	736175.473115	0	
109	0	1311.747	0	4	-30	100	551	9.0	5	1312.718	0	736175.473214	0	
110	0	1332.069	0	6	30	100	801	0.0	7	1333.005	0	736175.473449	0	
111	0	1351.388	0	2	-90	100	801	0.0	2	1352.458	1	736175.473674	0	
112	0	1365.088	0	5	0	100	701	4.5	6	1366.093	0	736175.473831	0	
113	0	1372.691	0	2	-90	100	651	4.5	3	1374.165	0	736175.473925	0	
114	0	1651.089	0	3	-60	100	1001	9.0	-1	-1.000	0	736175.477303	0	
