Trial	CorrectionTrial?	StartTime	CenterReward?	SpkrIdx	SpkrPos	duration	HoldTime	Atten	Response	RespTime	Correct	ComputerTime	SoundOrLED	
1	0	4.090	0	4	-30	100	801	9.0	2	5.351	0	736176.445931	0	
2	0	29.725	0	5	0	100	701	4.5	6	30.828	0	736176.446227	0	
3	0	40.587	0	4	-30	100	601	9.0	4	42.004	1	736176.446356	0	
4	0	54.528	0	5	0	100	551	4.5	2	55.919	0	736176.446517	0	
5	0	67.651	0	7	60	100	751	9.0	8	68.867	0	736176.446666	0	
6	0	86.762	0	8	90	100	501	0.0	7	87.753	0	736176.446885	0	
7	0	112.258	0	2	-90	100	951	9.0	2	112.998	1	736176.447178	0	
8	0	148.398	0	6	30	100	1001	0.0	6	149.265	1	736176.447597	0	
9	0	156.252	0	3	-60	100	901	0.0	2	156.912	0	736176.447688	0	
10	0	165.035	0	8	90	100	651	4.5	7	166.282	0	736176.447794	0	
11	0	194.120	0	6	30	100	601	4.5	6	195.056	1	736176.448127	0	
12	0	216.087	0	7	60	100	901	0.0	7	217.461	1	736176.448386	0	
13	0	224.824	0	2	-90	100	951	4.5	2	225.545	1	736176.448482	0	
14	0	235.843	0	3	-60	100	851	9.0	5	236.952	0	736176.448612	0	
15	0	244.931	0	7	60	100	501	4.5	6	245.816	0	736176.448714	0	
16	0	254.012	0	5	0	100	701	0.0	5	254.851	1	736176.448819	0	
17	0	263.533	0	6	30	100	551	0.0	6	264.317	1	736176.448928	0	
18	0	274.588	0	2	-90	100	651	4.5	3	275.520	0	736176.449058	0	
19	0	291.202	0	3	-60	100	751	4.5	6	292.262	0	736176.449252	0	
20	0	298.418	0	2	-90	100	801	9.0	2	299.156	1	736176.449334	0	
21	0	309.873	0	8	90	100	751	0.0	7	310.930	0	736176.449469	0	
22	0	326.163	0	7	60	100	951	4.5	6	327.053	0	736176.449655	0	
23	0	354.464	0	6	30	100	901	0.0	6	355.261	1	736176.449981	0	
24	0	366.642	0	8	90	100	851	4.5	8	367.280	1	736176.450123	0	
25	0	374.608	0	4	-30	100	701	9.0	4	375.662	1	736176.450217	0	
26	0	382.934	0	4	-30	100	651	4.5	2	383.646	0	736176.450311	0	
27	0	410.437	0	5	0	100	601	4.5	6	411.270	0	736176.450629	0	
28	0	421.655	0	3	-60	100	1001	0.0	3	422.671	1	736176.450761	0	
29	0	439.035	0	8	90	100	801	0.0	8	439.757	1	736176.450961	0	
30	0	447.739	0	4	-30	100	551	4.5	3	448.627	0	736176.451061	0	
31	0	458.128	0	2	-90	100	901	4.5	2	458.756	1	736176.451182	0	
32	0	470.084	0	5	0	100	701	0.0	5	471.167	1	736176.451323	0	
33	0	480.869	0	2	-90	100	751	9.0	2	481.565	1	736176.451445	0	
34	0	494.585	0	6	30	100	851	0.0	2	495.864	0	736176.451608	0	
35	0	504.998	0	8	90	100	501	4.5	8	505.787	1	736176.451723	0	
36	0	513.293	0	5	0	100	651	9.0	4	514.537	0	736176.451825	0	
37	0	522.121	0	7	60	100	601	0.0	7	522.987	1	736176.451922	0	
38	0	529.274	0	6	30	100	951	9.0	8	529.983	0	736176.452005	0	
39	0	541.969	0	3	-60	100	551	0.0	2	542.709	0	736176.452151	0	
40	0	562.229	0	4	-30	100	1001	4.5	2	562.954	0	736176.452386	0	
41	0	573.863	0	7	60	100	751	4.5	7	574.768	1	736176.452521	0	
42	0	582.318	0	3	-60	100	851	9.0	3	583.091	1	736176.452618	0	
43	0	589.046	0	7	60	100	501	4.5	6	589.978	0	736176.452698	0	
44	0	599.937	0	5	0	100	901	9.0	5	600.762	1	736176.452823	0	
45	0	607.303	0	3	-60	100	701	4.5	3	607.992	1	736176.452907	0	
46	0	615.797	0	4	-30	100	551	9.0	4	616.445	1	736176.453006	0	
47	0	620.815	0	6	30	100	601	9.0	5	621.675	0	736176.453065	0	
48	0	630.493	0	7	60	100	651	0.0	6	631.384	0	736176.453177	0	
49	0	646.498	0	2	-90	100	951	0.0	3	647.322	0	736176.453361	0	
50	0	655.692	0	2	-90	100	801	4.5	3	656.417	0	736176.453468	0	
51	0	664.639	0	8	90	100	651	4.5	8	665.412	1	736176.453572	0	
52	0	672.424	0	5	0	100	601	9.0	5	673.211	1	736176.453662	0	
53	0	687.302	0	3	-60	100	551	4.5	4	688.012	0	736176.453834	0	
54	0	699.852	1	4	-30	100	1001	0.0	4	700.576	1	736176.453979	0	
55	0	707.102	0	6	30	100	751	0.0	2	709.296	0	736176.454078	0	
56	0	717.385	0	8	90	100	501	9.0	8	718.501	1	736176.454185	0	
57	0	725.800	0	6	30	100	851	9.0	6	726.715	1	736176.454280	0	
58	0	734.247	0	5	0	100	951	0.0	5	735.050	1	736176.454377	0	
59	0	745.666	0	4	-30	100	901	4.5	3	746.315	0	736176.454510	0	
60	0	755.344	0	5	0	100	701	9.0	6	756.089	0	736176.454622	0	
61	0	778.426	0	8	90	100	1001	0.0	8	780.227	1	736176.454900	0	
62	0	788.217	0	3	-60	100	801	9.0	5	789.145	0	736176.455003	0	
63	0	795.805	0	3	-60	100	701	0.0	4	796.698	0	736176.455090	0	
64	0	806.160	0	7	60	100	501	9.0	7	806.984	1	736176.455209	0	
65	0	812.854	0	8	90	100	951	9.0	8	813.493	1	736176.455287	0	
66	0	821.399	0	7	60	100	601	0.0	7	822.219	1	736176.455385	0	
67	0	827.573	1	2	-90	100	851	9.0	2	828.279	1	736176.455457	0	
68	0	840.130	0	6	30	100	901	0.0	6	843.160	1	736176.455627	0	
69	0	852.619	0	4	-30	100	751	9.0	4	853.355	1	736176.455748	0	
70	0	860.935	0	2	-90	100	551	4.5	5	861.853	0	736176.455844	0	
71	0	871.106	0	8	90	100	801	0.0	8	871.904	1	736176.455961	0	
72	0	878.944	0	6	30	100	601	9.0	7	879.816	0	736176.456052	0	
73	0	889.569	1	7	60	100	851	4.5	8	890.243	0	736176.456175	0	
74	0	899.448	0	3	-60	100	951	9.0	4	899.986	0	736176.456289	0	
75	0	915.069	0	2	-90	100	1001	0.0	2	915.815	1	736176.456470	0	
76	0	925.284	0	6	30	100	751	4.5	6	926.344	1	736176.456591	0	
77	0	934.645	0	3	-60	100	701	9.0	5	935.617	0	736176.456698	0	
78	0	945.311	0	2	-90	100	551	0.0	3	946.008	0	736176.456819	0	
79	0	957.633	0	4	-30	100	501	0.0	5	958.689	0	736176.456965	0	
80	0	972.563	0	8	90	100	651	9.0	8	973.790	1	736176.457140	0	
81	0	979.936	0	4	-30	100	501	9.0	3	980.776	0	736176.457221	0	
82	0	990.167	0	5	0	100	601	4.5	5	990.994	1	736176.457339	0	
83	0	1000.022	0	5	0	100	901	4.5	6	1000.827	0	736176.457453	0	
84	0	1008.809	0	7	60	100	801	0.0	7	1009.665	1	736176.457555	0	
85	0	1016.610	0	8	90	100	851	9.0	8	1018.098	1	736176.457652	0	
86	0	1025.727	0	6	30	100	651	0.0	6	1026.659	1	736176.457752	0	
87	0	1034.372	1	2	-90	100	551	9.0	5	1035.400	0	736176.457852	0	
88	0	1041.454	0	5	0	100	1001	4.5	5	1042.995	1	736176.457941	0	
89	0	1050.819	0	5	0	100	751	0.0	6	1051.568	0	736176.458042	0	
90	0	1061.044	0	4	-30	100	701	4.5	5	1061.866	0	736176.458160	0	
91	0	1075.061	0	8	90	100	601	9.0	8	1076.406	1	736176.458327	0	
92	0	1083.553	0	7	60	100	551	4.5	8	1085.757	0	736176.458436	0	
93	0	1101.361	0	7	60	100	1001	0.0	7	1102.094	1	736176.458626	0	
94	0	1107.277	0	2	-90	100	651	9.0	2	1108.152	1	736176.458695	0	
95	0	1131.760	0	4	-30	100	501	9.0	5	1132.596	0	736176.458978	0	
96	0	1138.630	0	6	30	100	851	0.0	6	1139.473	1	736176.459057	0	
97	0	1147.346	0	3	-60	100	801	4.5	3	1148.144	1	736176.459158	0	
98	0	1156.614	1	3	-60	100	901	0.0	4	1157.852	0	736176.459271	0	
99	0	1172.099	0	7	60	100	701	9.0	7	1173.107	1	736176.459446	0	
100	0	1179.623	0	5	0	100	951	4.5	5	1180.410	1	736176.459532	0	
101	0	1187.626	0	2	-90	100	901	0.0	2	1188.378	1	736176.459624	0	
102	0	1198.316	0	6	30	100	851	4.5	6	1199.288	1	736176.459750	0	
103	0	1212.109	0	6	30	100	1001	0.0	6	1213.106	1	736176.459910	0	
104	0	1221.555	0	3	-60	100	701	4.5	4	1222.617	0	736176.460020	0	
105	0	1229.750	0	7	60	100	501	4.5	8	1231.195	0	736176.460119	0	
106	0	1241.875	0	3	-60	100	651	9.0	3	1242.683	1	736176.460252	0	
107	0	1248.201	0	4	-30	100	551	9.0	5	1249.086	0	736176.460326	0	
108	0	1258.096	0	2	-90	100	801	0.0	2	1258.736	1	736176.460440	0	
109	0	1266.969	0	8	90	100	601	9.0	8	1267.918	1	736176.460543	0	
110	0	1274.344	1	4	-30	100	751	4.5	5	1275.125	0	736176.460628	0	
111	0	1281.315	0	8	90	100	751	4.5	7	1282.752	0	736176.460716	0	
112	0	1300.645	0	5	0	100	851	9.0	8	1301.629	0	736176.460935	0	
