Trial	CorrectionTrial?	StartTime	CenterReward?	SpkrIdx	SpkrPos	duration	HoldTime	Atten	Response	RespTime	Correct	ComputerTime	SoundOrLED	
1	0	99.509	0	8	90	250	901	0.0	8	100.533	1	736120.376432	1	
2	0	129.631	0	7	60	250	1001	9.0	8	131.634	0	736120.376792	0	
3	0	158.643	0	5	0	250	951	0.0	8	160.088	0	736120.377121	1	
4	0	170.029	0	4	-30	250	651	9.0	5	173.642	0	736120.377278	1	
5	0	179.721	0	6	30	250	751	0.0	7	180.878	0	736120.377361	0	
6	0	187.784	0	7	60	250	551	9.0	7	189.304	1	736120.377460	0	
7	0	195.575	0	7	60	250	701	9.0	8	196.481	0	736120.377542	1	
8	0	212.474	0	3	-60	250	501	4.5	2	214.707	0	736120.377754	0	
9	0	226.049	0	4	-30	250	601	9.0	3	227.446	0	736120.377901	1	
10	0	247.557	0	4	-30	250	851	0.0	4	248.518	1	736120.378145	0	
11	0	251.125	0	3	-60	250	701	4.5	2	252.040	0	736120.378186	1	
12	0	280.237	0	5	0	250	851	0.0	6	281.599	0	736120.378528	0	
13	0	297.300	0	8	90	250	801	9.0	8	298.313	1	736120.378721	0	
14	0	307.790	0	2	-90	250	1001	0.0	2	308.683	1	736120.378841	1	
15	0	315.018	0	7	60	250	651	0.0	2	316.304	0	736120.378930	1	
16	0	335.196	0	6	30	250	901	4.5	8	336.357	0	736120.379161	1	
17	0	352.183	0	8	90	250	601	4.5	8	353.338	1	736120.379358	0	
18	0	369.962	0	5	0	250	551	0.0	7	371.579	0	736120.379569	0	
19	0	386.123	0	8	90	250	751	9.0	8	387.134	1	736120.379749	1	
20	0	402.225	0	2	-90	250	951	4.5	2	402.934	1	736120.379933	0	
21	0	416.047	0	6	30	250	951	4.5	2	417.288	0	736120.380098	0	
22	0	435.216	0	2	-90	250	501	9.0	2	436.371	1	736120.380319	1	
23	0	444.277	0	5	0	250	651	9.0	4	446.259	0	736120.380433	1	
24	0	459.753	0	3	-60	250	851	0.0	3	460.927	1	736120.380603	1	
25	0	469.463	1	3	-60	250	601	4.5	3	470.375	1	736120.380712	0	
26	0	478.051	0	4	-30	250	1001	0.0	3	481.103	0	736120.380837	0	
27	0	490.179	0	2	-90	250	901	4.5	2	491.657	1	736120.380959	0	
28	0	494.479	0	6	30	250	701	9.0	2	495.038	0	736120.381001	1	
29	0	511.571	0	4	-30	250	751	9.0	4	513.395	1	736120.381210	0	
30	0	524.187	0	7	60	250	551	4.5	8	525.249	0	736120.381348	0	
31	0	549.960	0	5	0	250	851	9.0	7	551.126	0	736120.381647	1	
32	0	560.079	0	2	-90	250	601	0.0	2	561.403	1	736120.381765	1	
33	0	572.256	0	3	-60	250	501	9.0	2	573.625	0	736120.381908	0	
34	0	585.909	0	8	90	250	1001	4.5	8	586.877	1	736120.382060	0	
35	0	601.690	0	4	-30	250	701	4.5	4	602.627	1	736120.382243	0	
36	0	606.403	0	6	30	250	951	9.0	2	607.386	0	736120.382299	1	
37	0	624.053	0	7	60	250	901	9.0	8	624.852	0	736120.382501	1	
38	0	639.545	0	6	30	250	651	0.0	6	640.884	1	736120.382685	1	
39	0	643.712	0	7	60	250	751	0.0	7	644.895	1	736120.382733	1	
40	0	655.505	0	6	30	250	551	4.5	7	656.531	0	736120.382867	0	
41	0	670.433	0	8	90	250	951	4.5	8	671.364	1	736120.383039	1	
42	0	681.457	0	3	-60	250	601	0.0	3	682.518	1	736120.383168	1	
43	0	698.353	0	3	-60	250	1001	4.5	3	699.334	1	736120.383363	1	
44	0	713.394	0	8	90	250	801	0.0	8	714.319	1	736120.383536	0	
45	0	725.935	1	2	-90	250	651	0.0	2	726.723	1	736120.383681	0	
46	0	752.591	0	5	0	250	901	9.0	2	754.130	0	736120.383997	1	
47	0	764.945	0	4	-30	250	501	9.0	4	765.965	1	736120.384133	1	
48	0	775.785	0	8	90	250	751	4.5	8	776.688	1	736120.384257	1	
49	0	787.998	0	3	-60	250	701	4.5	4	789.106	0	736120.384401	0	
50	0	795.538	0	2	-90	250	551	9.0	2	796.425	1	736120.384486	0	
51	0	806.569	0	7	60	250	701	4.5	7	807.481	1	736120.384614	0	
52	0	816.267	0	6	30	250	651	9.0	7	817.384	0	736120.384729	0	
53	0	826.044	0	2	-90	250	751	9.0	2	826.888	1	736120.384839	1	
54	0	836.101	0	4	-30	250	1001	4.5	3	837.146	0	736120.384957	1	
55	0	846.581	0	5	0	250	601	9.0	7	847.558	0	736120.385078	0	
56	0	855.626	0	5	0	250	801	4.5	4	856.867	0	736120.385185	0	
57	0	865.144	0	4	-30	250	551	4.5	4	866.285	1	736120.385295	0	
58	0	874.200	0	2	-90	250	501	0.0	2	875.032	1	736120.385395	0	
59	0	891.872	0	4	-30	250	951	4.5	2	892.437	0	736120.385600	1	
60	0	904.624	0	6	30	250	901	0.0	7	905.597	0	736120.385750	1	
61	0	918.550	0	7	60	250	901	9.0	7	919.600	1	736120.385912	0	
62	0	928.635	0	3	-60	250	801	0.0	2	929.633	0	736120.386028	1	
63	0	950.253	0	2	-90	250	701	0.0	8	951.548	0	736120.386282	1	
64	0	968.658	1	8	90	250	651	4.5	8	969.562	1	736120.386490	1	
65	0	978.253	0	6	30	250	1001	4.5	7	982.067	0	736120.386635	1	
66	0	998.003	0	2	-90	250	851	0.0	2	998.950	1	736120.386830	1	
67	0	1016.700	0	4	-30	250	501	0.0	2	1018.135	0	736120.387052	1	
68	0	1032.331	0	3	-60	250	551	9.0	3	1033.526	1	736120.387230	1	
69	0	1041.848	0	5	0	250	751	9.0	6	1043.070	0	736120.387341	0	
70	0	1054.265	0	2	-90	250	951	0.0	2	1055.085	1	736120.387480	0	
71	0	1072.548	0	3	-60	250	501	9.0	3	1073.490	1	736120.387693	0	
72	0	1080.115	0	7	60	250	1001	0.0	2	1080.828	0	736120.387780	1	
73	0	1118.788	0	6	30	250	901	4.5	8	1119.593	0	736120.388226	0	
74	0	1215.305	0	7	60	250	951	9.0	7	1216.831	1	736120.389352	0	
75	0	1225.431	1	8	90	250	701	4.5	8	1226.769	1	736120.389467	1	
76	0	1234.318	0	4	-30	250	851	0.0	8	1237.605	0	736120.389592	0	
77	0	1248.246	0	5	0	250	751	0.0	5	1249.710	1	736120.389733	0	
78	0	1252.991	0	8	90	250	651	9.0	8	1253.962	1	736120.389782	0	
79	0	1260.880	0	8	90	250	801	4.5	8	1261.811	1	736120.389873	0	
80	0	1269.841	0	5	0	250	601	0.0	8	1270.806	0	736120.389976	1	
81	0	1284.668	0	6	30	250	651	4.5	8	1285.541	0	736120.390147	0	
82	0	1306.275	0	5	0	250	901	0.0	6	1307.579	0	736120.390402	1	
83	0	1319.197	0	3	-60	250	601	9.0	4	1320.503	0	736120.390551	0	
84	0	1328.951	0	7	60	250	701	0.0	7	1330.622	1	736120.390669	1	
85	0	1340.176	0	5	0	250	751	4.5	7	1341.059	0	736120.390789	0	
86	0	1356.876	0	8	90	250	951	0.0	8	1357.857	1	736120.390984	1	
87	0	1364.156	0	8	90	250	551	9.0	8	1364.875	1	736120.391066	0	
88	0	1373.592	0	4	-30	250	1001	4.5	3	1374.480	0	736120.391176	1	
89	0	1383.543	0	4	-30	250	501	0.0	4	1384.509	1	736120.391292	0	
90	0	1392.467	0	3	-60	250	851	4.5	2	1393.434	0	736120.391396	0	
