Trial,CorrectionTrial,StartTime,CenterReward,SpkrIdx,SpkrPos,duration,HoldTime,Atten,Response,RespTime,Correct,ComputerTime,Modality,Condition,SessionDate,originalFile,LeftTemperature,RightTemperature,fNum,ResponseAngle,Spkr_Rad,spkr_hemifield,resp_hemifield,LatCorrect,Error
51,0,1708.214,0,8,-90,100,951,0.0,8,1709.631,1,736179.685623,Aud,Bilateral,2015-08-03 15:58:00,3_8_2015 level5_100_cooling 15_58 log,8.0,8.0,1311,-90,-1.5707963267948966,L,L,1,0
47,0,1210.833,1,8,-90,250,951,0.0,8,1212.694,1,736134.70476,Aud,Bilateral,2015-06-19 16:34:00,19_6_2015 level5_250_cooling 16_34 log,8.0,8.0,1311,-90,-1.5707963267948966,L,L,1,0
51,0,1708.214,0,8,-90,100,951,0.0,8,1709.631,1,736179.685623,Aud,Bilateral,2015-08-03 15:58:00,3_8_2015 level5_100_cooling 15_58 log,8.0,8.0,1311,-90,-1.5707963267948966,L,L,1,0
47,0,1210.833,1,8,-90,250,951,0.0,8,1212.694,1,736134.70476,Aud,Bilateral,2015-06-19 16:34:00,19_6_2015 level5_250_cooling 16_34 log,8.0,8.0,1311,-90,-1.5707963267948966,L,L,1,0
47,0,1210.833,1,8,-90,250,951,0.0,8,1212.694,1,736134.70476,Aud,Bilateral,2015-06-19 16:34:00,19_6_2015 level5_250_cooling 16_34 log,8.0,8.0,1311,-90,-1.5707963267948966,L,L,1,0
79,0,2013.449,0,8,-90,100,601,0.0,8,2014.288,1,736179.689149,Aud,Bilateral,2015-08-03 15:58:00,3_8_2015 level5_100_cooling 15_58 log,8.0,8.0,1311,-90,-1.5707963267948966,L,L,1,0
51,0,1708.214,0,8,-90,100,951,0.0,8,1709.631,1,736179.685623,Aud,Bilateral,2015-08-03 15:58:00,3_8_2015 level5_100_cooling 15_58 log,8.0,8.0,1311,-90,-1.5707963267948966,L,L,1,0
113,0,2404.366,1,8,-90,100,651,0.0,8,2405.186,1,736179.693673,Aud,Bilateral,2015-08-03 15:58:00,3_8_2015 level5_100_cooling 15_58 log,8.0,8.0,1311,-90,-1.5707963267948966,L,L,1,0
128,0,2419.419,0,8,-90,250,801,0.0,8,2420.205,1,736147.622623,Aud,Bilateral,2015-07-02 14:16:00,2_7_2015 level5_250_cooling 14_16 log,10.0,10.0,1311,-90,-1.5707963267948966,L,L,1,0
14,0,3449.177,0,8,-90,250,501,0.0,8,3450.907,1,736146.685568,Aud,Bilateral,2015-07-01 15:29:00,1_7_2015 level5_250_cooling 15_29 log,10.0,9.0,1311,-90,-1.5707963267948966,L,L,1,0
73,0,1940.287,0,8,-90,100,651,0.0,8,1941.297,1,736179.688304,Aud,Bilateral,2015-08-03 15:58:00,3_8_2015 level5_100_cooling 15_58 log,8.0,8.0,1311,-90,-1.5707963267948966,L,L,1,0
112,0,2396.303,0,8,-90,100,601,0.0,8,2397.83,1,736179.693588,Aud,Bilateral,2015-08-03 15:58:00,3_8_2015 level5_100_cooling 15_58 log,8.0,7.0,1311,-90,-1.5707963267948966,L,L,1,0
51,0,1708.214,0,8,-90,100,951,0.0,8,1709.631,1,736179.685623,Aud,Bilateral,2015-08-03 15:58:00,3_8_2015 level5_100_cooling 15_58 log,8.0,8.0,1311,-90,-1.5707963267948966,L,L,1,0
73,0,1940.287,0,8,-90,100,651,0.0,8,1941.297,1,736179.688304,Aud,Bilateral,2015-08-03 15:58:00,3_8_2015 level5_100_cooling 15_58 log,8.0,8.0,1311,-90,-1.5707963267948966,L,L,1,0
91,0,2160.959,0,8,-90,100,901,0.0,8,2161.856,1,736179.690857,Aud,Bilateral,2015-08-03 15:58:00,3_8_2015 level5_100_cooling 15_58 log,8.0,8.0,1311,-90,-1.5707963267948966,L,L,1,0
2,0,1191.79,0,8,-90,250,901,0.0,8,1192.534,1,736133.712731,Aud,Bilateral,2015-06-18 16:46:00,18_6_2015 level5_250_cooling 16_46 log,10.0,9.0,1311,-90,-1.5707963267948966,L,L,1,0
42,0,1607.33,0,8,-90,100,701,0.0,8,1608.911,1,736179.684456,Aud,Bilateral,2015-08-03 15:58:00,3_8_2015 level5_100_cooling 15_58 log,9.0,8.0,1311,-90,-1.5707963267948966,L,L,1,0
91,0,2160.959,0,8,-90,100,901,0.0,8,2161.856,1,736179.690857,Aud,Bilateral,2015-08-03 15:58:00,3_8_2015 level5_100_cooling 15_58 log,8.0,8.0,1311,-90,-1.5707963267948966,L,L,1,0
136,0,2662.049,0,8,-90,100,901,0.0,8,2662.808,1,736179.696656,Aud,Bilateral,2015-08-03 15:58:00,3_8_2015 level5_100_cooling 15_58 log,9.0,8.0,1311,-90,-1.5707963267948966,L,L,1,0
136,0,2662.049,0,8,-90,100,901,0.0,8,2662.808,1,736179.696656,Aud,Bilateral,2015-08-03 15:58:00,3_8_2015 level5_100_cooling 15_58 log,9.0,8.0,1311,-90,-1.5707963267948966,L,L,1,0
47,0,1210.833,1,8,-90,250,951,0.0,8,1212.694,1,736134.70476,Aud,Bilateral,2015-06-19 16:34:00,19_6_2015 level5_250_cooling 16_34 log,8.0,8.0,1311,-90,-1.5707963267948966,L,L,1,0
128,0,2419.419,0,8,-90,250,801,0.0,8,2420.205,1,736147.622623,Aud,Bilateral,2015-07-02 14:16:00,2_7_2015 level5_250_cooling 14_16 log,10.0,10.0,1311,-90,-1.5707963267948966,L,L,1,0
73,0,1940.287,0,8,-90,100,651,0.0,8,1941.297,1,736179.688304,Aud,Bilateral,2015-08-03 15:58:00,3_8_2015 level5_100_cooling 15_58 log,8.0,8.0,1311,-90,-1.5707963267948966,L,L,1,0
36,0,1554.546,0,8,-90,250,701,4.5,8,1555.254,1,736133.71693,Aud,Bilateral,2015-06-18 16:46:00,18_6_2015 level5_250_cooling 16_46 log,8.0,8.0,1311,-90,-1.5707963267948966,L,L,1,0
99,0,2253.717,0,8,-90,100,801,4.5,8,2254.593,1,736179.69193,Aud,Bilateral,2015-08-03 15:58:00,3_8_2015 level5_100_cooling 15_58 log,8.0,8.0,1311,-90,-1.5707963267948966,L,L,1,0
106,0,1925.285,0,8,-90,250,701,4.5,8,1926.662,1,736134.713024,Aud,Bilateral,2015-06-19 16:34:00,19_6_2015 level5_250_cooling 16_34 log,8.0,8.0,1311,-90,-1.5707963267948966,L,L,1,0
120,0,2492.547,0,8,-90,100,501,4.5,8,2493.286,1,736179.694693,Aud,Bilateral,2015-08-03 15:58:00,3_8_2015 level5_100_cooling 15_58 log,8.0,8.0,1311,-90,-1.5707963267948966,L,L,1,0
11,0,1198.724,0,8,-90,100,501,4.5,8,1199.594,1,736179.679719,Aud,Bilateral,2015-08-03 15:58:00,3_8_2015 level5_100_cooling 15_58 log,8.0,8.0,1311,-90,-1.5707963267948966,L,L,1,0
73,0,1939.284,0,8,-90,250,1001,4.5,8,1940.052,1,736133.721383,Aud,Bilateral,2015-06-18 16:46:00,18_6_2015 level5_250_cooling 16_46 log,8.0,8.0,1311,-90,-1.5707963267948966,L,L,1,0
120,0,2492.547,0,8,-90,100,501,4.5,8,2493.286,1,736179.694693,Aud,Bilateral,2015-08-03 15:58:00,3_8_2015 level5_100_cooling 15_58 log,8.0,8.0,1311,-90,-1.5707963267948966,L,L,1,0
113,0,2265.816,0,8,-90,250,501,4.5,8,2266.605,1,736147.620845,Aud,Bilateral,2015-07-02 14:16:00,2_7_2015 level5_250_cooling 14_16 log,10.0,11.0,1311,-90,-1.5707963267948966,L,L,1,0
99,0,2253.717,0,8,-90,100,801,4.5,8,2254.593,1,736179.69193,Aud,Bilateral,2015-08-03 15:58:00,3_8_2015 level5_100_cooling 15_58 log,8.0,8.0,1311,-90,-1.5707963267948966,L,L,1,0
86,0,2096.895,0,8,-90,100,501,4.5,8,2098.603,1,736179.690125,Aud,Bilateral,2015-08-03 15:58:00,3_8_2015 level5_100_cooling 15_58 log,8.0,8.0,1311,-90,-1.5707963267948966,L,L,1,0
143,0,2732.05,0,8,-90,100,1001,4.5,7,2733.042,0,736179.697467,Aud,Bilateral,2015-08-03 15:58:00,3_8_2015 level5_100_cooling 15_58 log,9.0,8.0,1311,-60,-1.5707963267948966,L,L,1,30
17,0,1260.249,0,8,-90,100,801,4.5,8,1261.03,1,736179.680431,Aud,Bilateral,2015-08-03 15:58:00,3_8_2015 level5_100_cooling 15_58 log,8.0,8.0,1311,-90,-1.5707963267948966,L,L,1,0
36,0,1554.546,0,8,-90,250,701,4.5,8,1555.254,1,736133.71693,Aud,Bilateral,2015-06-18 16:46:00,18_6_2015 level5_250_cooling 16_46 log,8.0,8.0,1311,-90,-1.5707963267948966,L,L,1,0
143,0,2732.05,0,8,-90,100,1001,4.5,7,2733.042,0,736179.697467,Aud,Bilateral,2015-08-03 15:58:00,3_8_2015 level5_100_cooling 15_58 log,9.0,8.0,1311,-60,-1.5707963267948966,L,L,1,30
143,0,2732.05,0,8,-90,100,1001,4.5,7,2733.042,0,736179.697467,Aud,Bilateral,2015-08-03 15:58:00,3_8_2015 level5_100_cooling 15_58 log,9.0,8.0,1311,-60,-1.5707963267948966,L,L,1,30
73,0,1939.284,0,8,-90,250,1001,4.5,8,1940.052,1,736133.721383,Aud,Bilateral,2015-06-18 16:46:00,18_6_2015 level5_250_cooling 16_46 log,8.0,8.0,1311,-90,-1.5707963267948966,L,L,1,0
11,0,1198.724,0,8,-90,100,501,4.5,8,1199.594,1,736179.679719,Aud,Bilateral,2015-08-03 15:58:00,3_8_2015 level5_100_cooling 15_58 log,8.0,8.0,1311,-90,-1.5707963267948966,L,L,1,0
91,0,1783.534,0,8,-90,250,501,4.5,8,1784.426,1,736134.711377,Aud,Bilateral,2015-06-19 16:34:00,19_6_2015 level5_250_cooling 16_34 log,8.0,8.0,1311,-90,-1.5707963267948966,L,L,1,0
86,0,2096.895,0,8,-90,100,501,4.5,8,2098.603,1,736179.690125,Aud,Bilateral,2015-08-03 15:58:00,3_8_2015 level5_100_cooling 15_58 log,8.0,8.0,1311,-90,-1.5707963267948966,L,L,1,0
99,0,2253.717,0,8,-90,100,801,4.5,8,2254.593,1,736179.69193,Aud,Bilateral,2015-08-03 15:58:00,3_8_2015 level5_100_cooling 15_58 log,8.0,8.0,1311,-90,-1.5707963267948966,L,L,1,0
54,0,3878.356,0,8,-90,250,651,4.5,8,3879.155,1,736146.690524,Aud,Bilateral,2015-07-01 15:29:00,1_7_2015 level5_250_cooling 15_29 log,9.0,9.0,1311,-90,-1.5707963267948966,L,L,1,0
36,0,1554.546,0,8,-90,250,701,4.5,8,1555.254,1,736133.71693,Aud,Bilateral,2015-06-18 16:46:00,18_6_2015 level5_250_cooling 16_46 log,8.0,8.0,1311,-90,-1.5707963267948966,L,L,1,0
46,0,1657.021,0,8,-90,100,601,4.5,8,1657.928,1,736179.685024,Aud,Bilateral,2015-08-03 15:58:00,3_8_2015 level5_100_cooling 15_58 log,9.0,8.0,1311,-90,-1.5707963267948966,L,L,1,0
104,0,2176.347,0,8,-90,250,551,9.0,8,2177.05,1,736147.619809,Aud,Bilateral,2015-07-02 14:16:00,2_7_2015 level5_250_cooling 14_16 log,9.0,9.0,1311,-90,-1.5707963267948966,L,L,1,0
62,0,1833.658,0,8,-90,250,551,9.0,8,1834.609,1,736133.720161,Aud,Bilateral,2015-06-18 16:46:00,18_6_2015 level5_250_cooling 16_46 log,8.0,9.0,1311,-90,-1.5707963267948966,L,L,1,0
62,0,1833.658,0,8,-90,250,551,9.0,8,1834.609,1,736133.720161,Aud,Bilateral,2015-06-18 16:46:00,18_6_2015 level5_250_cooling 16_46 log,8.0,9.0,1311,-90,-1.5707963267948966,L,L,1,0
23,0,3559.217,0,8,-90,250,601,9.0,8,3560.718,1,736146.686839,Aud,Bilateral,2015-07-01 15:29:00,1_7_2015 level5_250_cooling 15_29 log,10.0,9.0,1311,-90,-1.5707963267948966,L,L,1,0
131,0,2606.583,0,8,-90,100,651,9.0,8,2607.577,1,736179.696015,Aud,Bilateral,2015-08-03 15:58:00,3_8_2015 level5_100_cooling 15_58 log,9.0,8.0,1311,-90,-1.5707963267948966,L,L,1,0
6,0,755.631,0,8,-90,250,751,9.0,8,756.478,1,736134.69948,Aud,Bilateral,2015-06-19 16:34:00,19_6_2015 level5_250_cooling 16_34 log,8.0,8.0,1311,-90,-1.5707963267948966,L,L,1,0
131,0,2606.583,0,8,-90,100,651,9.0,8,2607.577,1,736179.696015,Aud,Bilateral,2015-08-03 15:58:00,3_8_2015 level5_100_cooling 15_58 log,9.0,8.0,1311,-90,-1.5707963267948966,L,L,1,0
15,0,1238.77,0,8,-90,100,551,9.0,8,1239.644,1,736179.680183,Aud,Bilateral,2015-08-03 15:58:00,3_8_2015 level5_100_cooling 15_58 log,8.0,8.0,1311,-90,-1.5707963267948966,L,L,1,0
6,0,755.631,0,8,-90,250,751,9.0,8,756.478,1,736134.69948,Aud,Bilateral,2015-06-19 16:34:00,19_6_2015 level5_250_cooling 16_34 log,8.0,8.0,1311,-90,-1.5707963267948966,L,L,1,0
101,0,4335.102,0,8,-90,250,851,9.0,8,4335.939,1,736146.695812,Aud,Bilateral,2015-07-01 15:29:00,1_7_2015 level5_250_cooling 15_29 log,9.0,9.0,1311,-90,-1.5707963267948966,L,L,1,0
64,0,1534.228,0,8,-90,250,801,9.0,8,1535.009,1,736134.708491,Aud,Bilateral,2015-06-19 16:34:00,19_6_2015 level5_250_cooling 16_34 log,9.0,9.0,1311,-90,-1.5707963267948966,L,L,1,0
15,0,1238.77,0,8,-90,100,551,9.0,8,1239.644,1,736179.680183,Aud,Bilateral,2015-08-03 15:58:00,3_8_2015 level5_100_cooling 15_58 log,8.0,8.0,1311,-90,-1.5707963267948966,L,L,1,0
64,0,1534.228,0,8,-90,250,801,9.0,8,1535.009,1,736134.708491,Aud,Bilateral,2015-06-19 16:34:00,19_6_2015 level5_250_cooling 16_34 log,9.0,9.0,1311,-90,-1.5707963267948966,L,L,1,0
104,0,2176.347,0,8,-90,250,551,9.0,8,2177.05,1,736147.619809,Aud,Bilateral,2015-07-02 14:16:00,2_7_2015 level5_250_cooling 14_16 log,9.0,9.0,1311,-90,-1.5707963267948966,L,L,1,0
101,0,4335.102,0,8,-90,250,851,9.0,8,4335.939,1,736146.695812,Aud,Bilateral,2015-07-01 15:29:00,1_7_2015 level5_250_cooling 15_29 log,9.0,9.0,1311,-90,-1.5707963267948966,L,L,1,0
6,0,755.631,0,8,-90,250,751,9.0,8,756.478,1,736134.69948,Aud,Bilateral,2015-06-19 16:34:00,19_6_2015 level5_250_cooling 16_34 log,8.0,8.0,1311,-90,-1.5707963267948966,L,L,1,0
62,0,1833.658,0,8,-90,250,551,9.0,8,1834.609,1,736133.720161,Aud,Bilateral,2015-06-18 16:46:00,18_6_2015 level5_250_cooling 16_46 log,8.0,9.0,1311,-90,-1.5707963267948966,L,L,1,0
6,0,755.631,0,8,-90,250,751,9.0,8,756.478,1,736134.69948,Aud,Bilateral,2015-06-19 16:34:00,19_6_2015 level5_250_cooling 16_34 log,8.0,8.0,1311,-90,-1.5707963267948966,L,L,1,0
62,0,1833.658,0,8,-90,250,551,9.0,8,1834.609,1,736133.720161,Aud,Bilateral,2015-06-18 16:46:00,18_6_2015 level5_250_cooling 16_46 log,8.0,9.0,1311,-90,-1.5707963267948966,L,L,1,0
15,0,1238.77,0,8,-90,100,551,9.0,8,1239.644,1,736179.680183,Aud,Bilateral,2015-08-03 15:58:00,3_8_2015 level5_100_cooling 15_58 log,8.0,8.0,1311,-90,-1.5707963267948966,L,L,1,0
15,0,1238.77,0,8,-90,100,551,9.0,8,1239.644,1,736179.680183,Aud,Bilateral,2015-08-03 15:58:00,3_8_2015 level5_100_cooling 15_58 log,8.0,8.0,1311,-90,-1.5707963267948966,L,L,1,0
23,0,3559.217,0,8,-90,250,601,9.0,8,3560.718,1,736146.686839,Aud,Bilateral,2015-07-01 15:29:00,1_7_2015 level5_250_cooling 15_29 log,10.0,9.0,1311,-90,-1.5707963267948966,L,L,1,0
104,0,2176.347,0,8,-90,250,551,9.0,8,2177.05,1,736147.619809,Aud,Bilateral,2015-07-02 14:16:00,2_7_2015 level5_250_cooling 14_16 log,9.0,9.0,1311,-90,-1.5707963267948966,L,L,1,0
47,0,1669.966,0,7,-60,100,851,0.0,7,1671.132,1,736179.685177,Aud,Bilateral,2015-08-03 15:58:00,3_8_2015 level5_100_cooling 15_58 log,8.0,8.0,1311,-60,-1.0471975511965976,L,L,1,0
70,0,1909.43,0,7,-60,100,1001,0.0,8,1912.144,0,736179.687966,Aud,Bilateral,2015-08-03 15:58:00,3_8_2015 level5_100_cooling 15_58 log,8.0,8.0,1311,-90,-1.0471975511965976,L,L,1,30
65,0,1551.78,0,7,-60,250,601,0.0,8,1552.596,0,736134.708695,Aud,Bilateral,2015-06-19 16:34:00,19_6_2015 level5_250_cooling 16_34 log,9.0,9.0,1311,-90,-1.0471975511965976,L,L,1,30
43,0,1617.366,0,7,-60,100,951,0.0,8,1618.179,0,736179.684564,Aud,Bilateral,2015-08-03 15:58:00,3_8_2015 level5_100_cooling 15_58 log,9.0,8.0,1311,-90,-1.0471975511965976,L,L,1,30
90,0,2147.36,0,7,-60,100,551,0.0,6,2148.728,0,736179.690705,Aud,Bilateral,2015-08-03 15:58:00,3_8_2015 level5_100_cooling 15_58 log,8.0,8.0,1311,-30,-1.0471975511965976,L,L,1,30
3,0,1080.328,0,7,-60,100,701,0.0,8,1081.674,0,736179.678354,Aud,Bilateral,2015-08-03 15:58:00,3_8_2015 level5_100_cooling 15_58 log,11.0,11.0,1311,-90,-1.0471975511965976,L,L,1,30
98,0,2245.338,0,7,-60,100,501,0.0,7,2246.836,1,736179.69184,Aud,Bilateral,2015-08-03 15:58:00,3_8_2015 level5_100_cooling 15_58 log,8.0,8.0,1311,-60,-1.0471975511965976,L,L,1,0
43,0,1617.366,0,7,-60,100,951,0.0,8,1618.179,0,736179.684564,Aud,Bilateral,2015-08-03 15:58:00,3_8_2015 level5_100_cooling 15_58 log,9.0,8.0,1311,-90,-1.0471975511965976,L,L,1,30
74,0,1627.793,0,7,-60,250,901,0.0,8,1629.587,0,736134.709585,Aud,Bilateral,2015-06-19 16:34:00,19_6_2015 level5_250_cooling 16_34 log,9.0,9.0,1311,-90,-1.0471975511965976,L,L,1,30
78,0,1876.279,0,7,-60,250,701,0.0,8,1876.976,0,736147.616336,Aud,Bilateral,2015-07-02 14:16:00,2_7_2015 level5_250_cooling 14_16 log,10.0,9.0,1311,-90,-1.0471975511965976,L,L,1,30
105,0,2327.502,0,7,-60,100,651,0.0,7,2328.5,1,736179.692786,Aud,Bilateral,2015-08-03 15:58:00,3_8_2015 level5_100_cooling 15_58 log,8.0,8.0,1311,-60,-1.0471975511965976,L,L,1,0
44,0,3779.111,0,7,-60,250,701,0.0,8,3779.771,0,736146.689377,Aud,Bilateral,2015-07-01 15:29:00,1_7_2015 level5_250_cooling 15_29 log,9.0,9.0,1311,-90,-1.0471975511965976,L,L,1,30
6,0,1249.654,0,7,-60,250,951,0.0,8,1250.335,0,736133.713401,Aud,Bilateral,2015-06-18 16:46:00,18_6_2015 level5_250_cooling 16_46 log,9.0,8.0,1311,-90,-1.0471975511965976,L,L,1,30
43,0,1617.366,0,7,-60,100,951,0.0,8,1618.179,0,736179.684564,Aud,Bilateral,2015-08-03 15:58:00,3_8_2015 level5_100_cooling 15_58 log,9.0,8.0,1311,-90,-1.0471975511965976,L,L,1,30
1,0,871.872,0,7,-60,250,851,0.0,8,872.65,0,736147.604713,Aud,Bilateral,2015-07-02 14:16:00,2_7_2015 level5_250_cooling 14_16 log,11.0,11.0,1311,-90,-1.0471975511965976,L,L,1,30
65,0,1551.78,0,7,-60,250,601,0.0,8,1552.596,0,736134.708695,Aud,Bilateral,2015-06-19 16:34:00,19_6_2015 level5_250_cooling 16_34 log,9.0,9.0,1311,-90,-1.0471975511965976,L,L,1,30
81,0,1920.256,0,7,-60,250,901,0.0,8,1921.081,0,736147.616846,Aud,Bilateral,2015-07-02 14:16:00,2_7_2015 level5_250_cooling 14_16 log,9.0,9.0,1311,-90,-1.0471975511965976,L,L,1,30
121,0,2500.647,0,7,-60,100,701,0.0,8,2501.323,0,736179.694788,Aud,Bilateral,2015-08-03 15:58:00,3_8_2015 level5_100_cooling 15_58 log,8.0,8.0,1311,-90,-1.0471975511965976,L,L,1,30
10,0,1186.977,0,7,-60,100,1001,0.0,8,1188.331,0,736179.679589,Aud,Bilateral,2015-08-03 15:58:00,3_8_2015 level5_100_cooling 15_58 log,9.0,9.0,1311,-90,-1.0471975511965976,L,L,1,30
47,0,1669.966,0,7,-60,100,851,0.0,7,1671.132,1,736179.685177,Aud,Bilateral,2015-08-03 15:58:00,3_8_2015 level5_100_cooling 15_58 log,8.0,8.0,1311,-60,-1.0471975511965976,L,L,1,0
68,0,1885.189,0,7,-60,100,851,0.0,8,1886.73,0,736179.687673,Aud,Bilateral,2015-08-03 15:58:00,3_8_2015 level5_100_cooling 15_58 log,8.0,8.0,1311,-90,-1.0471975511965976,L,L,1,30
105,0,2327.502,0,7,-60,100,651,0.0,7,2328.5,1,736179.692786,Aud,Bilateral,2015-08-03 15:58:00,3_8_2015 level5_100_cooling 15_58 log,8.0,8.0,1311,-60,-1.0471975511965976,L,L,1,0
65,0,1551.78,0,7,-60,250,601,0.0,8,1552.596,0,736134.708695,Aud,Bilateral,2015-06-19 16:34:00,19_6_2015 level5_250_cooling 16_34 log,9.0,9.0,1311,-90,-1.0471975511965976,L,L,1,30
86,0,4200.615,0,7,-60,250,951,4.5,7,4201.454,1,736146.694255,Aud,Bilateral,2015-07-01 15:29:00,1_7_2015 level5_250_cooling 15_29 log,9.0,8.0,1311,-60,-1.0471975511965976,L,L,1,0
24,0,1341.305,0,7,-60,100,851,4.5,7,1342.165,1,736179.681369,Aud,Bilateral,2015-08-03 15:58:00,3_8_2015 level5_100_cooling 15_58 log,8.0,8.0,1311,-60,-1.0471975511965976,L,L,1,0
53,0,1499.184,0,7,-60,250,651,4.5,7,1500.397,1,736147.611977,Aud,Bilateral,2015-07-02 14:16:00,2_7_2015 level5_250_cooling 14_16 log,9.0,9.0,1311,-60,-1.0471975511965976,L,L,1,0
86,0,4200.615,0,7,-60,250,951,4.5,7,4201.454,1,736146.694255,Aud,Bilateral,2015-07-01 15:29:00,1_7_2015 level5_250_cooling 15_29 log,9.0,8.0,1311,-60,-1.0471975511965976,L,L,1,0
24,0,1341.305,0,7,-60,100,851,4.5,7,1342.165,1,736179.681369,Aud,Bilateral,2015-08-03 15:58:00,3_8_2015 level5_100_cooling 15_58 log,8.0,8.0,1311,-60,-1.0471975511965976,L,L,1,0
5,0,3341.139,0,7,-60,250,701,4.5,8,3341.885,0,736146.684307,Aud,Bilateral,2015-07-01 15:29:00,1_7_2015 level5_250_cooling 15_29 log,11.0,10.0,1311,-90,-1.0471975511965976,L,L,1,30
53,0,1499.184,0,7,-60,250,651,4.5,7,1500.397,1,736147.611977,Aud,Bilateral,2015-07-02 14:16:00,2_7_2015 level5_250_cooling 14_16 log,9.0,9.0,1311,-60,-1.0471975511965976,L,L,1,0
5,0,3341.139,0,7,-60,250,701,4.5,8,3341.885,0,736146.684307,Aud,Bilateral,2015-07-01 15:29:00,1_7_2015 level5_250_cooling 15_29 log,11.0,10.0,1311,-90,-1.0471975511965976,L,L,1,30
53,0,1499.184,0,7,-60,250,651,4.5,7,1500.397,1,736147.611977,Aud,Bilateral,2015-07-02 14:16:00,2_7_2015 level5_250_cooling 14_16 log,9.0,9.0,1311,-60,-1.0471975511965976,L,L,1,0
53,0,1499.184,0,7,-60,250,651,4.5,7,1500.397,1,736147.611977,Aud,Bilateral,2015-07-02 14:16:00,2_7_2015 level5_250_cooling 14_16 log,9.0,9.0,1311,-60,-1.0471975511965976,L,L,1,0
24,0,1341.305,0,7,-60,100,851,4.5,7,1342.165,1,736179.681369,Aud,Bilateral,2015-08-03 15:58:00,3_8_2015 level5_100_cooling 15_58 log,8.0,8.0,1311,-60,-1.0471975511965976,L,L,1,0
86,0,4200.615,0,7,-60,250,951,4.5,7,4201.454,1,736146.694255,Aud,Bilateral,2015-07-01 15:29:00,1_7_2015 level5_250_cooling 15_29 log,9.0,8.0,1311,-60,-1.0471975511965976,L,L,1,0
37,0,1310.722,0,7,-60,250,951,4.5,8,1311.331,0,736147.609791,Aud,Bilateral,2015-07-02 14:16:00,2_7_2015 level5_250_cooling 14_16 log,9.0,9.0,1311,-90,-1.0471975511965976,L,L,1,30
53,0,1499.184,0,7,-60,250,651,4.5,7,1500.397,1,736147.611977,Aud,Bilateral,2015-07-02 14:16:00,2_7_2015 level5_250_cooling 14_16 log,9.0,9.0,1311,-60,-1.0471975511965976,L,L,1,0
41,0,1598.873,0,7,-60,100,751,4.5,8,1599.872,0,736179.684352,Aud,Bilateral,2015-08-03 15:58:00,3_8_2015 level5_100_cooling 15_58 log,8.0,8.0,1311,-90,-1.0471975511965976,L,L,1,30
86,0,4200.615,0,7,-60,250,951,4.5,7,4201.454,1,736146.694255,Aud,Bilateral,2015-07-01 15:29:00,1_7_2015 level5_250_cooling 15_29 log,9.0,8.0,1311,-60,-1.0471975511965976,L,L,1,0
5,0,3341.139,0,7,-60,250,701,4.5,8,3341.885,0,736146.684307,Aud,Bilateral,2015-07-01 15:29:00,1_7_2015 level5_250_cooling 15_29 log,11.0,10.0,1311,-90,-1.0471975511965976,L,L,1,30
41,0,1598.873,0,7,-60,100,751,4.5,8,1599.872,0,736179.684352,Aud,Bilateral,2015-08-03 15:58:00,3_8_2015 level5_100_cooling 15_58 log,8.0,8.0,1311,-90,-1.0471975511965976,L,L,1,30
53,0,1499.184,0,7,-60,250,651,4.5,7,1500.397,1,736147.611977,Aud,Bilateral,2015-07-02 14:16:00,2_7_2015 level5_250_cooling 14_16 log,9.0,9.0,1311,-60,-1.0471975511965976,L,L,1,0
116,0,2444.881,0,7,-60,100,701,4.5,8,2445.643,0,736179.694142,Aud,Bilateral,2015-08-03 15:58:00,3_8_2015 level5_100_cooling 15_58 log,8.0,8.0,1311,-90,-1.0471975511965976,L,L,1,30
5,0,3341.139,0,7,-60,250,701,4.5,8,3341.885,0,736146.684307,Aud,Bilateral,2015-07-01 15:29:00,1_7_2015 level5_250_cooling 15_29 log,11.0,10.0,1311,-90,-1.0471975511965976,L,L,1,30
53,0,1499.184,0,7,-60,250,651,4.5,7,1500.397,1,736147.611977,Aud,Bilateral,2015-07-02 14:16:00,2_7_2015 level5_250_cooling 14_16 log,9.0,9.0,1311,-60,-1.0471975511965976,L,L,1,0
41,0,1598.873,0,7,-60,100,751,4.5,8,1599.872,0,736179.684352,Aud,Bilateral,2015-08-03 15:58:00,3_8_2015 level5_100_cooling 15_58 log,8.0,8.0,1311,-90,-1.0471975511965976,L,L,1,30
84,0,2070.406,0,7,-60,100,951,9.0,2,2071.595,0,736179.689813,Aud,Bilateral,2015-08-03 15:58:00,3_8_2015 level5_100_cooling 15_58 log,8.0,8.0,1311,90,-1.0471975511965976,L,R,0,150
79,0,1990.421,0,7,-60,250,951,9.0,8,1991.164,0,736133.721974,Aud,Bilateral,2015-06-18 16:46:00,18_6_2015 level5_250_cooling 16_46 log,8.0,8.0,1311,-90,-1.0471975511965976,L,L,1,30
98,0,2114.818,0,7,-60,250,851,9.0,8,2115.481,0,736147.619097,Aud,Bilateral,2015-07-02 14:16:00,2_7_2015 level5_250_cooling 14_16 log,9.0,9.0,1311,-90,-1.0471975511965976,L,L,1,30
79,0,1990.421,0,7,-60,250,951,9.0,8,1991.164,0,736133.721974,Aud,Bilateral,2015-06-18 16:46:00,18_6_2015 level5_250_cooling 16_46 log,8.0,8.0,1311,-90,-1.0471975511965976,L,L,1,30
82,0,2046.024,0,7,-60,100,901,9.0,8,2046.889,0,736179.689526,Aud,Bilateral,2015-08-03 15:58:00,3_8_2015 level5_100_cooling 15_58 log,8.0,8.0,1311,-90,-1.0471975511965976,L,L,1,30
29,0,1499.587,0,7,-60,250,851,9.0,8,1500.359,0,736133.716294,Aud,Bilateral,2015-06-18 16:46:00,18_6_2015 level5_250_cooling 16_46 log,8.0,8.0,1311,-90,-1.0471975511965976,L,L,1,30
40,0,1582.548,0,7,-60,100,851,9.0,8,1583.568,0,736179.684163,Aud,Bilateral,2015-08-03 15:58:00,3_8_2015 level5_100_cooling 15_58 log,8.0,8.0,1311,-90,-1.0471975511965976,L,L,1,30
127,0,2570.002,0,7,-60,100,501,9.0,8,2570.83,0,736179.695591,Aud,Bilateral,2015-08-03 15:58:00,3_8_2015 level5_100_cooling 15_58 log,9.0,8.0,1311,-90,-1.0471975511965976,L,L,1,30
98,0,2114.818,0,7,-60,250,851,9.0,8,2115.481,0,736147.619097,Aud,Bilateral,2015-07-02 14:16:00,2_7_2015 level5_250_cooling 14_16 log,9.0,9.0,1311,-90,-1.0471975511965976,L,L,1,30
84,0,2070.406,0,7,-60,100,951,9.0,2,2071.595,0,736179.689813,Aud,Bilateral,2015-08-03 15:58:00,3_8_2015 level5_100_cooling 15_58 log,8.0,8.0,1311,90,-1.0471975511965976,L,R,0,150
18,0,3499.761,0,7,-60,250,901,9.0,7,3500.938,1,736146.686147,Aud,Bilateral,2015-07-01 15:29:00,1_7_2015 level5_250_cooling 15_29 log,10.0,9.0,1311,-60,-1.0471975511965976,L,L,1,0
82,0,2046.024,0,7,-60,100,901,9.0,8,2046.889,0,736179.689526,Aud,Bilateral,2015-08-03 15:58:00,3_8_2015 level5_100_cooling 15_58 log,8.0,8.0,1311,-90,-1.0471975511965976,L,L,1,30
98,0,2114.818,0,7,-60,250,851,9.0,8,2115.481,0,736147.619097,Aud,Bilateral,2015-07-02 14:16:00,2_7_2015 level5_250_cooling 14_16 log,9.0,9.0,1311,-90,-1.0471975511965976,L,L,1,30
40,0,1582.548,0,7,-60,100,851,9.0,8,1583.568,0,736179.684163,Aud,Bilateral,2015-08-03 15:58:00,3_8_2015 level5_100_cooling 15_58 log,8.0,8.0,1311,-90,-1.0471975511965976,L,L,1,30
98,0,2114.818,0,7,-60,250,851,9.0,8,2115.481,0,736147.619097,Aud,Bilateral,2015-07-02 14:16:00,2_7_2015 level5_250_cooling 14_16 log,9.0,9.0,1311,-90,-1.0471975511965976,L,L,1,30
98,0,2114.818,0,7,-60,250,851,9.0,8,2115.481,0,736147.619097,Aud,Bilateral,2015-07-02 14:16:00,2_7_2015 level5_250_cooling 14_16 log,9.0,9.0,1311,-90,-1.0471975511965976,L,L,1,30
40,0,1582.548,0,7,-60,100,851,9.0,8,1583.568,0,736179.684163,Aud,Bilateral,2015-08-03 15:58:00,3_8_2015 level5_100_cooling 15_58 log,8.0,8.0,1311,-90,-1.0471975511965976,L,L,1,30
106,0,4388.99,0,7,-60,250,901,9.0,7,4389.8,1,736146.696434,Aud,Bilateral,2015-07-01 15:29:00,1_7_2015 level5_250_cooling 15_29 log,9.0,9.0,1311,-60,-1.0471975511965976,L,L,1,0
79,0,1990.421,0,7,-60,250,951,9.0,8,1991.164,0,736133.721974,Aud,Bilateral,2015-06-18 16:46:00,18_6_2015 level5_250_cooling 16_46 log,8.0,8.0,1311,-90,-1.0471975511965976,L,L,1,30
40,0,1582.548,0,7,-60,100,851,9.0,8,1583.568,0,736179.684163,Aud,Bilateral,2015-08-03 15:58:00,3_8_2015 level5_100_cooling 15_58 log,8.0,8.0,1311,-90,-1.0471975511965976,L,L,1,30
82,0,2046.024,0,7,-60,100,901,9.0,8,2046.889,0,736179.689526,Aud,Bilateral,2015-08-03 15:58:00,3_8_2015 level5_100_cooling 15_58 log,8.0,8.0,1311,-90,-1.0471975511965976,L,L,1,30
29,0,1499.587,0,7,-60,250,851,9.0,8,1500.359,0,736133.716294,Aud,Bilateral,2015-06-18 16:46:00,18_6_2015 level5_250_cooling 16_46 log,8.0,8.0,1311,-90,-1.0471975511965976,L,L,1,30
82,0,2046.024,0,7,-60,100,901,9.0,8,2046.889,0,736179.689526,Aud,Bilateral,2015-08-03 15:58:00,3_8_2015 level5_100_cooling 15_58 log,8.0,8.0,1311,-90,-1.0471975511965976,L,L,1,30
71,0,1920.478,0,6,-30,100,901,0.0,7,1921.479,0,736179.688074,Aud,Bilateral,2015-08-03 15:58:00,3_8_2015 level5_100_cooling 15_58 log,8.0,8.0,1311,-60,-0.5235987755982988,L,L,1,30
16,0,870.336,0,6,-30,250,701,0.0,6,872.297,1,736134.70082,Aud,Bilateral,2015-06-19 16:34:00,19_6_2015 level5_250_cooling 16_34 log,8.0,8.0,1311,-30,-0.5235987755982988,L,L,1,0
125,0,2391.616,0,6,-30,250,651,0.0,8,2392.326,0,736147.622301,Aud,Bilateral,2015-07-02 14:16:00,2_7_2015 level5_250_cooling 14_16 log,10.0,10.0,1311,-90,-0.5235987755982988,L,L,1,60
53,0,1731.107,0,6,-30,100,851,0.0,6,1732.169,1,736179.685883,Aud,Bilateral,2015-08-03 15:58:00,3_8_2015 level5_100_cooling 15_58 log,8.0,8.0,1311,-30,-0.5235987755982988,L,L,1,0
21,0,1297.75,0,6,-30,100,601,0.0,6,1298.583,1,736179.680865,Aud,Bilateral,2015-08-03 15:58:00,3_8_2015 level5_100_cooling 15_58 log,8.0,8.0,1311,-30,-0.5235987755982988,L,L,1,0
20,0,1133.588,0,6,-30,250,601,0.0,7,1134.324,0,736147.607741,Aud,Bilateral,2015-07-02 14:16:00,2_7_2015 level5_250_cooling 14_16 log,9.0,8.0,1311,-60,-0.5235987755982988,L,L,1,30
21,0,1297.75,0,6,-30,100,601,0.0,6,1298.583,1,736179.680865,Aud,Bilateral,2015-08-03 15:58:00,3_8_2015 level5_100_cooling 15_58 log,8.0,8.0,1311,-30,-0.5235987755982988,L,L,1,0
30,0,1030.069,0,6,-30,250,701,0.0,7,1031.289,0,736134.702661,Aud,Bilateral,2015-06-19 16:34:00,19_6_2015 level5_250_cooling 16_34 log,8.0,8.0,1311,-60,-0.5235987755982988,L,L,1,30
71,0,1920.478,0,6,-30,100,901,0.0,7,1921.479,0,736179.688074,Aud,Bilateral,2015-08-03 15:58:00,3_8_2015 level5_100_cooling 15_58 log,8.0,8.0,1311,-60,-0.5235987755982988,L,L,1,30
132,0,2614.668,0,6,-30,100,601,0.0,8,2615.531,0,736179.696107,Aud,Bilateral,2015-08-03 15:58:00,3_8_2015 level5_100_cooling 15_58 log,9.0,8.0,1311,-90,-0.5235987755982988,L,L,1,60
120,0,4535.929,0,6,-30,250,851,0.0,7,4537.304,0,736146.698142,Aud,Bilateral,2015-07-01 15:29:00,1_7_2015 level5_250_cooling 15_29 log,9.0,9.0,1311,-60,-0.5235987755982988,L,L,1,30
91,0,4246.209,0,6,-30,250,751,0.0,6,4247.051,1,736146.694782,Aud,Bilateral,2015-07-01 15:29:00,1_7_2015 level5_250_cooling 15_29 log,9.0,9.0,1311,-30,-0.5235987755982988,L,L,1,0
132,0,2614.668,0,6,-30,100,601,0.0,8,2615.531,0,736179.696107,Aud,Bilateral,2015-08-03 15:58:00,3_8_2015 level5_100_cooling 15_58 log,9.0,8.0,1311,-90,-0.5235987755982988,L,L,1,60
16,0,870.336,0,6,-30,250,701,0.0,6,872.297,1,736134.70082,Aud,Bilateral,2015-06-19 16:34:00,19_6_2015 level5_250_cooling 16_34 log,8.0,8.0,1311,-30,-0.5235987755982988,L,L,1,0
20,0,1133.588,0,6,-30,250,601,0.0,7,1134.324,0,736147.607741,Aud,Bilateral,2015-07-02 14:16:00,2_7_2015 level5_250_cooling 14_16 log,9.0,8.0,1311,-60,-0.5235987755982988,L,L,1,30
33,0,1260.391,0,6,-30,250,1001,0.0,7,1261.119,0,736147.609209,Aud,Bilateral,2015-07-02 14:16:00,2_7_2015 level5_250_cooling 14_16 log,9.0,9.0,1311,-60,-0.5235987755982988,L,L,1,30
32,0,1435.772,0,6,-30,100,701,0.0,6,1436.75,1,736179.682464,Aud,Bilateral,2015-08-03 15:58:00,3_8_2015 level5_100_cooling 15_58 log,8.0,8.0,1311,-30,-0.5235987755982988,L,L,1,0
91,0,4246.209,0,6,-30,250,751,0.0,6,4247.051,1,736146.694782,Aud,Bilateral,2015-07-01 15:29:00,1_7_2015 level5_250_cooling 15_29 log,9.0,9.0,1311,-30,-0.5235987755982988,L,L,1,0
133,0,2469.554,0,6,-30,250,701,0.0,7,2470.995,0,736147.62321,Aud,Bilateral,2015-07-02 14:16:00,2_7_2015 level5_250_cooling 14_16 log,10.0,10.0,1311,-60,-0.5235987755982988,L,L,1,30
30,0,1030.069,0,6,-30,250,701,0.0,7,1031.289,0,736134.702661,Aud,Bilateral,2015-06-19 16:34:00,19_6_2015 level5_250_cooling 16_34 log,8.0,8.0,1311,-60,-0.5235987755982988,L,L,1,30
14,0,1336.591,0,6,-30,250,701,0.0,7,1337.72,0,736133.71441,Aud,Bilateral,2015-06-18 16:46:00,18_6_2015 level5_250_cooling 16_46 log,8.0,8.0,1311,-60,-0.5235987755982988,L,L,1,30
61,0,1815.153,0,6,-30,100,951,0.0,6,1816.016,1,736179.686854,Aud,Bilateral,2015-08-03 15:58:00,3_8_2015 level5_100_cooling 15_58 log,8.0,8.0,1311,-30,-0.5235987755982988,L,L,1,0
71,0,1920.478,0,6,-30,100,901,0.0,7,1921.479,0,736179.688074,Aud,Bilateral,2015-08-03 15:58:00,3_8_2015 level5_100_cooling 15_58 log,8.0,8.0,1311,-60,-0.5235987755982988,L,L,1,30
114,0,2419.644,0,6,-30,100,851,4.5,8,2420.842,0,736179.693854,Aud,Bilateral,2015-08-03 15:58:00,3_8_2015 level5_100_cooling 15_58 log,8.0,8.0,1311,-90,-0.5235987755982988,L,L,1,60
114,0,2419.644,0,6,-30,100,851,4.5,8,2420.842,0,736179.693854,Aud,Bilateral,2015-08-03 15:58:00,3_8_2015 level5_100_cooling 15_58 log,8.0,8.0,1311,-90,-0.5235987755982988,L,L,1,60
108,0,2208.33,0,6,-30,250,1001,4.5,7,2209.252,0,736147.620182,Aud,Bilateral,2015-07-02 14:16:00,2_7_2015 level5_250_cooling 14_16 log,9.0,9.0,1311,-60,-0.5235987755982988,L,L,1,30
141,0,2542.322,0,6,-30,250,951,4.5,7,2543.161,0,736147.624045,Aud,Bilateral,2015-07-02 14:16:00,2_7_2015 level5_250_cooling 14_16 log,9.0,9.0,1311,-60,-0.5235987755982988,L,L,1,30
59,0,1342.479,0,6,-30,250,901,4.5,8,1343.529,0,736134.706274,Aud,Bilateral,2015-06-19 16:34:00,19_6_2015 level5_250_cooling 16_34 log,8.0,8.0,1311,-90,-0.5235987755982988,L,L,1,60
141,0,2542.322,0,6,-30,250,951,4.5,7,2543.161,0,736147.624045,Aud,Bilateral,2015-07-02 14:16:00,2_7_2015 level5_250_cooling 14_16 log,9.0,9.0,1311,-60,-0.5235987755982988,L,L,1,30
141,0,2542.322,0,6,-30,250,951,4.5,7,2543.161,0,736147.624045,Aud,Bilateral,2015-07-02 14:16:00,2_7_2015 level5_250_cooling 14_16 log,9.0,9.0,1311,-60,-0.5235987755982988,L,L,1,30
59,0,1342.479,0,6,-30,250,901,4.5,8,1343.529,0,736134.706274,Aud,Bilateral,2015-06-19 16:34:00,19_6_2015 level5_250_cooling 16_34 log,8.0,8.0,1311,-90,-0.5235987755982988,L,L,1,60
137,0,2670.031,0,6,-30,100,951,4.5,7,2671.216,0,736179.696752,Aud,Bilateral,2015-08-03 15:58:00,3_8_2015 level5_100_cooling 15_58 log,9.0,8.0,1311,-60,-0.5235987755982988,L,L,1,30
59,0,1342.479,0,6,-30,250,901,4.5,8,1343.529,0,736134.706274,Aud,Bilateral,2015-06-19 16:34:00,19_6_2015 level5_250_cooling 16_34 log,8.0,8.0,1311,-90,-0.5235987755982988,L,L,1,60
109,0,1952.899,0,6,-30,250,601,4.5,4,1955.193,0,736134.713354,Aud,Bilateral,2015-06-19 16:34:00,19_6_2015 level5_250_cooling 16_34 log,8.0,8.0,1311,30,-0.5235987755982988,L,R,0,60
26,0,1358.77,0,6,-30,100,751,4.5,3,1364.192,0,736179.681624,Aud,Bilateral,2015-08-03 15:58:00,3_8_2015 level5_100_cooling 15_58 log,8.0,8.0,1311,60,-0.5235987755982988,L,R,0,90
26,0,1358.77,0,6,-30,100,751,4.5,3,1364.192,0,736179.681624,Aud,Bilateral,2015-08-03 15:58:00,3_8_2015 level5_100_cooling 15_58 log,8.0,8.0,1311,60,-0.5235987755982988,L,R,0,90
87,0,2114.64,0,6,-30,100,601,4.5,6,2115.703,1,736179.690322,Aud,Bilateral,2015-08-03 15:58:00,3_8_2015 level5_100_cooling 15_58 log,8.0,8.0,1311,-30,-0.5235987755982988,L,L,1,0
24,0,1167.304,0,6,-30,250,801,4.5,4,1169.397,0,736147.608146,Aud,Bilateral,2015-07-02 14:16:00,2_7_2015 level5_250_cooling 14_16 log,9.0,9.0,1311,30,-0.5235987755982988,L,R,0,60
26,0,1358.77,0,6,-30,100,751,4.5,3,1364.192,0,736179.681624,Aud,Bilateral,2015-08-03 15:58:00,3_8_2015 level5_100_cooling 15_58 log,8.0,8.0,1311,60,-0.5235987755982988,L,R,0,90
71,0,1724.418,0,6,-30,250,751,4.5,8,1725.498,0,736147.614582,Aud,Bilateral,2015-07-02 14:16:00,2_7_2015 level5_250_cooling 14_16 log,8.0,8.0,1311,-90,-0.5235987755982988,L,L,1,60
110,0,2373.895,0,6,-30,100,701,4.5,6,2374.86,1,736179.693322,Aud,Bilateral,2015-08-03 15:58:00,3_8_2015 level5_100_cooling 15_58 log,8.0,7.0,1311,-30,-0.5235987755982988,L,L,1,0
43,0,1174.972,0,6,-30,250,751,4.5,4,1176.03,0,736134.704335,Aud,Bilateral,2015-06-19 16:34:00,19_6_2015 level5_250_cooling 16_34 log,8.0,8.0,1311,30,-0.5235987755982988,L,R,0,60
110,0,2373.895,0,6,-30,100,701,4.5,6,2374.86,1,736179.693322,Aud,Bilateral,2015-08-03 15:58:00,3_8_2015 level5_100_cooling 15_58 log,8.0,7.0,1311,-30,-0.5235987755982988,L,L,1,0
24,0,1167.304,0,6,-30,250,801,4.5,4,1169.397,0,736147.608146,Aud,Bilateral,2015-07-02 14:16:00,2_7_2015 level5_250_cooling 14_16 log,9.0,9.0,1311,30,-0.5235987755982988,L,R,0,60
109,0,1952.899,0,6,-30,250,601,4.5,4,1955.193,0,736134.713354,Aud,Bilateral,2015-06-19 16:34:00,19_6_2015 level5_250_cooling 16_34 log,8.0,8.0,1311,30,-0.5235987755982988,L,R,0,60
28,0,1491.977,0,6,-30,250,751,4.5,4,1493.763,0,736133.716217,Aud,Bilateral,2015-06-18 16:46:00,18_6_2015 level5_250_cooling 16_46 log,8.0,8.0,1311,30,-0.5235987755982988,L,R,0,60
1,0,1042.034,0,6,-30,100,501,9.0,8,1048.827,0,736179.677975,Aud,Bilateral,2015-08-03 15:58:00,3_8_2015 level5_100_cooling 15_58 log,13.0,12.0,1311,-90,-0.5235987755982988,L,L,1,60
9,0,795.05,0,6,-30,250,651,9.0,8,796.234,0,736134.699939,Aud,Bilateral,2015-06-19 16:34:00,19_6_2015 level5_250_cooling 16_34 log,8.0,7.0,1311,-90,-0.5235987755982988,L,L,1,60
57,0,1773.278,0,6,-30,100,1001,9.0,7,1774.443,0,736179.686373,Aud,Bilateral,2015-08-03 15:58:00,3_8_2015 level5_100_cooling 15_58 log,8.0,8.0,1311,-60,-0.5235987755982988,L,L,1,30
147,0,2776.041,0,6,-30,100,601,9.0,8,2778.254,0,736179.697991,Aud,Bilateral,2015-08-03 15:58:00,3_8_2015 level5_100_cooling 15_58 log,9.0,8.0,1311,-90,-0.5235987755982988,L,L,1,60
34,0,3669.037,0,6,-30,250,851,9.0,7,3669.968,0,736146.688103,Aud,Bilateral,2015-07-01 15:29:00,1_7_2015 level5_250_cooling 15_29 log,10.0,9.0,1311,-60,-0.5235987755982988,L,L,1,30
31,0,1425.865,0,6,-30,100,751,9.0,7,1427.176,0,736179.682353,Aud,Bilateral,2015-08-03 15:58:00,3_8_2015 level5_100_cooling 15_58 log,7.0,8.0,1311,-60,-0.5235987755982988,L,L,1,30
9,0,795.05,0,6,-30,250,651,9.0,8,796.234,0,736134.699939,Aud,Bilateral,2015-06-19 16:34:00,19_6_2015 level5_250_cooling 16_34 log,8.0,7.0,1311,-90,-0.5235987755982988,L,L,1,60
104,0,4364.531,0,6,-30,250,1001,9.0,7,4365.368,0,736146.696152,Aud,Bilateral,2015-07-01 15:29:00,1_7_2015 level5_250_cooling 15_29 log,9.0,9.0,1311,-60,-0.5235987755982988,L,L,1,30
72,0,1931.376,0,6,-30,100,951,9.0,8,1932.318,0,736179.6882,Aud,Bilateral,2015-08-03 15:58:00,3_8_2015 level5_100_cooling 15_58 log,8.0,8.0,1311,-90,-0.5235987755982988,L,L,1,60
68,0,1648.925,0,6,-30,250,1001,9.0,8,1649.844,0,736147.613707,Aud,Bilateral,2015-07-02 14:16:00,2_7_2015 level5_250_cooling 14_16 log,9.0,9.0,1311,-90,-0.5235987755982988,L,L,1,60
9,0,795.05,0,6,-30,250,651,9.0,8,796.234,0,736134.699939,Aud,Bilateral,2015-06-19 16:34:00,19_6_2015 level5_250_cooling 16_34 log,8.0,7.0,1311,-90,-0.5235987755982988,L,L,1,60
68,0,1648.925,0,6,-30,250,1001,9.0,8,1649.844,0,736147.613707,Aud,Bilateral,2015-07-02 14:16:00,2_7_2015 level5_250_cooling 14_16 log,9.0,9.0,1311,-90,-0.5235987755982988,L,L,1,60
72,0,1931.376,0,6,-30,100,951,9.0,8,1932.318,0,736179.6882,Aud,Bilateral,2015-08-03 15:58:00,3_8_2015 level5_100_cooling 15_58 log,8.0,8.0,1311,-90,-0.5235987755982988,L,L,1,60
72,0,1931.376,0,6,-30,100,951,9.0,8,1932.318,0,736179.6882,Aud,Bilateral,2015-08-03 15:58:00,3_8_2015 level5_100_cooling 15_58 log,8.0,8.0,1311,-90,-0.5235987755982988,L,L,1,60
103,0,2307.626,0,6,-30,100,851,9.0,3,2308.57,0,736179.692554,Aud,Bilateral,2015-08-03 15:58:00,3_8_2015 level5_100_cooling 15_58 log,8.0,8.0,1311,60,-0.5235987755982988,L,R,0,90
147,0,2776.041,0,6,-30,100,601,9.0,8,2778.254,0,736179.697991,Aud,Bilateral,2015-08-03 15:58:00,3_8_2015 level5_100_cooling 15_58 log,9.0,8.0,1311,-90,-0.5235987755982988,L,L,1,60
13,0,1218.374,0,6,-30,100,651,9.0,6,1219.747,1,736179.679952,Aud,Bilateral,2015-08-03 15:58:00,3_8_2015 level5_100_cooling 15_58 log,8.0,8.0,1311,-30,-0.5235987755982988,L,L,1,0
68,0,1648.925,0,6,-30,250,1001,9.0,8,1649.844,0,736147.613707,Aud,Bilateral,2015-07-02 14:16:00,2_7_2015 level5_250_cooling 14_16 log,9.0,9.0,1311,-90,-0.5235987755982988,L,L,1,60
9,0,795.05,0,6,-30,250,651,9.0,8,796.234,0,736134.699939,Aud,Bilateral,2015-06-19 16:34:00,19_6_2015 level5_250_cooling 16_34 log,8.0,7.0,1311,-90,-0.5235987755982988,L,L,1,60
104,0,4364.531,0,6,-30,250,1001,9.0,7,4365.368,0,736146.696152,Aud,Bilateral,2015-07-01 15:29:00,1_7_2015 level5_250_cooling 15_29 log,9.0,9.0,1311,-60,-0.5235987755982988,L,L,1,30
68,0,4007.805,0,6,-30,250,801,9.0,7,4008.727,0,736146.692024,Aud,Bilateral,2015-07-01 15:29:00,1_7_2015 level5_250_cooling 15_29 log,9.0,9.0,1311,-60,-0.5235987755982988,L,L,1,30
68,0,1648.925,0,6,-30,250,1001,9.0,8,1649.844,0,736147.613707,Aud,Bilateral,2015-07-02 14:16:00,2_7_2015 level5_250_cooling 14_16 log,9.0,9.0,1311,-90,-0.5235987755982988,L,L,1,60
1,0,1042.034,0,6,-30,100,501,9.0,8,1048.827,0,736179.677975,Aud,Bilateral,2015-08-03 15:58:00,3_8_2015 level5_100_cooling 15_58 log,13.0,12.0,1311,-90,-0.5235987755982988,L,L,1,60
37,0,1486.465,0,4,30,100,951,0.0,2,1487.174,0,736179.683049,Aud,Bilateral,2015-08-03 15:58:00,3_8_2015 level5_100_cooling 15_58 log,8.0,8.0,1311,90,0.5235987755982988,R,R,1,60
85,0,2082.003,0,4,30,100,651,0.0,2,2088.521,0,736179.690008,Aud,Bilateral,2015-08-03 15:58:00,3_8_2015 level5_100_cooling 15_58 log,8.0,8.0,1311,90,0.5235987755982988,R,R,1,60
104,0,2317.472,0,4,30,100,551,0.0,4,2318.805,1,736179.692673,Aud,Bilateral,2015-08-03 15:58:00,3_8_2015 level5_100_cooling 15_58 log,8.0,8.0,1311,30,0.5235987755982988,R,R,1,0
20,0,1288.003,0,4,30,100,701,0.0,3,1288.781,0,736179.680753,Aud,Bilateral,2015-08-03 15:58:00,3_8_2015 level5_100_cooling 15_58 log,8.0,8.0,1311,60,0.5235987755982988,R,R,1,30
37,0,1486.465,0,4,30,100,951,0.0,2,1487.174,0,736179.683049,Aud,Bilateral,2015-08-03 15:58:00,3_8_2015 level5_100_cooling 15_58 log,8.0,8.0,1311,90,0.5235987755982988,R,R,1,60
78,0,4117.568,0,4,30,250,851,0.0,4,4118.262,1,736146.693294,Aud,Bilateral,2015-07-01 15:29:00,1_7_2015 level5_250_cooling 15_29 log,9.0,9.0,1311,30,0.5235987755982988,R,R,1,0
51,0,1732.933,1,4,30,250,551,0.0,4,1733.811,1,736133.718995,Aud,Bilateral,2015-06-18 16:46:00,18_6_2015 level5_250_cooling 16_46 log,8.0,8.0,1311,30,0.5235987755982988,R,R,1,0
39,0,1571.815,0,4,30,100,801,0.0,8,1573.148,0,736179.684043,Aud,Bilateral,2015-08-03 15:58:00,3_8_2015 level5_100_cooling 15_58 log,8.0,8.0,1311,-90,0.5235987755982988,R,L,0,120
20,0,1288.003,0,4,30,100,701,0.0,3,1288.781,0,736179.680753,Aud,Bilateral,2015-08-03 15:58:00,3_8_2015 level5_100_cooling 15_58 log,8.0,8.0,1311,60,0.5235987755982988,R,R,1,30
78,0,4117.568,0,4,30,250,851,0.0,4,4118.262,1,736146.693294,Aud,Bilateral,2015-07-01 15:29:00,1_7_2015 level5_250_cooling 15_29 log,9.0,9.0,1311,30,0.5235987755982988,R,R,1,0
118,0,2469.923,0,4,30,100,901,0.0,3,2470.741,0,736179.694432,Aud,Bilateral,2015-08-03 15:58:00,3_8_2015 level5_100_cooling 15_58 log,8.0,8.0,1311,60,0.5235987755982988,R,R,1,30
39,0,1571.815,0,4,30,100,801,0.0,8,1573.148,0,736179.684043,Aud,Bilateral,2015-08-03 15:58:00,3_8_2015 level5_100_cooling 15_58 log,8.0,8.0,1311,-90,0.5235987755982988,R,L,0,120
118,0,2469.923,0,4,30,100,901,0.0,3,2470.741,0,736179.694432,Aud,Bilateral,2015-08-03 15:58:00,3_8_2015 level5_100_cooling 15_58 log,8.0,8.0,1311,60,0.5235987755982988,R,R,1,30
119,0,2478.352,0,4,30,100,1001,0.0,2,2479.021,0,736179.694529,Aud,Bilateral,2015-08-03 15:58:00,3_8_2015 level5_100_cooling 15_58 log,8.0,8.0,1311,90,0.5235987755982988,R,R,1,60
35,0,1282.662,0,4,30,250,851,0.0,4,1283.276,1,736147.609467,Aud,Bilateral,2015-07-02 14:16:00,2_7_2015 level5_250_cooling 14_16 log,9.0,9.0,1311,30,0.5235987755982988,R,R,1,0
39,0,1571.815,0,4,30,100,801,0.0,8,1573.148,0,736179.684043,Aud,Bilateral,2015-08-03 15:58:00,3_8_2015 level5_100_cooling 15_58 log,8.0,8.0,1311,-90,0.5235987755982988,R,L,0,120
78,0,4117.568,0,4,30,250,851,0.0,4,4118.262,1,736146.693294,Aud,Bilateral,2015-07-01 15:29:00,1_7_2015 level5_250_cooling 15_29 log,9.0,9.0,1311,30,0.5235987755982988,R,R,1,0
51,0,1732.933,1,4,30,250,551,0.0,4,1733.811,1,736133.718995,Aud,Bilateral,2015-06-18 16:46:00,18_6_2015 level5_250_cooling 16_46 log,8.0,8.0,1311,30,0.5235987755982988,R,R,1,0
35,0,1282.662,0,4,30,250,851,0.0,4,1283.276,1,736147.609467,Aud,Bilateral,2015-07-02 14:16:00,2_7_2015 level5_250_cooling 14_16 log,9.0,9.0,1311,30,0.5235987755982988,R,R,1,0
119,0,2478.352,0,4,30,100,1001,0.0,2,2479.021,0,736179.694529,Aud,Bilateral,2015-08-03 15:58:00,3_8_2015 level5_100_cooling 15_58 log,8.0,8.0,1311,90,0.5235987755982988,R,R,1,60
35,0,1282.662,0,4,30,250,851,0.0,4,1283.276,1,736147.609467,Aud,Bilateral,2015-07-02 14:16:00,2_7_2015 level5_250_cooling 14_16 log,9.0,9.0,1311,30,0.5235987755982988,R,R,1,0
37,0,1486.465,0,4,30,100,951,0.0,2,1487.174,0,736179.683049,Aud,Bilateral,2015-08-03 15:58:00,3_8_2015 level5_100_cooling 15_58 log,8.0,8.0,1311,90,0.5235987755982988,R,R,1,60
20,0,1288.003,0,4,30,100,701,0.0,3,1288.781,0,736179.680753,Aud,Bilateral,2015-08-03 15:58:00,3_8_2015 level5_100_cooling 15_58 log,8.0,8.0,1311,60,0.5235987755982988,R,R,1,30
4,0,1094.908,0,4,30,100,901,4.5,5,1100.093,0,736179.678568,Aud,Bilateral,2015-08-03 15:58:00,3_8_2015 level5_100_cooling 15_58 log,11.0,11.0,1311,0,0.5235987755982988,R,,0,30
44,0,1626.609,0,4,30,100,1001,4.5,4,1628.122,1,736179.684679,Aud,Bilateral,2015-08-03 15:58:00,3_8_2015 level5_100_cooling 15_58 log,9.0,8.0,1311,30,0.5235987755982988,R,R,1,0
83,0,2065.161,0,4,30,100,1001,4.5,5,2065.871,0,736179.689747,Aud,Bilateral,2015-08-03 15:58:00,3_8_2015 level5_100_cooling 15_58 log,8.0,8.0,1311,0,0.5235987755982988,R,,0,30
83,0,2065.161,0,4,30,100,1001,4.5,5,2065.871,0,736179.689747,Aud,Bilateral,2015-08-03 15:58:00,3_8_2015 level5_100_cooling 15_58 log,8.0,8.0,1311,0,0.5235987755982988,R,,0,30
111,0,2384.816,0,4,30,100,801,4.5,2,2385.703,0,736179.693447,Aud,Bilateral,2015-08-03 15:58:00,3_8_2015 level5_100_cooling 15_58 log,8.0,7.0,1311,90,0.5235987755982988,R,R,1,60
128,0,2579.669,0,4,30,100,651,4.5,2,2580.789,0,736179.695705,Aud,Bilateral,2015-08-03 15:58:00,3_8_2015 level5_100_cooling 15_58 log,9.0,8.0,1311,90,0.5235987755982988,R,R,1,60
60,0,1803.457,0,4,30,100,751,4.5,2,1804.689,0,736179.686723,Aud,Bilateral,2015-08-03 15:58:00,3_8_2015 level5_100_cooling 15_58 log,8.0,8.0,1311,90,0.5235987755982988,R,R,1,60
60,0,1803.457,0,4,30,100,751,4.5,2,1804.689,0,736179.686723,Aud,Bilateral,2015-08-03 15:58:00,3_8_2015 level5_100_cooling 15_58 log,8.0,8.0,1311,90,0.5235987755982988,R,R,1,60
19,0,1280.48,0,4,30,100,951,4.5,5,1281.633,0,736179.680669,Aud,Bilateral,2015-08-03 15:58:00,3_8_2015 level5_100_cooling 15_58 log,8.0,8.0,1311,0,0.5235987755982988,R,,0,30
61,0,1573.894,0,4,30,250,901,4.5,6,1575.015,0,736147.61284,Aud,Bilateral,2015-07-02 14:16:00,2_7_2015 level5_250_cooling 14_16 log,8.0,8.0,1311,-30,0.5235987755982988,R,L,0,60
111,0,2384.816,0,4,30,100,801,4.5,2,2385.703,0,736179.693447,Aud,Bilateral,2015-08-03 15:58:00,3_8_2015 level5_100_cooling 15_58 log,8.0,7.0,1311,90,0.5235987755982988,R,R,1,60
70,0,1675.912,0,4,30,250,651,4.5,6,1676.775,0,736147.614018,Aud,Bilateral,2015-07-02 14:16:00,2_7_2015 level5_250_cooling 14_16 log,13.0,8.0,1311,-30,0.5235987755982988,R,L,0,60
44,0,1626.609,0,4,30,100,1001,4.5,4,1628.122,1,736179.684679,Aud,Bilateral,2015-08-03 15:58:00,3_8_2015 level5_100_cooling 15_58 log,9.0,8.0,1311,30,0.5235987755982988,R,R,1,0
19,0,1280.48,0,4,30,100,951,4.5,5,1281.633,0,736179.680669,Aud,Bilateral,2015-08-03 15:58:00,3_8_2015 level5_100_cooling 15_58 log,8.0,8.0,1311,0,0.5235987755982988,R,,0,30
44,0,1626.609,0,4,30,100,1001,4.5,4,1628.122,1,736179.684679,Aud,Bilateral,2015-08-03 15:58:00,3_8_2015 level5_100_cooling 15_58 log,9.0,8.0,1311,30,0.5235987755982988,R,R,1,0
94,0,1810.056,0,4,30,250,851,4.5,4,1811.215,1,736134.711687,Aud,Bilateral,2015-06-19 16:34:00,19_6_2015 level5_250_cooling 16_34 log,8.0,8.0,1311,30,0.5235987755982988,R,R,1,0
11,0,1307.803,0,4,30,250,851,4.5,3,1308.705,0,736133.714075,Aud,Bilateral,2015-06-18 16:46:00,18_6_2015 level5_250_cooling 16_46 log,8.0,8.0,1311,60,0.5235987755982988,R,R,1,30
11,0,1307.803,0,4,30,250,851,4.5,3,1308.705,0,736133.714075,Aud,Bilateral,2015-06-18 16:46:00,18_6_2015 level5_250_cooling 16_46 log,8.0,8.0,1311,60,0.5235987755982988,R,R,1,30
39,0,1140.668,0,4,30,250,551,4.5,4,1141.497,1,736134.703936,Aud,Bilateral,2015-06-19 16:34:00,19_6_2015 level5_250_cooling 16_34 log,8.0,8.0,1311,30,0.5235987755982988,R,R,1,0
60,0,1803.457,0,4,30,100,751,4.5,2,1804.689,0,736179.686723,Aud,Bilateral,2015-08-03 15:58:00,3_8_2015 level5_100_cooling 15_58 log,8.0,8.0,1311,90,0.5235987755982988,R,R,1,60
44,0,1626.609,0,4,30,100,1001,4.5,4,1628.122,1,736179.684679,Aud,Bilateral,2015-08-03 15:58:00,3_8_2015 level5_100_cooling 15_58 log,9.0,8.0,1311,30,0.5235987755982988,R,R,1,0
39,0,1140.668,0,4,30,250,551,4.5,4,1141.497,1,736134.703936,Aud,Bilateral,2015-06-19 16:34:00,19_6_2015 level5_250_cooling 16_34 log,8.0,8.0,1311,30,0.5235987755982988,R,R,1,0
83,0,2065.161,0,4,30,100,1001,4.5,5,2065.871,0,736179.689747,Aud,Bilateral,2015-08-03 15:58:00,3_8_2015 level5_100_cooling 15_58 log,8.0,8.0,1311,0,0.5235987755982988,R,,0,30
39,0,1333.212,0,4,30,250,601,9.0,4,1334.281,1,736147.610054,Aud,Bilateral,2015-07-02 14:16:00,2_7_2015 level5_250_cooling 14_16 log,8.0,9.0,1311,30,0.5235987755982988,R,R,1,0
87,0,1997.8,0,4,30,250,551,9.0,4,1998.688,1,736147.617744,Aud,Bilateral,2015-07-02 14:16:00,2_7_2015 level5_250_cooling 14_16 log,9.0,9.0,1311,30,0.5235987755982988,R,R,1,0
12,0,1209.708,0,4,30,100,1001,9.0,2,1211.305,0,736179.679855,Aud,Bilateral,2015-08-03 15:58:00,3_8_2015 level5_100_cooling 15_58 log,8.0,8.0,1311,90,0.5235987755982988,R,R,1,60
114,0,2275.732,0,4,30,250,651,9.0,4,2276.549,1,736147.62096,Aud,Bilateral,2015-07-02 14:16:00,2_7_2015 level5_250_cooling 14_16 log,10.0,10.0,1311,30,0.5235987755982988,R,R,1,0
144,0,2741.381,0,4,30,100,851,9.0,5,2742.252,0,736179.697574,Aud,Bilateral,2015-08-03 15:58:00,3_8_2015 level5_100_cooling 15_58 log,9.0,8.0,1311,0,0.5235987755982988,R,,0,30
92,0,2170.808,1,4,30,100,651,9.0,5,2171.915,0,736179.690973,Aud,Bilateral,2015-08-03 15:58:00,3_8_2015 level5_100_cooling 15_58 log,8.0,8.0,1311,0,0.5235987755982988,R,,0,30
142,0,2553.278,0,4,30,250,751,9.0,5,2554.135,0,736147.624173,Aud,Bilateral,2015-07-02 14:16:00,2_7_2015 level5_250_cooling 14_16 log,9.0,9.0,1311,0,0.5235987755982988,R,,0,30
92,0,2170.808,1,4,30,100,651,9.0,5,2171.915,0,736179.690973,Aud,Bilateral,2015-08-03 15:58:00,3_8_2015 level5_100_cooling 15_58 log,8.0,8.0,1311,0,0.5235987755982988,R,,0,30
69,0,1894.883,0,4,30,100,551,9.0,3,1895.897,0,736179.687779,Aud,Bilateral,2015-08-03 15:58:00,3_8_2015 level5_100_cooling 15_58 log,8.0,8.0,1311,60,0.5235987755982988,R,R,1,30
114,0,2275.732,0,4,30,250,651,9.0,4,2276.549,1,736147.62096,Aud,Bilateral,2015-07-02 14:16:00,2_7_2015 level5_250_cooling 14_16 log,10.0,10.0,1311,30,0.5235987755982988,R,R,1,0
114,0,2275.732,0,4,30,250,651,9.0,4,2276.549,1,736147.62096,Aud,Bilateral,2015-07-02 14:16:00,2_7_2015 level5_250_cooling 14_16 log,10.0,10.0,1311,30,0.5235987755982988,R,R,1,0
87,0,1997.8,0,4,30,250,551,9.0,4,1998.688,1,736147.617744,Aud,Bilateral,2015-07-02 14:16:00,2_7_2015 level5_250_cooling 14_16 log,9.0,9.0,1311,30,0.5235987755982988,R,R,1,0
28,0,1001.558,0,4,30,250,951,9.0,4,1002.845,1,736134.702331,Aud,Bilateral,2015-06-19 16:34:00,19_6_2015 level5_250_cooling 16_34 log,8.0,8.0,1311,30,0.5235987755982988,R,R,1,0
21,0,1419.384,0,4,30,250,951,9.0,4,1420.31,1,736133.715366,Aud,Bilateral,2015-06-18 16:46:00,18_6_2015 level5_250_cooling 16_46 log,8.0,8.0,1311,30,0.5235987755982988,R,R,1,0
102,0,1873.409,0,4,30,250,851,9.0,3,1863.643,0,736134.712416,Aud,Bilateral,2015-06-19 16:34:00,19_6_2015 level5_250_cooling 16_34 log,8.0,8.0,1311,60,0.5235987755982988,R,R,1,30
39,0,1333.212,0,4,30,250,601,9.0,4,1334.281,1,736147.610054,Aud,Bilateral,2015-07-02 14:16:00,2_7_2015 level5_250_cooling 14_16 log,8.0,9.0,1311,30,0.5235987755982988,R,R,1,0
121,0,2081.314,0,4,30,250,801,9.0,4,2082.339,1,736134.714825,Aud,Bilateral,2015-06-19 16:34:00,19_6_2015 level5_250_cooling 16_34 log,8.0,8.0,1311,30,0.5235987755982988,R,R,1,0
144,0,2741.381,0,4,30,100,851,9.0,5,2742.252,0,736179.697574,Aud,Bilateral,2015-08-03 15:58:00,3_8_2015 level5_100_cooling 15_58 log,9.0,8.0,1311,0,0.5235987755982988,R,,0,30
87,0,1997.8,0,4,30,250,551,9.0,4,1998.688,1,736147.617744,Aud,Bilateral,2015-07-02 14:16:00,2_7_2015 level5_250_cooling 14_16 log,9.0,9.0,1311,30,0.5235987755982988,R,R,1,0
102,0,1873.409,0,4,30,250,851,9.0,3,1863.643,0,736134.712416,Aud,Bilateral,2015-06-19 16:34:00,19_6_2015 level5_250_cooling 16_34 log,8.0,8.0,1311,60,0.5235987755982988,R,R,1,30
87,0,1997.8,0,4,30,250,551,9.0,4,1998.688,1,736147.617744,Aud,Bilateral,2015-07-02 14:16:00,2_7_2015 level5_250_cooling 14_16 log,9.0,9.0,1311,30,0.5235987755982988,R,R,1,0
12,0,1209.708,0,4,30,100,1001,9.0,2,1211.305,0,736179.679855,Aud,Bilateral,2015-08-03 15:58:00,3_8_2015 level5_100_cooling 15_58 log,8.0,8.0,1311,90,0.5235987755982988,R,R,1,60
121,0,2081.314,0,4,30,250,801,9.0,4,2082.339,1,736134.714825,Aud,Bilateral,2015-06-19 16:34:00,19_6_2015 level5_250_cooling 16_34 log,8.0,8.0,1311,30,0.5235987755982988,R,R,1,0
66,0,1868.568,0,3,60,100,901,0.0,4,1869.492,0,736179.687473,Aud,Bilateral,2015-08-03 15:58:00,3_8_2015 level5_100_cooling 15_58 log,8.0,8.0,1311,30,1.0471975511965976,R,R,1,30
63,0,1837.872,0,3,60,100,801,0.0,2,1838.582,0,736179.687116,Aud,Bilateral,2015-08-03 15:58:00,3_8_2015 level5_100_cooling 15_58 log,8.0,8.0,1311,90,1.0471975511965976,R,R,1,30
35,0,1550.065,0,3,60,250,951,0.0,4,1551.252,0,736133.716883,Aud,Bilateral,2015-06-18 16:46:00,18_6_2015 level5_250_cooling 16_46 log,8.0,8.0,1311,30,1.0471975511965976,R,R,1,30
35,0,1550.065,0,3,60,250,951,0.0,4,1551.252,0,736133.716883,Aud,Bilateral,2015-06-18 16:46:00,18_6_2015 level5_250_cooling 16_46 log,8.0,8.0,1311,30,1.0471975511965976,R,R,1,30
134,0,2634.835,1,3,60,100,751,0.0,2,2635.557,0,736179.696341,Aud,Bilateral,2015-08-03 15:58:00,3_8_2015 level5_100_cooling 15_58 log,9.0,8.0,1311,90,1.0471975511965976,R,R,1,30
63,0,1837.872,0,3,60,100,801,0.0,2,1838.582,0,736179.687116,Aud,Bilateral,2015-08-03 15:58:00,3_8_2015 level5_100_cooling 15_58 log,8.0,8.0,1311,90,1.0471975511965976,R,R,1,30
35,0,1550.065,0,3,60,250,951,0.0,4,1551.252,0,736133.716883,Aud,Bilateral,2015-06-18 16:46:00,18_6_2015 level5_250_cooling 16_46 log,8.0,8.0,1311,30,1.0471975511965976,R,R,1,30
33,0,1446.428,0,3,60,100,601,0.0,2,1447.896,0,736179.682594,Aud,Bilateral,2015-08-03 15:58:00,3_8_2015 level5_100_cooling 15_58 log,8.0,8.0,1311,90,1.0471975511965976,R,R,1,30
83,0,2032.884,0,3,60,250,651,0.0,3,2033.571,1,736133.722466,Aud,Bilateral,2015-06-18 16:46:00,18_6_2015 level5_250_cooling 16_46 log,8.0,8.0,1311,60,1.0471975511965976,R,R,1,0
18,0,885.585,0,3,60,250,501,0.0,3,886.16,1,736134.700984,Aud,Bilateral,2015-06-19 16:34:00,19_6_2015 level5_250_cooling 16_34 log,8.0,8.0,1311,60,1.0471975511965976,R,R,1,0
134,0,2634.835,1,3,60,100,751,0.0,2,2635.557,0,736179.696341,Aud,Bilateral,2015-08-03 15:58:00,3_8_2015 level5_100_cooling 15_58 log,9.0,8.0,1311,90,1.0471975511965976,R,R,1,30
7,0,1264.456,0,3,60,250,651,0.0,2,1265.311,0,736133.713573,Aud,Bilateral,2015-06-18 16:46:00,18_6_2015 level5_250_cooling 16_46 log,9.0,8.0,1311,90,1.0471975511965976,R,R,1,30
33,0,1446.428,0,3,60,100,601,0.0,2,1447.896,0,736179.682594,Aud,Bilateral,2015-08-03 15:58:00,3_8_2015 level5_100_cooling 15_58 log,8.0,8.0,1311,90,1.0471975511965976,R,R,1,30
33,0,1446.428,0,3,60,100,601,0.0,2,1447.896,0,736179.682594,Aud,Bilateral,2015-08-03 15:58:00,3_8_2015 level5_100_cooling 15_58 log,8.0,8.0,1311,90,1.0471975511965976,R,R,1,30
51,0,1479.982,0,3,60,250,901,0.0,4,1480.965,0,736147.611753,Aud,Bilateral,2015-07-02 14:16:00,2_7_2015 level5_250_cooling 14_16 log,9.0,9.0,1311,30,1.0471975511965976,R,R,1,30
51,0,1479.982,0,3,60,250,901,0.0,4,1480.965,0,736147.611753,Aud,Bilateral,2015-07-02 14:16:00,2_7_2015 level5_250_cooling 14_16 log,9.0,9.0,1311,30,1.0471975511965976,R,R,1,30
33,0,1446.428,0,3,60,100,601,0.0,2,1447.896,0,736179.682594,Aud,Bilateral,2015-08-03 15:58:00,3_8_2015 level5_100_cooling 15_58 log,8.0,8.0,1311,90,1.0471975511965976,R,R,1,30
7,0,1264.456,0,3,60,250,651,0.0,2,1265.311,0,736133.713573,Aud,Bilateral,2015-06-18 16:46:00,18_6_2015 level5_250_cooling 16_46 log,9.0,8.0,1311,90,1.0471975511965976,R,R,1,30
83,0,2032.884,0,3,60,250,651,0.0,3,2033.571,1,736133.722466,Aud,Bilateral,2015-06-18 16:46:00,18_6_2015 level5_250_cooling 16_46 log,8.0,8.0,1311,60,1.0471975511965976,R,R,1,0
10,0,3407.683,0,3,60,250,751,0.0,4,3408.598,0,736146.685079,Aud,Bilateral,2015-07-01 15:29:00,1_7_2015 level5_250_cooling 15_29 log,11.0,10.0,1311,30,1.0471975511965976,R,R,1,30
10,0,3407.683,0,3,60,250,751,0.0,4,3408.598,0,736146.685079,Aud,Bilateral,2015-07-01 15:29:00,1_7_2015 level5_250_cooling 15_29 log,11.0,10.0,1311,30,1.0471975511965976,R,R,1,30
7,0,1264.456,0,3,60,250,651,0.0,2,1265.311,0,736133.713573,Aud,Bilateral,2015-06-18 16:46:00,18_6_2015 level5_250_cooling 16_46 log,9.0,8.0,1311,90,1.0471975511965976,R,R,1,30
18,0,885.585,0,3,60,250,501,0.0,3,886.16,1,736134.700984,Aud,Bilateral,2015-06-19 16:34:00,19_6_2015 level5_250_cooling 16_34 log,8.0,8.0,1311,60,1.0471975511965976,R,R,1,0
140,0,2699.37,0,3,60,100,851,4.5,2,2700.064,0,736179.697087,Aud,Bilateral,2015-08-03 15:58:00,3_8_2015 level5_100_cooling 15_58 log,9.0,8.0,1311,90,1.0471975511965976,R,R,1,30
48,0,1678.972,0,3,60,100,901,4.5,3,1679.816,1,736179.685277,Aud,Bilateral,2015-08-03 15:58:00,3_8_2015 level5_100_cooling 15_58 log,8.0,8.0,1311,60,1.0471975511965976,R,R,1,0
22,0,1308.841,0,3,60,100,801,4.5,3,1309.635,1,736179.680993,Aud,Bilateral,2015-08-03 15:58:00,3_8_2015 level5_100_cooling 15_58 log,8.0,8.0,1311,60,1.0471975511965976,R,R,1,0
48,0,1678.972,0,3,60,100,901,4.5,3,1679.816,1,736179.685277,Aud,Bilateral,2015-08-03 15:58:00,3_8_2015 level5_100_cooling 15_58 log,8.0,8.0,1311,60,1.0471975511965976,R,R,1,0
114,0,2022.573,0,3,60,250,901,4.5,3,2023.641,1,736134.714146,Aud,Bilateral,2015-06-19 16:34:00,19_6_2015 level5_250_cooling 16_34 log,8.0,8.0,1311,60,1.0471975511965976,R,R,1,0
107,0,2344.956,0,3,60,100,751,4.5,2,2346.28,0,736179.692991,Aud,Bilateral,2015-08-03 15:58:00,3_8_2015 level5_100_cooling 15_58 log,8.0,8.0,1311,90,1.0471975511965976,R,R,1,30
89,0,2138.288,0,3,60,100,751,4.5,3,2139.139,1,736179.690594,Aud,Bilateral,2015-08-03 15:58:00,3_8_2015 level5_100_cooling 15_58 log,8.0,8.0,1311,60,1.0471975511965976,R,R,1,0
22,0,1308.841,0,3,60,100,801,4.5,3,1309.635,1,736179.680993,Aud,Bilateral,2015-08-03 15:58:00,3_8_2015 level5_100_cooling 15_58 log,8.0,8.0,1311,60,1.0471975511965976,R,R,1,0
34,0,1075.6,1,3,60,250,701,4.5,3,1077.002,1,736134.703189,Aud,Bilateral,2015-06-19 16:34:00,19_6_2015 level5_250_cooling 16_34 log,8.0,7.0,1311,60,1.0471975511965976,R,R,1,0
34,0,1075.6,1,3,60,250,701,4.5,3,1077.002,1,736134.703189,Aud,Bilateral,2015-06-19 16:34:00,19_6_2015 level5_250_cooling 16_34 log,8.0,7.0,1311,60,1.0471975511965976,R,R,1,0
140,0,2699.37,0,3,60,100,851,4.5,2,2700.064,0,736179.697087,Aud,Bilateral,2015-08-03 15:58:00,3_8_2015 level5_100_cooling 15_58 log,9.0,8.0,1311,90,1.0471975511965976,R,R,1,30
125,0,2541.933,0,3,60,100,751,4.5,2,2546.063,0,736179.695303,Aud,Bilateral,2015-08-03 15:58:00,3_8_2015 level5_100_cooling 15_58 log,8.0,8.0,1311,90,1.0471975511965976,R,R,1,30
140,0,2699.37,0,3,60,100,851,4.5,2,2700.064,0,736179.697087,Aud,Bilateral,2015-08-03 15:58:00,3_8_2015 level5_100_cooling 15_58 log,9.0,8.0,1311,90,1.0471975511965976,R,R,1,30
34,0,1075.6,1,3,60,250,701,4.5,3,1077.002,1,736134.703189,Aud,Bilateral,2015-06-19 16:34:00,19_6_2015 level5_250_cooling 16_34 log,8.0,7.0,1311,60,1.0471975511965976,R,R,1,0
89,0,2138.288,0,3,60,100,751,4.5,3,2139.139,1,736179.690594,Aud,Bilateral,2015-08-03 15:58:00,3_8_2015 level5_100_cooling 15_58 log,8.0,8.0,1311,60,1.0471975511965976,R,R,1,0
140,0,2699.37,0,3,60,100,851,4.5,2,2700.064,0,736179.697087,Aud,Bilateral,2015-08-03 15:58:00,3_8_2015 level5_100_cooling 15_58 log,9.0,8.0,1311,90,1.0471975511965976,R,R,1,30
124,0,2373.026,0,3,60,250,951,4.5,2,2374.45,0,736147.622094,Aud,Bilateral,2015-07-02 14:16:00,2_7_2015 level5_250_cooling 14_16 log,10.0,10.0,1311,90,1.0471975511965976,R,R,1,30
22,0,1308.841,0,3,60,100,801,4.5,3,1309.635,1,736179.680993,Aud,Bilateral,2015-08-03 15:58:00,3_8_2015 level5_100_cooling 15_58 log,8.0,8.0,1311,60,1.0471975511965976,R,R,1,0
89,0,2138.288,0,3,60,100,751,4.5,3,2139.139,1,736179.690594,Aud,Bilateral,2015-08-03 15:58:00,3_8_2015 level5_100_cooling 15_58 log,8.0,8.0,1311,60,1.0471975511965976,R,R,1,0
125,0,2541.933,0,3,60,100,751,4.5,2,2546.063,0,736179.695303,Aud,Bilateral,2015-08-03 15:58:00,3_8_2015 level5_100_cooling 15_58 log,8.0,8.0,1311,90,1.0471975511965976,R,R,1,30
140,0,2699.37,0,3,60,100,851,4.5,2,2700.064,0,736179.697087,Aud,Bilateral,2015-08-03 15:58:00,3_8_2015 level5_100_cooling 15_58 log,9.0,8.0,1311,90,1.0471975511965976,R,R,1,30
34,0,1075.6,1,3,60,250,701,4.5,3,1077.002,1,736134.703189,Aud,Bilateral,2015-06-19 16:34:00,19_6_2015 level5_250_cooling 16_34 log,8.0,7.0,1311,60,1.0471975511965976,R,R,1,0
125,0,2541.933,0,3,60,100,751,4.5,2,2546.063,0,736179.695303,Aud,Bilateral,2015-08-03 15:58:00,3_8_2015 level5_100_cooling 15_58 log,8.0,8.0,1311,90,1.0471975511965976,R,R,1,30
56,0,1762.704,0,3,60,100,701,9.0,2,1764.515,0,736179.686258,Aud,Bilateral,2015-08-03 15:58:00,3_8_2015 level5_100_cooling 15_58 log,8.0,8.0,1311,90,1.0471975511965976,R,R,1,30
123,0,2523.964,0,3,60,100,801,9.0,2,2524.716,0,736179.695057,Aud,Bilateral,2015-08-03 15:58:00,3_8_2015 level5_100_cooling 15_58 log,8.0,8.0,1311,90,1.0471975511965976,R,R,1,30
25,0,1463.895,0,3,60,250,601,9.0,3,1464.725,1,736133.715881,Aud,Bilateral,2015-06-18 16:46:00,18_6_2015 level5_250_cooling 16_46 log,8.0,8.0,1311,60,1.0471975511965976,R,R,1,0
88,0,2128.693,0,3,60,100,801,9.0,2,2130.128,0,736179.690489,Aud,Bilateral,2015-08-03 15:58:00,3_8_2015 level5_100_cooling 15_58 log,8.0,8.0,1311,90,1.0471975511965976,R,R,1,30
25,0,1177.195,0,3,60,250,901,9.0,3,1177.91,1,736147.608245,Aud,Bilateral,2015-07-02 14:16:00,2_7_2015 level5_250_cooling 14_16 log,9.0,9.0,1311,60,1.0471975511965976,R,R,1,0
56,0,1762.704,0,3,60,100,701,9.0,2,1764.515,0,736179.686258,Aud,Bilateral,2015-08-03 15:58:00,3_8_2015 level5_100_cooling 15_58 log,8.0,8.0,1311,90,1.0471975511965976,R,R,1,30
123,0,2523.964,0,3,60,100,801,9.0,2,2524.716,0,736179.695057,Aud,Bilateral,2015-08-03 15:58:00,3_8_2015 level5_100_cooling 15_58 log,8.0,8.0,1311,90,1.0471975511965976,R,R,1,30
48,0,3819.788,0,3,60,250,601,9.0,4,3820.678,0,736146.689848,Aud,Bilateral,2015-07-01 15:29:00,1_7_2015 level5_250_cooling 15_29 log,9.0,9.0,1311,30,1.0471975511965976,R,R,1,30
122,0,2090.571,0,3,60,250,801,9.0,4,2091.445,0,736134.714931,Aud,Bilateral,2015-06-19 16:34:00,19_6_2015 level5_250_cooling 16_34 log,8.0,8.0,1311,30,1.0471975511965976,R,R,1,30
88,0,2128.693,0,3,60,100,801,9.0,2,2130.128,0,736179.690489,Aud,Bilateral,2015-08-03 15:58:00,3_8_2015 level5_100_cooling 15_58 log,8.0,8.0,1311,90,1.0471975511965976,R,R,1,30
25,0,1463.895,0,3,60,250,601,9.0,3,1464.725,1,736133.715881,Aud,Bilateral,2015-06-18 16:46:00,18_6_2015 level5_250_cooling 16_46 log,8.0,8.0,1311,60,1.0471975511965976,R,R,1,0
47,0,1696.88,0,3,60,250,601,9.0,3,1697.632,1,736133.718577,Aud,Bilateral,2015-06-18 16:46:00,18_6_2015 level5_250_cooling 16_46 log,8.0,8.0,1311,60,1.0471975511965976,R,R,1,0
92,0,1792.641,0,3,60,250,551,9.0,4,1793.965,0,736134.711488,Aud,Bilateral,2015-06-19 16:34:00,19_6_2015 level5_250_cooling 16_34 log,8.0,8.0,1311,30,1.0471975511965976,R,R,1,30
25,0,1177.195,0,3,60,250,901,9.0,3,1177.91,1,736147.608245,Aud,Bilateral,2015-07-02 14:16:00,2_7_2015 level5_250_cooling 14_16 log,9.0,9.0,1311,60,1.0471975511965976,R,R,1,0
77,0,1984.588,0,3,60,100,501,9.0,2,1986.18,0,736179.688823,Aud,Bilateral,2015-08-03 15:58:00,3_8_2015 level5_100_cooling 15_58 log,8.0,8.0,1311,90,1.0471975511965976,R,R,1,30
92,0,1792.641,0,3,60,250,551,9.0,4,1793.965,0,736134.711488,Aud,Bilateral,2015-06-19 16:34:00,19_6_2015 level5_250_cooling 16_34 log,8.0,8.0,1311,30,1.0471975511965976,R,R,1,30
25,0,1177.195,0,3,60,250,901,9.0,3,1177.91,1,736147.608245,Aud,Bilateral,2015-07-02 14:16:00,2_7_2015 level5_250_cooling 14_16 log,9.0,9.0,1311,60,1.0471975511965976,R,R,1,0
56,0,1762.704,0,3,60,100,701,9.0,2,1764.515,0,736179.686258,Aud,Bilateral,2015-08-03 15:58:00,3_8_2015 level5_100_cooling 15_58 log,8.0,8.0,1311,90,1.0471975511965976,R,R,1,30
92,0,1792.641,0,3,60,250,551,9.0,4,1793.965,0,736134.711488,Aud,Bilateral,2015-06-19 16:34:00,19_6_2015 level5_250_cooling 16_34 log,8.0,8.0,1311,30,1.0471975511965976,R,R,1,30
56,0,1762.704,0,3,60,100,701,9.0,2,1764.515,0,736179.686258,Aud,Bilateral,2015-08-03 15:58:00,3_8_2015 level5_100_cooling 15_58 log,8.0,8.0,1311,90,1.0471975511965976,R,R,1,30
88,0,2128.693,0,3,60,100,801,9.0,2,2130.128,0,736179.690489,Aud,Bilateral,2015-08-03 15:58:00,3_8_2015 level5_100_cooling 15_58 log,8.0,8.0,1311,90,1.0471975511965976,R,R,1,30
72,0,4050.993,0,3,60,250,651,9.0,4,4052.285,0,736146.692529,Aud,Bilateral,2015-07-01 15:29:00,1_7_2015 level5_250_cooling 15_29 log,9.0,9.0,1311,30,1.0471975511965976,R,R,1,30
25,0,1349.238,0,3,60,100,701,9.0,6,1350.489,0,736179.681466,Aud,Bilateral,2015-08-03 15:58:00,3_8_2015 level5_100_cooling 15_58 log,8.0,8.0,1311,-30,1.0471975511965976,R,L,0,90
59,0,1790.622,0,2,90,100,551,0.0,2,1792.039,1,736179.686576,Aud,Bilateral,2015-08-03 15:58:00,3_8_2015 level5_100_cooling 15_58 log,7.0,8.0,1311,90,1.5707963267948966,R,R,1,0
47,0,1432.927,0,2,90,250,901,0.0,2,1433.724,1,736147.611205,Aud,Bilateral,2015-07-02 14:16:00,2_7_2015 level5_250_cooling 14_16 log,8.0,9.0,1311,90,1.5707963267948966,R,R,1,0
126,0,2556.87,0,2,90,100,901,0.0,2,2557.623,1,736179.695438,Aud,Bilateral,2015-08-03 15:58:00,3_8_2015 level5_100_cooling 15_58 log,8.0,8.0,1311,90,1.5707963267948966,R,R,1,0
91,0,2039.346,0,2,90,250,1001,0.0,6,2040.013,0,736147.618224,Aud,Bilateral,2015-07-02 14:16:00,2_7_2015 level5_250_cooling 14_16 log,9.0,9.0,1311,-30,1.5707963267948966,R,L,0,120
59,0,1790.622,0,2,90,100,551,0.0,2,1792.039,1,736179.686576,Aud,Bilateral,2015-08-03 15:58:00,3_8_2015 level5_100_cooling 15_58 log,7.0,8.0,1311,90,1.5707963267948966,R,R,1,0
126,0,2556.87,0,2,90,100,901,0.0,2,2557.623,1,736179.695438,Aud,Bilateral,2015-08-03 15:58:00,3_8_2015 level5_100_cooling 15_58 log,8.0,8.0,1311,90,1.5707963267948966,R,R,1,0
145,0,2750.033,0,2,90,100,501,0.0,3,2751.559,0,736179.697682,Aud,Bilateral,2015-08-03 15:58:00,3_8_2015 level5_100_cooling 15_58 log,9.0,8.0,1311,60,1.5707963267948966,R,R,1,30
35,0,1462.467,0,2,90,100,901,0.0,3,1463.343,0,736179.682772,Aud,Bilateral,2015-08-03 15:58:00,3_8_2015 level5_100_cooling 15_58 log,8.0,8.0,1311,60,1.5707963267948966,R,R,1,30
91,0,2039.346,0,2,90,250,1001,0.0,6,2040.013,0,736147.618224,Aud,Bilateral,2015-07-02 14:16:00,2_7_2015 level5_250_cooling 14_16 log,9.0,9.0,1311,-30,1.5707963267948966,R,L,0,120
145,0,2750.033,0,2,90,100,501,0.0,3,2751.559,0,736179.697682,Aud,Bilateral,2015-08-03 15:58:00,3_8_2015 level5_100_cooling 15_58 log,9.0,8.0,1311,60,1.5707963267948966,R,R,1,30
47,0,1432.927,0,2,90,250,901,0.0,2,1433.724,1,736147.611205,Aud,Bilateral,2015-07-02 14:16:00,2_7_2015 level5_250_cooling 14_16 log,8.0,9.0,1311,90,1.5707963267948966,R,R,1,0
101,0,2275.113,0,2,90,100,901,0.0,2,2275.84,1,736179.692178,Aud,Bilateral,2015-08-03 15:58:00,3_8_2015 level5_100_cooling 15_58 log,8.0,8.0,1311,90,1.5707963267948966,R,R,1,0
91,0,2039.346,0,2,90,250,1001,0.0,6,2040.013,0,736147.618224,Aud,Bilateral,2015-07-02 14:16:00,2_7_2015 level5_250_cooling 14_16 log,9.0,9.0,1311,-30,1.5707963267948966,R,L,0,120
91,0,2039.346,0,2,90,250,1001,0.0,6,2040.013,0,736147.618224,Aud,Bilateral,2015-07-02 14:16:00,2_7_2015 level5_250_cooling 14_16 log,9.0,9.0,1311,-30,1.5707963267948966,R,L,0,120
47,0,1432.927,0,2,90,250,901,0.0,2,1433.724,1,736147.611205,Aud,Bilateral,2015-07-02 14:16:00,2_7_2015 level5_250_cooling 14_16 log,8.0,9.0,1311,90,1.5707963267948966,R,R,1,0
47,0,1432.927,0,2,90,250,901,0.0,2,1433.724,1,736147.611205,Aud,Bilateral,2015-07-02 14:16:00,2_7_2015 level5_250_cooling 14_16 log,8.0,9.0,1311,90,1.5707963267948966,R,R,1,0
40,0,1148.935,0,2,90,250,751,0.0,3,1149.656,0,736134.704031,Aud,Bilateral,2015-06-19 16:34:00,19_6_2015 level5_250_cooling 16_34 log,8.0,8.0,1311,60,1.5707963267948966,R,R,1,30
59,0,1790.622,0,2,90,100,551,0.0,2,1792.039,1,736179.686576,Aud,Bilateral,2015-08-03 15:58:00,3_8_2015 level5_100_cooling 15_58 log,7.0,8.0,1311,90,1.5707963267948966,R,R,1,0
145,0,2750.033,0,2,90,100,501,0.0,3,2751.559,0,736179.697682,Aud,Bilateral,2015-08-03 15:58:00,3_8_2015 level5_100_cooling 15_58 log,9.0,8.0,1311,60,1.5707963267948966,R,R,1,30
22,0,927.393,0,2,90,250,801,0.0,3,928.269,0,736134.701468,Aud,Bilateral,2015-06-19 16:34:00,19_6_2015 level5_250_cooling 16_34 log,8.0,8.0,1311,60,1.5707963267948966,R,R,1,30
40,0,1148.935,0,2,90,250,751,0.0,3,1149.656,0,736134.704031,Aud,Bilateral,2015-06-19 16:34:00,19_6_2015 level5_250_cooling 16_34 log,8.0,8.0,1311,60,1.5707963267948966,R,R,1,30
145,0,2750.033,0,2,90,100,501,0.0,3,2751.559,0,736179.697682,Aud,Bilateral,2015-08-03 15:58:00,3_8_2015 level5_100_cooling 15_58 log,9.0,8.0,1311,60,1.5707963267948966,R,R,1,30
59,0,1790.622,0,2,90,100,551,0.0,2,1792.039,1,736179.686576,Aud,Bilateral,2015-08-03 15:58:00,3_8_2015 level5_100_cooling 15_58 log,7.0,8.0,1311,90,1.5707963267948966,R,R,1,0
80,0,2000.378,0,2,90,250,501,4.5,2,2001.264,1,736133.72209,Aud,Bilateral,2015-06-18 16:46:00,18_6_2015 level5_250_cooling 16_46 log,8.0,8.0,1311,90,1.5707963267948966,R,R,1,0
16,0,1248.932,0,2,90,100,901,4.5,3,1249.656,0,736179.6803,Aud,Bilateral,2015-08-03 15:58:00,3_8_2015 level5_100_cooling 15_58 log,8.0,8.0,1311,60,1.5707963267948966,R,R,1,30
142,0,2717.604,0,2,90,100,801,4.5,2,2718.713,1,736179.697302,Aud,Bilateral,2015-08-03 15:58:00,3_8_2015 level5_100_cooling 15_58 log,9.0,8.0,1311,90,1.5707963267948966,R,R,1,0
143,0,2562.342,0,2,90,250,851,4.5,2,2563.828,1,736147.624285,Aud,Bilateral,2015-07-02 14:16:00,2_7_2015 level5_250_cooling 14_16 log,9.0,9.0,1311,90,1.5707963267948966,R,R,1,0
14,0,1230.384,0,2,90,100,601,4.5,8,1231.988,0,736179.680095,Aud,Bilateral,2015-08-03 15:58:00,3_8_2015 level5_100_cooling 15_58 log,8.0,8.0,1311,-90,1.5707963267948966,R,L,0,180
80,0,1908.424,0,2,90,250,601,4.5,2,1910.546,1,736147.616723,Aud,Bilateral,2015-07-02 14:16:00,2_7_2015 level5_250_cooling 14_16 log,9.0,9.0,1311,90,1.5707963267948966,R,R,1,0
16,0,1248.932,0,2,90,100,901,4.5,3,1249.656,0,736179.6803,Aud,Bilateral,2015-08-03 15:58:00,3_8_2015 level5_100_cooling 15_58 log,8.0,8.0,1311,60,1.5707963267948966,R,R,1,30
65,0,1856.381,0,2,90,100,601,4.5,2,1858.092,1,736179.687341,Aud,Bilateral,2015-08-03 15:58:00,3_8_2015 level5_100_cooling 15_58 log,8.0,8.0,1311,90,1.5707963267948966,R,R,1,0
10,0,1011.106,0,2,90,250,951,4.5,2,1011.878,1,736147.606323,Aud,Bilateral,2015-07-02 14:16:00,2_7_2015 level5_250_cooling 14_16 log,9.0,10.0,1311,90,1.5707963267948966,R,R,1,0
102,0,2295.007,0,2,90,100,501,4.5,2,2295.839,1,736179.692408,Aud,Bilateral,2015-08-03 15:58:00,3_8_2015 level5_100_cooling 15_58 log,8.0,8.0,1311,90,1.5707963267948966,R,R,1,0
97,0,2233.247,0,2,90,100,751,4.5,2,2234.474,1,736179.691697,Aud,Bilateral,2015-08-03 15:58:00,3_8_2015 level5_100_cooling 15_58 log,8.0,8.0,1311,90,1.5707963267948966,R,R,1,0
142,0,2717.604,0,2,90,100,801,4.5,2,2718.713,1,736179.697302,Aud,Bilateral,2015-08-03 15:58:00,3_8_2015 level5_100_cooling 15_58 log,9.0,8.0,1311,90,1.5707963267948966,R,R,1,0
102,0,2295.007,0,2,90,100,501,4.5,2,2295.839,1,736179.692408,Aud,Bilateral,2015-08-03 15:58:00,3_8_2015 level5_100_cooling 15_58 log,8.0,8.0,1311,90,1.5707963267948966,R,R,1,0
96,0,2220.776,0,2,90,100,701,4.5,2,2221.51,1,736179.691548,Aud,Bilateral,2015-08-03 15:58:00,3_8_2015 level5_100_cooling 15_58 log,8.0,8.0,1311,90,1.5707963267948966,R,R,1,0
10,0,805.508,0,2,90,250,801,4.5,3,806.738,0,736134.700061,Aud,Bilateral,2015-06-19 16:34:00,19_6_2015 level5_250_cooling 16_34 log,8.0,8.0,1311,60,1.5707963267948966,R,R,1,30
15,0,1349.168,0,2,90,250,901,4.5,2,1350.037,1,736133.714553,Aud,Bilateral,2015-06-18 16:46:00,18_6_2015 level5_250_cooling 16_46 log,8.0,8.0,1311,90,1.5707963267948966,R,R,1,0
103,0,2170.339,0,2,90,250,651,4.5,4,2171.334,0,736147.619742,Aud,Bilateral,2015-07-02 14:16:00,2_7_2015 level5_250_cooling 14_16 log,9.0,9.0,1311,30,1.5707963267948966,R,R,1,60
14,0,1056.486,0,2,90,250,701,4.5,3,1057.334,0,736147.606849,Aud,Bilateral,2015-07-02 14:16:00,2_7_2015 level5_250_cooling 14_16 log,9.0,9.0,1311,60,1.5707963267948966,R,R,1,30
16,0,1248.932,0,2,90,100,901,4.5,3,1249.656,0,736179.6803,Aud,Bilateral,2015-08-03 15:58:00,3_8_2015 level5_100_cooling 15_58 log,8.0,8.0,1311,60,1.5707963267948966,R,R,1,30
10,0,1011.106,0,2,90,250,951,4.5,2,1011.878,1,736147.606323,Aud,Bilateral,2015-07-02 14:16:00,2_7_2015 level5_250_cooling 14_16 log,9.0,10.0,1311,90,1.5707963267948966,R,R,1,0
16,0,1248.932,0,2,90,100,901,4.5,3,1249.656,0,736179.6803,Aud,Bilateral,2015-08-03 15:58:00,3_8_2015 level5_100_cooling 15_58 log,8.0,8.0,1311,60,1.5707963267948966,R,R,1,30
40,0,3732.944,1,2,90,250,601,4.5,2,3733.74,1,736146.688843,Aud,Bilateral,2015-07-01 15:29:00,1_7_2015 level5_250_cooling 15_29 log,9.0,9.0,1311,90,1.5707963267948966,R,R,1,0
10,0,805.508,0,2,90,250,801,4.5,3,806.738,0,736134.700061,Aud,Bilateral,2015-06-19 16:34:00,19_6_2015 level5_250_cooling 16_34 log,8.0,8.0,1311,60,1.5707963267948966,R,R,1,30
130,0,2598.243,0,2,90,100,951,9.0,3,2599.592,0,736179.695922,Aud,Bilateral,2015-08-03 15:58:00,3_8_2015 level5_100_cooling 15_58 log,9.0,8.0,1311,60,1.5707963267948966,R,R,1,30
130,0,2598.243,0,2,90,100,951,9.0,3,2599.592,0,736179.695922,Aud,Bilateral,2015-08-03 15:58:00,3_8_2015 level5_100_cooling 15_58 log,9.0,8.0,1311,60,1.5707963267948966,R,R,1,30
80,0,2021.802,0,2,90,100,551,9.0,2,2023.981,1,736179.689261,Aud,Bilateral,2015-08-03 15:58:00,3_8_2015 level5_100_cooling 15_58 log,8.0,8.0,1311,90,1.5707963267948966,R,R,1,0
29,0,1402.221,0,2,90,100,501,9.0,2,1403.35,1,736179.682078,Aud,Bilateral,2015-08-03 15:58:00,3_8_2015 level5_100_cooling 15_58 log,7.0,7.0,1311,90,1.5707963267948966,R,R,1,0
80,0,2021.802,0,2,90,100,551,9.0,2,2023.981,1,736179.689261,Aud,Bilateral,2015-08-03 15:58:00,3_8_2015 level5_100_cooling 15_58 log,8.0,8.0,1311,90,1.5707963267948966,R,R,1,0
88,0,1753.368,0,2,90,250,601,9.0,3,1754.221,0,736134.711028,Aud,Bilateral,2015-06-19 16:34:00,19_6_2015 level5_250_cooling 16_34 log,8.0,8.0,1311,60,1.5707963267948966,R,R,1,30
138,0,2680.281,0,2,90,100,1001,9.0,5,2681.326,0,736179.696869,Aud,Bilateral,2015-08-03 15:58:00,3_8_2015 level5_100_cooling 15_58 log,9.0,8.0,1311,0,1.5707963267948966,R,,0,90
28,0,1387.676,0,2,90,100,651,9.0,2,1389.294,1,736179.681916,Aud,Bilateral,2015-08-03 15:58:00,3_8_2015 level5_100_cooling 15_58 log,7.0,7.0,1311,90,1.5707963267948966,R,R,1,0
28,0,1387.676,0,2,90,100,651,9.0,2,1389.294,1,736179.681916,Aud,Bilateral,2015-08-03 15:58:00,3_8_2015 level5_100_cooling 15_58 log,7.0,7.0,1311,90,1.5707963267948966,R,R,1,0
117,0,2045.715,0,2,90,250,501,9.0,4,2047.232,0,736134.714419,Aud,Bilateral,2015-06-19 16:34:00,19_6_2015 level5_250_cooling 16_34 log,8.0,8.0,1311,30,1.5707963267948966,R,R,1,60
138,0,2680.281,0,2,90,100,1001,9.0,5,2681.326,0,736179.696869,Aud,Bilateral,2015-08-03 15:58:00,3_8_2015 level5_100_cooling 15_58 log,9.0,8.0,1311,0,1.5707963267948966,R,,0,90
75,0,1960.182,0,2,90,100,801,9.0,4,1961.233,0,736179.688535,Aud,Bilateral,2015-08-03 15:58:00,3_8_2015 level5_100_cooling 15_58 log,8.0,8.0,1311,30,1.5707963267948966,R,R,1,60
75,0,1960.182,0,2,90,100,801,9.0,4,1961.233,0,736179.688535,Aud,Bilateral,2015-08-03 15:58:00,3_8_2015 level5_100_cooling 15_58 log,8.0,8.0,1311,30,1.5707963267948966,R,R,1,60
117,0,2045.715,0,2,90,250,501,9.0,4,2047.232,0,736134.714419,Aud,Bilateral,2015-06-19 16:34:00,19_6_2015 level5_250_cooling 16_34 log,8.0,8.0,1311,30,1.5707963267948966,R,R,1,60
29,0,1402.221,0,2,90,100,501,9.0,2,1403.35,1,736179.682078,Aud,Bilateral,2015-08-03 15:58:00,3_8_2015 level5_100_cooling 15_58 log,7.0,7.0,1311,90,1.5707963267948966,R,R,1,0
75,0,1960.182,0,2,90,100,801,9.0,4,1961.233,0,736179.688535,Aud,Bilateral,2015-08-03 15:58:00,3_8_2015 level5_100_cooling 15_58 log,8.0,8.0,1311,30,1.5707963267948966,R,R,1,60
52,0,3857.514,0,2,90,250,1001,9.0,3,3858.263,0,736146.690284,Aud,Bilateral,2015-07-01 15:29:00,1_7_2015 level5_250_cooling 15_29 log,9.0,9.0,1311,60,1.5707963267948966,R,R,1,30
88,0,1753.368,0,2,90,250,601,9.0,3,1754.221,0,736134.711028,Aud,Bilateral,2015-06-19 16:34:00,19_6_2015 level5_250_cooling 16_34 log,8.0,8.0,1311,60,1.5707963267948966,R,R,1,30
80,0,2021.802,0,2,90,100,551,9.0,2,2023.981,1,736179.689261,Aud,Bilateral,2015-08-03 15:58:00,3_8_2015 level5_100_cooling 15_58 log,8.0,8.0,1311,90,1.5707963267948966,R,R,1,0
28,0,1387.676,0,2,90,100,651,9.0,2,1389.294,1,736179.681916,Aud,Bilateral,2015-08-03 15:58:00,3_8_2015 level5_100_cooling 15_58 log,7.0,7.0,1311,90,1.5707963267948966,R,R,1,0
75,0,1960.182,0,2,90,100,801,9.0,4,1961.233,0,736179.688535,Aud,Bilateral,2015-08-03 15:58:00,3_8_2015 level5_100_cooling 15_58 log,8.0,8.0,1311,30,1.5707963267948966,R,R,1,60
55,0,1303.556,0,2,90,250,601,9.0,3,1304.282,0,736134.705822,Aud,Bilateral,2015-06-19 16:34:00,19_6_2015 level5_250_cooling 16_34 log,8.0,8.0,1311,60,1.5707963267948966,R,R,1,30
58,0,1802.438,0,2,90,250,701,9.0,3,1803.802,0,736133.719805,Aud,Bilateral,2015-06-18 16:46:00,18_6_2015 level5_250_cooling 16_46 log,8.0,8.0,1311,60,1.5707963267948966,R,R,1,30
47,0,719.353,0,8,-90,100,951,0.0,8,719.987,1,736183.352096,Aud,Control,2015-08-07 08:15:00,7_8_2015 level5_100_cooling_control 8_15 log,37.0,37.0,1311,-90,-1.5707963267948966,L,L,1,0
84,0,1178.287,0,8,-90,100,901,0.0,8,1180.833,1,736177.412621,Aud,Control,2015-08-01 09:34:00,1_8_2015 level5_100_cooling_control 9_34 log,37.0,37.0,1311,-90,-1.5707963267948966,L,L,1,0
101,0,1437.418,0,8,-90,100,751,0.0,7,1438.278,0,736181.354112,Aud,Control,2015-08-05 08:05:00,5_8_2015 level5_100_cooling_control 8_5 log,37.0,37.0,1311,-60,-1.5707963267948966,L,L,1,30
13,0,529.242,0,8,-90,100,701,0.0,8,531.509,1,736181.343617,Aud,Control,2015-08-05 08:05:00,5_8_2015 level5_100_cooling_control 8_5 log,37.0,37.0,1311,-90,-1.5707963267948966,L,L,1,0
82,0,1206.222,0,8,-90,250,951,0.0,8,1207.028,1,736132.700815,Aud,Control,2015-06-17 16:29:00,17_6_2015 level5_250_cooling_control 16_29 log,37.0,37.0,1311,-90,-1.5707963267948966,L,L,1,0
87,0,1150.5,0,8,-90,100,801,0.0,8,1151.711,1,736179.442777,Aud,Control,2015-08-03 10:18:00,3_8_2015 level5_100_cooling_control 10_18 log,37.0,37.0,1311,-90,-1.5707963267948966,L,L,1,0
38,0,1003.526,0,8,-90,250,701,0.0,8,1004.105,1,736126.357307,Aud,Control,2015-06-11 08:17:00,11_6_2015 level5_250_cooling_control 8_17 log,37.0,37.0,1311,-90,-1.5707963267948966,L,L,1,0
37,0,1040.573,0,8,-90,250,901,0.0,8,1041.245,1,736147.350636,Aud,Control,2015-07-02 08:07:00,2_7_2015 level5_250_cooling_control 8_7 log,37.0,37.0,1311,-90,-1.5707963267948966,L,L,1,0
16,0,252.044,0,8,-90,250,551,0.0,8,254.174,1,736133.461732,Aud,Control,2015-06-18 11:00:00,18_6_2015 level5_250_cooling_control 11_0 log,37.0,37.0,1311,-90,-1.5707963267948966,L,L,1,0
37,0,1040.573,0,8,-90,250,901,0.0,8,1041.245,1,736147.350636,Aud,Control,2015-07-02 08:07:00,2_7_2015 level5_250_cooling_control 8_7 log,37.0,37.0,1311,-90,-1.5707963267948966,L,L,1,0
28,0,714.807,0,8,-90,250,1001,0.0,8,715.386,1,736139.348239,Aud,Control,2015-06-24 08:09:00,24_6_2015 level5_250_cooling_control 8_9 log,37.0,37.0,1311,-90,-1.5707963267948966,L,L,1,0
54,0,773.236,0,8,-90,100,901,0.0,7,774.109,0,736182.373671,Aud,Control,2015-08-06 08:45:00,6_8_2015 level5_100_cooling_control 8_45 log,37.0,37.0,1311,-60,-1.5707963267948966,L,L,1,30
13,0,529.242,0,8,-90,100,701,0.0,8,531.509,1,736181.343617,Aud,Control,2015-08-05 08:05:00,5_8_2015 level5_100_cooling_control 8_5 log,37.0,37.0,1311,-90,-1.5707963267948966,L,L,1,0
89,0,1171.512,0,8,-90,100,801,0.0,8,1172.265,1,736183.35733,Aud,Control,2015-08-07 08:15:00,7_8_2015 level5_100_cooling_control 8_15 log,37.0,37.0,1311,-90,-1.5707963267948966,L,L,1,0
63,0,842.973,0,8,-90,250,501,0.0,8,843.731,1,736133.468556,Aud,Control,2015-06-18 11:00:00,18_6_2015 level5_250_cooling_control 11_0 log,37.0,37.0,1311,-90,-1.5707963267948966,L,L,1,0
27,0,612.523,0,8,-90,250,951,0.0,8,613.317,1,736132.693943,Aud,Control,2015-06-17 16:29:00,17_6_2015 level5_250_cooling_control 16_29 log,37.0,37.0,1311,-90,-1.5707963267948966,L,L,1,0
47,0,719.353,0,8,-90,100,951,0.0,8,719.987,1,736183.352096,Aud,Control,2015-08-07 08:15:00,7_8_2015 level5_100_cooling_control 8_15 log,37.0,37.0,1311,-90,-1.5707963267948966,L,L,1,0
81,0,1034.182,0,8,-90,250,601,0.0,8,1035.034,1,736131.451468,Aud,Control,2015-06-16 10:32:00,16_6_2015 level5_250_cooling_control 10_32 log,37.0,37.0,1311,-90,-1.5707963267948966,L,L,1,0
84,0,1178.287,0,8,-90,100,901,0.0,8,1180.833,1,736177.412621,Aud,Control,2015-08-01 09:34:00,1_8_2015 level5_100_cooling_control 9_34 log,37.0,37.0,1311,-90,-1.5707963267948966,L,L,1,0
19,0,333.288,0,8,-90,250,951,0.0,8,333.878,1,736138.444036,Aud,Control,2015-06-23 10:33:00,23_6_2015 level5_250_cooling_control 10_33 log,37.0,37.0,1311,-90,-1.5707963267948966,L,L,1,0
104,0,1313.575,0,8,-90,100,501,0.0,7,1314.425,0,736179.444659,Aud,Control,2015-08-03 10:18:00,3_8_2015 level5_100_cooling_control 10_18 log,37.0,37.0,1311,-60,-1.5707963267948966,L,L,1,30
55,0,733.894,0,8,-90,250,501,0.0,8,734.762,1,736168.731153,Aud,Control,2015-07-23 17:20:00,23_7_2015 level5_250_cooling_control 17_20 log,37.0,37.0,1311,-90,-1.5707963267948966,L,L,1,0
104,0,1323.665,0,8,-90,100,901,0.0,8,1324.447,1,736183.359091,Aud,Control,2015-08-07 08:15:00,7_8_2015 level5_100_cooling_control 8_15 log,37.0,37.0,1311,-90,-1.5707963267948966,L,L,1,0
11,0,524.359,0,8,-90,250,901,4.5,7,525.483,0,736169.423352,Aud,Control,2015-07-24 10:00:00,24_7_2015 level5_250_cooling_control 10_0 log,37.0,37.0,1311,-60,-1.5707963267948966,L,L,1,30
115,0,1479.053,0,8,-90,250,701,4.5,8,1479.782,1,736132.468467,Aud,Control,2015-06-17 10:49:00,17_6_2015 level5_250_cooling_control 10_49 log,37.0,37.0,1311,-90,-1.5707963267948966,L,L,1,0
111,0,1281.315,0,8,-90,100,751,4.5,7,1282.752,0,736176.460716,Aud,Control,2015-07-31 10:42:00,31_7_2015 level5_100_cooling_control 10_42 log,37.0,37.0,1311,-60,-1.5707963267948966,L,L,1,30
11,0,655.125,0,8,-90,250,501,4.5,8,655.959,1,736126.353275,Aud,Control,2015-06-11 08:17:00,11_6_2015 level5_250_cooling_control 8_17 log,37.0,37.0,1311,-90,-1.5707963267948966,L,L,1,0
2,0,348.307,0,8,-90,250,701,4.5,8,349.298,1,736125.589376,Aud,Control,2015-06-10 14:02:00,10_6_2015 level5_250_cooling_control 14_2 log,37.0,37.0,1311,-90,-1.5707963267948966,L,L,1,0
115,0,1400.762,0,8,-90,250,651,4.5,8,1401.569,1,736134.451961,Aud,Control,2015-06-19 10:27:00,19_6_2015 level5_250_cooling_control 10_27 log,37.0,37.0,1311,-90,-1.5707963267948966,L,L,1,0
22,0,620.978,0,8,-90,100,901,4.5,8,621.641,1,736181.344662,Aud,Control,2015-08-05 08:05:00,5_8_2015 level5_100_cooling_control 8_5 log,37.0,37.0,1311,-90,-1.5707963267948966,L,L,1,0
34,0,585.909,0,8,-90,250,1001,4.5,8,586.877,1,736120.38206,Aud,Control,2015-06-05 09:00:00,5_6_2015 level5_250_cooling_control 9_0  log,37.0,37.0,1311,-90,-1.5707963267948966,L,L,1,0
9,0,157.547,0,8,-90,250,801,4.5,8,158.434,1,736133.460623,Aud,Control,2015-06-18 11:00:00,18_6_2015 level5_250_cooling_control 11_0 log,37.0,37.0,1311,-90,-1.5707963267948966,L,L,1,0
114,0,1684.363,0,8,-90,250,501,4.5,8,1685.258,1,736169.436774,Aud,Control,2015-07-24 10:00:00,24_7_2015 level5_250_cooling_control 10_0 log,37.0,37.0,1311,-90,-1.5707963267948966,L,L,1,0
11,0,540.56,0,8,-90,250,701,4.5,7,541.42,0,736127.351148,Aud,Control,2015-06-12 08:16:00,12_6_2015 level5_250_cooling_control 8_16 log,37.0,37.0,1311,-60,-1.5707963267948966,L,L,1,30
72,0,1327.432,0,8,-90,250,751,4.5,8,1328.434,1,736126.361058,Aud,Control,2015-06-11 08:17:00,11_6_2015 level5_250_cooling_control 8_17 log,37.0,37.0,1311,-90,-1.5707963267948966,L,L,1,0
70,0,1311.172,0,8,-90,250,651,4.5,8,1311.804,1,736126.360868,Aud,Control,2015-06-11 08:17:00,11_6_2015 level5_250_cooling_control 8_17 log,37.0,37.0,1311,-90,-1.5707963267948966,L,L,1,0
10,0,165.035,0,8,-90,100,651,4.5,7,166.282,0,736176.447794,Aud,Control,2015-07-31 10:42:00,31_7_2015 level5_100_cooling_control 10_42 log,37.0,37.0,1311,-60,-1.5707963267948966,L,L,1,30
51,0,664.639,0,8,-90,100,651,4.5,8,665.412,1,736176.453572,Aud,Control,2015-07-31 10:42:00,31_7_2015 level5_100_cooling_control 10_42 log,37.0,37.0,1311,-90,-1.5707963267948966,L,L,1,0
17,0,352.183,0,8,-90,250,601,4.5,8,353.338,1,736120.379358,Aud,Control,2015-06-05 09:00:00,5_6_2015 level5_250_cooling_control 9_0  log,37.0,37.0,1311,-90,-1.5707963267948966,L,L,1,0
79,0,1260.88,0,8,-90,250,801,4.5,8,1261.811,1,736120.389873,Aud,Control,2015-06-05 09:00:00,5_6_2015 level5_250_cooling_control 9_0  log,37.0,37.0,1311,-90,-1.5707963267948966,L,L,1,0
64,0,914.23,0,8,-90,100,651,4.5,8,914.948,1,736177.409545,Aud,Control,2015-08-01 09:34:00,1_8_2015 level5_100_cooling_control 9_34 log,37.0,37.0,1311,-90,-1.5707963267948966,L,L,1,0
51,0,664.639,0,8,-90,100,651,4.5,8,665.412,1,736176.453572,Aud,Control,2015-07-31 10:42:00,31_7_2015 level5_100_cooling_control 10_42 log,37.0,37.0,1311,-90,-1.5707963267948966,L,L,1,0
17,0,352.183,0,8,-90,250,601,4.5,8,353.338,1,736120.379358,Aud,Control,2015-06-05 09:00:00,5_6_2015 level5_250_cooling_control 9_0  log,37.0,37.0,1311,-90,-1.5707963267948966,L,L,1,0
1,0,278.152,0,8,-90,100,1001,4.5,8,278.89,1,736180.444201,Aud,Control,2015-08-04 10:35:00,4_8_2015 level5_100_cooling_control 10_35 log,37.0,37.0,1311,-90,-1.5707963267948966,L,L,1,0
27,0,493.986,0,8,-90,250,951,4.5,8,494.782,1,736134.441466,Aud,Control,2015-06-19 10:27:00,19_6_2015 level5_250_cooling_control 10_27 log,37.0,37.0,1311,-90,-1.5707963267948966,L,L,1,0
19,0,424.15,0,8,-90,100,1001,4.5,7,425.108,0,736183.348681,Aud,Control,2015-08-07 08:15:00,7_8_2015 level5_100_cooling_control 8_15 log,37.0,37.0,1311,-60,-1.5707963267948966,L,L,1,30
81,0,1166.739,0,8,-90,100,801,9.0,8,1167.421,1,736180.454485,Aud,Control,2015-08-04 10:35:00,4_8_2015 level5_100_cooling_control 10_35 log,37.0,37.0,1311,-90,-1.5707963267948966,L,L,1,0
65,0,920.224,0,8,-90,100,851,9.0,8,921.092,1,736182.375372,Aud,Control,2015-08-06 08:45:00,6_8_2015 level5_100_cooling_control 8_45 log,37.0,37.0,1311,-90,-1.5707963267948966,L,L,1,0
13,0,297.3,0,8,-90,250,801,9.0,8,298.313,1,736120.378721,Aud,Control,2015-06-05 09:00:00,5_6_2015 level5_250_cooling_control 9_0  log,37.0,37.0,1311,-90,-1.5707963267948966,L,L,1,0
65,0,920.224,0,8,-90,100,851,9.0,8,921.092,1,736182.375372,Aud,Control,2015-08-06 08:45:00,6_8_2015 level5_100_cooling_control 8_45 log,37.0,37.0,1311,-90,-1.5707963267948966,L,L,1,0
87,0,1364.156,0,8,-90,250,551,9.0,8,1364.875,1,736120.391066,Aud,Control,2015-06-05 09:00:00,5_6_2015 level5_250_cooling_control 9_0  log,37.0,37.0,1311,-90,-1.5707963267948966,L,L,1,0
81,0,1166.739,0,8,-90,100,801,9.0,8,1167.421,1,736180.454485,Aud,Control,2015-08-04 10:35:00,4_8_2015 level5_100_cooling_control 10_35 log,37.0,37.0,1311,-90,-1.5707963267948966,L,L,1,0
85,0,1055.4,0,8,-90,100,701,9.0,8,1056.252,1,736175.470245,Aud,Control,2015-07-30 10:59:00,30_7_2015 level5_100_cooling_control 10_59 log,37.0,37.0,1311,-90,-1.5707963267948966,L,L,1,0
52,0,627.465,0,8,-90,250,501,9.0,8,628.305,1,736169.705128,Aud,Control,2015-07-24 16:44:00,24_7_2015 level5_250_cooling_control 16_44 log,37.0,37.0,1311,-90,-1.5707963267948966,L,L,1,0
78,0,1252.991,0,8,-90,250,651,9.0,8,1253.962,1,736120.389782,Aud,Control,2015-06-05 09:00:00,5_6_2015 level5_250_cooling_control 9_0  log,37.0,37.0,1311,-90,-1.5707963267948966,L,L,1,0
81,0,1019.232,0,8,-90,250,801,9.0,8,1019.983,1,736133.470595,Aud,Control,2015-06-18 11:00:00,18_6_2015 level5_250_cooling_control 11_0 log,37.0,37.0,1311,-90,-1.5707963267948966,L,L,1,0
82,0,1042.387,0,8,-90,250,751,9.0,8,1042.983,1,736131.451563,Aud,Control,2015-06-16 10:32:00,16_6_2015 level5_250_cooling_control 10_32 log,37.0,37.0,1311,-90,-1.5707963267948966,L,L,1,0
63,0,1352.807,1,8,-90,250,951,9.0,8,1353.396,1,736147.35425,Aud,Control,2015-07-02 08:07:00,2_7_2015 level5_250_cooling_control 8_7 log,37.0,37.0,1311,-90,-1.5707963267948966,L,L,1,0
32,0,468.456,1,8,-90,100,751,9.0,8,469.264,1,736175.463452,Aud,Control,2015-07-30 10:59:00,30_7_2015 level5_100_cooling_control 10_59 log,37.0,37.0,1311,-90,-1.5707963267948966,L,L,1,0
100,0,1280.533,0,8,-90,100,801,9.0,8,1281.188,1,736179.444277,Aud,Control,2015-08-03 10:18:00,3_8_2015 level5_100_cooling_control 10_18 log,37.0,37.0,1311,-90,-1.5707963267948966,L,L,1,0
76,0,1146.863,0,8,-90,250,551,9.0,8,1147.95,1,736132.700131,Aud,Control,2015-06-17 16:29:00,17_6_2015 level5_250_cooling_control 16_29 log,37.0,37.0,1311,-90,-1.5707963267948966,L,L,1,0
40,0,556.854,0,8,-90,250,501,9.0,8,557.642,1,736131.445943,Aud,Control,2015-06-16 10:32:00,16_6_2015 level5_250_cooling_control 10_32 log,37.0,37.0,1311,-90,-1.5707963267948966,L,L,1,0
12,0,341.134,0,8,-90,100,501,9.0,8,341.817,1,736183.347719,Aud,Control,2015-08-07 08:15:00,7_8_2015 level5_100_cooling_control 8_15 log,37.0,37.0,1311,-90,-1.5707963267948966,L,L,1,0
30,0,566.436,0,8,-90,100,901,9.0,8,567.196,1,736177.405519,Aud,Control,2015-08-01 09:34:00,1_8_2015 level5_100_cooling_control 9_34 log,37.0,37.0,1311,-90,-1.5707963267948966,L,L,1,0
71,0,882.645,0,8,-90,250,501,9.0,8,883.437,1,736168.732874,Aud,Control,2015-07-23 17:20:00,23_7_2015 level5_250_cooling_control 17_20 log,37.0,37.0,1311,-90,-1.5707963267948966,L,L,1,0
60,0,1095.131,0,8,-90,250,551,9.0,3,1096.522,0,736138.45286,Aud,Control,2015-06-23 10:33:00,23_6_2015 level5_250_cooling_control 10_33 log,37.0,37.0,1311,60,-1.5707963267948966,L,R,0,150
60,0,1095.131,0,8,-90,250,551,9.0,3,1096.522,0,736138.45286,Aud,Control,2015-06-23 10:33:00,23_6_2015 level5_250_cooling_control 10_33 log,37.0,37.0,1311,60,-1.5707963267948966,L,R,0,150
74,0,1164.73,0,8,-90,100,951,9.0,8,1165.41,1,736181.350956,Aud,Control,2015-08-05 08:05:00,5_8_2015 level5_100_cooling_control 8_5 log,37.0,37.0,1311,-90,-1.5707963267948966,L,L,1,0
1,0,85.317,0,8,-90,250,551,9.0,8,86.265,1,736168.723648,Aud,Control,2015-07-23 17:20:00,23_7_2015 level5_250_cooling_control 17_20 log,37.0,37.0,1311,-90,-1.5707963267948966,L,L,1,0
16,0,733.783,1,7,-60,250,1001,0.0,8,742.576,0,736126.354277,Aud,Control,2015-06-11 08:17:00,11_6_2015 level5_250_cooling_control 8_17 log,37.0,37.0,1311,-90,-1.0471975511965976,L,L,1,30
19,0,335.168,0,7,-60,100,651,0.0,6,336.235,0,736175.461912,Aud,Control,2015-07-30 10:59:00,30_7_2015 level5_100_cooling_control 10_59 log,37.0,37.0,1311,-30,-1.0471975511965976,L,L,1,30
1,0,304.641,0,7,-60,100,851,0.0,6,305.549,0,736181.341001,Aud,Control,2015-08-05 08:05:00,5_8_2015 level5_100_cooling_control 8_5 log,37.0,37.0,1311,-30,-1.0471975511965976,L,L,1,30
71,0,972.177,0,7,-60,100,551,0.0,7,973.299,1,736179.440711,Aud,Control,2015-08-03 10:18:00,3_8_2015 level5_100_cooling_control 10_18 log,37.0,37.0,1311,-60,-1.0471975511965976,L,L,1,0
113,0,1464.548,0,7,-60,100,651,0.0,6,1465.535,0,736180.457934,Aud,Control,2015-08-04 10:35:00,4_8_2015 level5_100_cooling_control 10_35 log,37.0,37.0,1311,-30,-1.0471975511965976,L,L,1,30
113,0,1464.548,0,7,-60,100,651,0.0,6,1465.535,0,736180.457934,Aud,Control,2015-08-04 10:35:00,4_8_2015 level5_100_cooling_control 10_35 log,37.0,37.0,1311,-30,-1.0471975511965976,L,L,1,30
29,0,457.239,0,7,-60,250,901,0.0,7,458.31,1,736168.727953,Aud,Control,2015-07-23 17:20:00,23_7_2015 level5_250_cooling_control 17_20 log,37.0,37.0,1311,-60,-1.0471975511965976,L,L,1,0
22,0,599.901,0,7,-60,250,601,0.0,8,600.657,0,736125.592286,Aud,Control,2015-06-10 14:02:00,10_6_2015 level5_250_cooling_control 14_2 log,37.0,37.0,1311,-90,-1.0471975511965976,L,L,1,30
59,0,1038.893,0,7,-60,250,701,0.0,2,1040.349,0,736138.452209,Aud,Control,2015-06-23 10:33:00,23_6_2015 level5_250_cooling_control 10_33 log,37.0,37.0,1311,90,-1.0471975511965976,L,R,0,150
66,0,821.399,0,7,-60,100,601,0.0,7,822.219,1,736176.455385,Aud,Control,2015-07-31 10:42:00,31_7_2015 level5_100_cooling_control 10_42 log,37.0,37.0,1311,-60,-1.0471975511965976,L,L,1,0
1,0,304.641,0,7,-60,100,851,0.0,6,305.549,0,736181.341001,Aud,Control,2015-08-05 08:05:00,5_8_2015 level5_100_cooling_control 8_5 log,37.0,37.0,1311,-30,-1.0471975511965976,L,L,1,30
11,0,178.581,0,7,-60,250,501,0.0,2,180.156,0,736138.442255,Aud,Control,2015-06-23 10:33:00,23_6_2015 level5_250_cooling_control 10_33 log,37.0,37.0,1311,90,-1.0471975511965976,L,R,0,150
84,0,1008.809,0,7,-60,100,801,0.0,7,1009.665,1,736176.457555,Aud,Control,2015-07-31 10:42:00,31_7_2015 level5_100_cooling_control 10_42 log,37.0,37.0,1311,-60,-1.0471975511965976,L,L,1,0
53,0,920.696,0,7,-60,250,501,0.0,8,921.369,0,736125.595998,Aud,Control,2015-06-10 14:02:00,10_6_2015 level5_250_cooling_control 14_2 log,37.0,37.0,1311,-90,-1.0471975511965976,L,L,1,30
57,0,942.164,0,7,-60,250,601,0.0,6,943.749,0,736132.697767,Aud,Control,2015-06-17 16:29:00,17_6_2015 level5_250_cooling_control 16_29 log,37.0,37.0,1311,-30,-1.0471975511965976,L,L,1,30
4,0,121.39,0,7,-60,250,801,0.0,8,122.521,0,736168.724067,Aud,Control,2015-07-23 17:20:00,23_7_2015 level5_250_cooling_control 17_20 log,37.0,37.0,1311,-90,-1.0471975511965976,L,L,1,30
34,0,1004.585,0,7,-60,250,501,0.0,7,1005.362,1,736147.350219,Aud,Control,2015-07-02 08:07:00,2_7_2015 level5_250_cooling_control 8_7 log,37.0,37.0,1311,-60,-1.0471975511965976,L,L,1,0
22,0,349.915,0,7,-60,250,751,0.0,7,351.013,1,736131.443551,Aud,Control,2015-06-16 10:32:00,16_6_2015 level5_250_cooling_control 10_32 log,37.0,37.0,1311,-60,-1.0471975511965976,L,L,1,0
97,0,1240.145,0,7,-60,100,601,0.0,6,1241.099,0,736182.379076,Aud,Control,2015-08-06 08:45:00,6_8_2015 level5_100_cooling_control 8_45 log,37.0,37.0,1311,-30,-1.0471975511965976,L,L,1,30
91,0,1247.7,0,7,-60,100,701,0.0,6,1248.651,0,736177.413405,Aud,Control,2015-08-01 09:34:00,1_8_2015 level5_100_cooling_control 9_34 log,37.0,37.0,1311,-30,-1.0471975511965976,L,L,1,30
4,0,53.974,0,7,-60,250,851,0.0,2,54.981,0,736138.440805,Aud,Control,2015-06-23 10:33:00,23_6_2015 level5_250_cooling_control 10_33 log,37.0,37.0,1311,90,-1.0471975511965976,L,R,0,150
92,0,1144.692,0,7,-60,250,501,0.0,8,1145.398,0,736131.452746,Aud,Control,2015-06-16 10:32:00,16_6_2015 level5_250_cooling_control 10_32 log,37.0,37.0,1311,-90,-1.0471975511965976,L,L,1,30
97,0,1240.145,0,7,-60,100,601,0.0,6,1241.099,0,736182.379076,Aud,Control,2015-08-06 08:45:00,6_8_2015 level5_100_cooling_control 8_45 log,37.0,37.0,1311,-30,-1.0471975511965976,L,L,1,30
66,0,1090.271,0,7,-60,100,801,4.5,7,1091.063,1,736181.350094,Aud,Control,2015-08-05 08:05:00,5_8_2015 level5_100_cooling_control 8_5 log,37.0,37.0,1311,-60,-1.0471975511965976,L,L,1,0
54,0,786.728,0,7,-60,100,851,4.5,8,787.379,0,736183.352876,Aud,Control,2015-08-07 08:15:00,7_8_2015 level5_100_cooling_control 8_15 log,37.0,37.0,1311,-90,-1.0471975511965976,L,L,1,30
117,0,1373.511,0,7,-60,250,901,4.5,6,1384.09,0,736147.354602,Aud,Control,2015-07-02 08:07:00,2_7_2015 level5_250_cooling_control 8_7 log,37.0,37.0,1311,-30,-1.0471975511965976,L,L,1,30
106,0,1344.824,0,7,-60,100,701,4.5,5,1345.879,0,736179.445023,Aud,Control,2015-08-03 10:18:00,3_8_2015 level5_100_cooling_control 10_18 log,37.0,37.0,1311,0,-1.0471975511965976,L,,0,60
66,0,929.721,0,7,-60,100,601,4.5,7,930.653,1,736177.409725,Aud,Control,2015-08-01 09:34:00,1_8_2015 level5_100_cooling_control 9_34 log,37.0,37.0,1311,-60,-1.0471975511965976,L,L,1,0
73,0,1373.511,0,7,-60,250,901,4.5,7,1375.08,1,736147.354499,Aud,Control,2015-07-02 08:07:00,2_7_2015 level5_250_cooling_control 8_7 log,37.0,37.0,1311,-60,-1.0471975511965976,L,L,1,0
88,0,1311.445,0,7,-60,100,651,4.5,7,1312.615,1,736181.352657,Aud,Control,2015-08-05 08:05:00,5_8_2015 level5_100_cooling_control 8_5 log,37.0,37.0,1311,-60,-1.0471975511965976,L,L,1,0
12,0,319.479,0,7,-60,100,701,4.5,5,320.415,0,736182.368421,Aud,Control,2015-08-06 08:45:00,6_8_2015 level5_100_cooling_control 8_45 log,37.0,37.0,1311,0,-1.0471975511965976,L,,0,60
59,0,1316.268,0,7,-60,250,751,4.5,7,1317.625,1,736147.353833,Aud,Control,2015-07-02 08:07:00,2_7_2015 level5_250_cooling_control 8_7 log,37.0,37.0,1311,-60,-1.0471975511965976,L,L,1,0
100,0,1225.037,0,7,-60,250,801,4.5,8,1225.675,0,736133.472979,Aud,Control,2015-06-18 11:00:00,18_6_2015 level5_250_cooling_control 11_0 log,37.0,37.0,1311,-90,-1.0471975511965976,L,L,1,30
114,0,1467.477,0,7,-60,250,951,4.5,8,1468.127,0,736132.468333,Aud,Control,2015-06-17 10:49:00,17_6_2015 level5_250_cooling_control 10_49 log,37.0,37.0,1311,-90,-1.0471975511965976,L,L,1,30
65,0,1373.511,0,7,-60,250,901,4.5,7,1374.3,1,736147.35449,Aud,Control,2015-07-02 08:07:00,2_7_2015 level5_250_cooling_control 8_7 log,37.0,37.0,1311,-60,-1.0471975511965976,L,L,1,0
74,0,1373.511,0,7,-60,250,901,4.5,7,1375.277,1,736147.3545,Aud,Control,2015-07-02 08:07:00,2_7_2015 level5_250_cooling_control 8_7 log,37.0,37.0,1311,-60,-1.0471975511965976,L,L,1,0
63,0,822.63,0,7,-60,100,651,4.5,7,823.552,1,736175.467552,Aud,Control,2015-07-30 10:59:00,30_7_2015 level5_100_cooling_control 10_59 log,37.0,37.0,1311,-60,-1.0471975511965976,L,L,1,0
137,0,1780.84,0,7,-60,100,851,4.5,6,1781.653,0,736181.358086,Aud,Control,2015-08-05 08:05:00,5_8_2015 level5_100_cooling_control 8_5 log,37.0,37.0,1311,-30,-1.0471975511965976,L,L,1,30
63,0,822.63,0,7,-60,100,651,4.5,7,823.552,1,736175.467552,Aud,Control,2015-07-30 10:59:00,30_7_2015 level5_100_cooling_control 10_59 log,37.0,37.0,1311,-60,-1.0471975511965976,L,L,1,0
23,0,407.181,0,7,-60,100,601,4.5,7,410.66,1,736179.434199,Aud,Control,2015-08-03 10:18:00,3_8_2015 level5_100_cooling_control 10_18 log,37.0,37.0,1311,-60,-1.0471975511965976,L,L,1,0
81,0,1373.511,0,7,-60,250,901,4.5,7,1375.997,1,736147.354508,Aud,Control,2015-07-02 08:07:00,2_7_2015 level5_250_cooling_control 8_7 log,37.0,37.0,1311,-60,-1.0471975511965976,L,L,1,0
112,0,1373.511,0,7,-60,250,901,4.5,7,1382.47,1,736147.354587,Aud,Control,2015-07-02 08:07:00,2_7_2015 level5_250_cooling_control 8_7 log,37.0,37.0,1311,-60,-1.0471975511965976,L,L,1,0
86,0,1373.511,0,7,-60,250,901,4.5,7,1375.997,1,736147.354514,Aud,Control,2015-07-02 08:07:00,2_7_2015 level5_250_cooling_control 8_7 log,37.0,37.0,1311,-60,-1.0471975511965976,L,L,1,0
80,0,1218.906,0,7,-60,100,801,4.5,7,1219.874,1,736181.351584,Aud,Control,2015-08-05 08:05:00,5_8_2015 level5_100_cooling_control 8_5 log,37.0,37.0,1311,-60,-1.0471975511965976,L,L,1,0
100,0,1225.037,0,7,-60,250,801,4.5,8,1225.675,0,736133.472979,Aud,Control,2015-06-18 11:00:00,18_6_2015 level5_250_cooling_control 11_0 log,37.0,37.0,1311,-90,-1.0471975511965976,L,L,1,30
70,0,1373.511,0,7,-60,250,901,4.5,7,1374.858,1,736147.354495,Aud,Control,2015-07-02 08:07:00,2_7_2015 level5_250_cooling_control 8_7 log,37.0,37.0,1311,-60,-1.0471975511965976,L,L,1,0
90,0,1326.711,0,7,-60,100,551,9.0,6,1328.147,0,736181.352838,Aud,Control,2015-08-05 08:05:00,5_8_2015 level5_100_cooling_control 8_5 log,37.0,37.0,1311,-30,-1.0471975511965976,L,L,1,30
49,0,677.864,0,7,-60,250,901,9.0,7,678.918,1,736168.730506,Aud,Control,2015-07-23 17:20:00,23_7_2015 level5_250_cooling_control 17_20 log,37.0,37.0,1311,-60,-1.0471975511965976,L,L,1,0
85,0,1133.893,0,7,-60,100,951,9.0,7,1134.704,1,736183.356894,Aud,Control,2015-08-07 08:15:00,7_8_2015 level5_100_cooling_control 8_15 log,37.0,37.0,1311,-60,-1.0471975511965976,L,L,1,0
79,0,1053.965,0,7,-60,100,801,9.0,6,1055.173,0,736182.376924,Aud,Control,2015-08-06 08:45:00,6_8_2015 level5_100_cooling_control 8_45 log,37.0,37.0,1311,-30,-1.0471975511965976,L,L,1,30
89,0,1051.14,0,7,-60,250,601,9.0,7,1052.053,1,736168.734825,Aud,Control,2015-07-23 17:20:00,23_7_2015 level5_250_cooling_control 17_20 log,37.0,37.0,1311,-60,-1.0471975511965976,L,L,1,0
53,0,711.295,0,7,-60,250,751,9.0,7,713.584,1,736131.447747,Aud,Control,2015-06-16 10:32:00,16_6_2015 level5_250_cooling_control 10_32 log,37.0,37.0,1311,-60,-1.0471975511965976,L,L,1,0
44,0,701.819,0,7,-60,100,601,9.0,7,703.29,1,736177.407094,Aud,Control,2015-08-01 09:34:00,1_8_2015 level5_100_cooling_control 9_34 log,37.0,37.0,1311,-60,-1.0471975511965976,L,L,1,0
68,0,1227.979,0,7,-60,250,1001,9.0,6,1229.775,0,736169.431502,Aud,Control,2015-07-24 10:00:00,24_7_2015 level5_250_cooling_control 10_0 log,37.0,37.0,1311,-30,-1.0471975511965976,L,L,1,30
3,0,368.506,0,7,-60,100,801,9.0,6,369.272,0,736181.34174,Aud,Control,2015-08-05 08:05:00,5_8_2015 level5_100_cooling_control 8_5 log,37.0,37.0,1311,-30,-1.0471975511965976,L,L,1,30
108,0,1388.094,0,7,-60,100,751,9.0,2,1392.472,0,736183.359878,Aud,Control,2015-08-07 08:15:00,7_8_2015 level5_100_cooling_control 8_15 log,37.0,37.0,1311,90,-1.0471975511965976,L,R,0,150
77,0,1049.6,0,7,-60,100,651,9.0,6,1053.462,0,736183.355953,Aud,Control,2015-08-07 08:15:00,7_8_2015 level5_100_cooling_control 8_15 log,37.0,37.0,1311,-30,-1.0471975511965976,L,L,1,30
114,0,1476.337,0,7,-60,100,701,9.0,6,1477.162,0,736180.458068,Aud,Control,2015-08-04 10:35:00,4_8_2015 level5_100_cooling_control 10_35 log,37.0,37.0,1311,-30,-1.0471975511965976,L,L,1,30
8,0,445.258,0,7,-60,250,901,9.0,8,447.547,0,736125.590512,Aud,Control,2015-06-10 14:02:00,10_6_2015 level5_250_cooling_control 14_2 log,37.0,37.0,1311,-90,-1.0471975511965976,L,L,1,30
33,0,534.409,1,7,-60,100,651,9.0,6,535.219,0,736182.370907,Aud,Control,2015-08-06 08:45:00,6_8_2015 level5_100_cooling_control 8_45 log,37.0,37.0,1311,-30,-1.0471975511965976,L,L,1,30
24,0,380.329,0,7,-60,250,601,9.0,7,381.619,1,736131.443906,Aud,Control,2015-06-16 10:32:00,16_6_2015 level5_250_cooling_control 10_32 log,37.0,37.0,1311,-60,-1.0471975511965976,L,L,1,0
88,0,1146.895,0,7,-60,100,1001,9.0,6,1147.758,0,736182.377996,Aud,Control,2015-08-06 08:45:00,6_8_2015 level5_100_cooling_control 8_45 log,37.0,37.0,1311,-30,-1.0471975511965976,L,L,1,30
5,0,67.651,0,7,-60,100,751,9.0,8,68.867,0,736176.446666,Aud,Control,2015-07-31 10:42:00,31_7_2015 level5_100_cooling_control 10_42 log,37.0,37.0,1311,-90,-1.0471975511965976,L,L,1,30
32,0,722.054,0,7,-60,250,551,9.0,7,723.039,1,736125.593701,Aud,Control,2015-06-10 14:02:00,10_6_2015 level5_250_cooling_control 14_2 log,37.0,37.0,1311,-60,-1.0471975511965976,L,L,1,0
2,0,129.631,0,7,-60,250,1001,9.0,8,131.634,0,736120.376792,Aud,Control,2015-06-05 09:00:00,5_6_2015 level5_250_cooling_control 9_0  log,37.0,37.0,1311,-90,-1.0471975511965976,L,L,1,30
2,0,44.809,0,7,-60,250,751,9.0,7,45.614,1,736169.698384,Aud,Control,2015-07-24 16:44:00,24_7_2015 level5_250_cooling_control 16_44 log,37.0,37.0,1311,-60,-1.0471975511965976,L,L,1,0
103,0,1743.994,0,7,-60,250,551,9.0,7,1745.152,1,736127.365081,Aud,Control,2015-06-12 08:16:00,12_6_2015 level5_250_cooling_control 8_16 log,37.0,37.0,1311,-60,-1.0471975511965976,L,L,1,0
20,0,345.101,0,7,-60,100,851,9.0,6,346.087,0,736175.462026,Aud,Control,2015-07-30 10:59:00,30_7_2015 level5_100_cooling_control 10_59 log,37.0,37.0,1311,-30,-1.0471975511965976,L,L,1,30
21,0,630.907,0,7,-60,250,901,9.0,6,632.404,0,736169.424589,Aud,Control,2015-07-24 10:00:00,24_7_2015 level5_250_cooling_control 10_0 log,37.0,37.0,1311,-30,-1.0471975511965976,L,L,1,30
110,0,1431.038,0,6,-30,100,1001,0.0,7,1433.625,0,736183.360354,Aud,Control,2015-08-07 08:15:00,7_8_2015 level5_100_cooling_control 8_15 log,37.0,37.0,1311,-60,-0.5235987755982988,L,L,1,30
47,0,700.208,0,6,-30,100,751,0.0,6,700.955,1,736179.437561,Aud,Control,2015-08-03 10:18:00,3_8_2015 level5_100_cooling_control 10_18 log,37.0,37.0,1311,-30,-0.5235987755982988,L,L,1,0
34,0,494.585,0,6,-30,100,851,0.0,2,495.864,0,736176.451608,Aud,Control,2015-07-31 10:42:00,31_7_2015 level5_100_cooling_control 10_42 log,37.0,37.0,1311,90,-0.5235987755982988,L,R,0,120
37,0,763.822,0,6,-30,250,801,0.0,7,764.686,0,736125.594183,Aud,Control,2015-06-10 14:02:00,10_6_2015 level5_250_cooling_control 14_2 log,37.0,37.0,1311,-60,-0.5235987755982988,L,L,1,30
