Trial,CorrectionTrial,StartTime,CenterReward,SpkrIdx,SpkrPos,duration,HoldTime,Atten,Response,RespTime,Correct,ComputerTime,Modality,Condition,SessionDate,originalFile,LeftTemperature,RightTemperature,fNum,ResponseAngle,Spkr_Rad,spkr_hemifield,resp_hemifield,LatCorrect,Error
103,0,1881.89,0,8,-90,250,851,0.0,8,1882.796,1,736159.701184,Aud,Left,2015-07-14 16:18:00,14_7_2015 level5_250_cooling 16_18 log,10.0,34.0,1311,-90,-1.5707963267948966,L,L,1,0
63,0,2696.15,0,8,-90,100,651,0.0,8,2696.82,1,736181.597113,Aud,Left,2015-08-05 13:34:00,5_8_2015 level5_100_cooling 13_34 log,7.0,34.0,1311,-90,-1.5707963267948966,L,L,1,0
34,0,1093.804,0,8,-90,250,551,0.0,8,1094.568,1,736159.692062,Aud,Left,2015-07-14 16:18:00,14_7_2015 level5_250_cooling 16_18 log,9.0,35.0,1311,-90,-1.5707963267948966,L,L,1,0
19,0,1240.018,0,8,-90,250,1001,0.0,8,1241.286,1,736126.594605,Aud,Left,2015-06-11 13:55:00,11_6_2015 level5_250_cooling 13_55 log,9.0,34.0,1311,-90,-1.5707963267948966,L,L,1,0
34,0,387.34,0,8,-90,250,901,0.0,8,388.166,1,736167.696872,Aud,Left,2015-07-22 16:37:00,22_7_2015 level5_250_cooling 16_37 log,10.0,35.0,1311,-90,-1.5707963267948966,L,L,1,0
3,0,2057.347,0,8,-90,100,1001,0.0,8,2058.862,1,736181.589727,Aud,Left,2015-08-05 13:34:00,5_8_2015 level5_100_cooling 13_34 log,11.0,35.0,1311,-90,-1.5707963267948966,L,L,1,0
56,0,2608.889,0,8,-90,100,901,0.0,8,2609.496,1,736181.596102,Aud,Left,2015-08-05 13:34:00,5_8_2015 level5_100_cooling 13_34 log,8.0,34.0,1311,-90,-1.5707963267948966,L,L,1,0
46,0,1134.753,0,8,-90,250,851,0.0,8,1135.585,1,736131.695771,Aud,Left,2015-06-16 16:23:00,16_6_2015 level5_250_cooling 16_23 log,9.0,34.0,1311,-90,-1.5707963267948966,L,L,1,0
31,0,2350.886,0,8,-90,100,501,0.0,8,2351.867,1,736181.593118,Aud,Left,2015-08-05 13:34:00,5_8_2015 level5_100_cooling 13_34 log,8.0,34.0,1311,-90,-1.5707963267948966,L,L,1,0
28,0,2319.121,0,8,-90,100,601,0.0,8,2319.904,1,736181.592749,Aud,Left,2015-08-05 13:34:00,5_8_2015 level5_100_cooling 13_34 log,8.0,34.0,1311,-90,-1.5707963267948966,L,L,1,0
3,0,2057.347,0,8,-90,100,1001,0.0,8,2058.862,1,736181.589727,Aud,Left,2015-08-05 13:34:00,5_8_2015 level5_100_cooling 13_34 log,11.0,35.0,1311,-90,-1.5707963267948966,L,L,1,0
34,0,387.34,0,8,-90,250,901,0.0,8,388.166,1,736167.696872,Aud,Left,2015-07-22 16:37:00,22_7_2015 level5_250_cooling 16_37 log,10.0,35.0,1311,-90,-1.5707963267948966,L,L,1,0
10,0,2137.153,0,8,-90,100,551,0.0,8,2137.873,1,736181.590643,Aud,Left,2015-08-05 13:34:00,5_8_2015 level5_100_cooling 13_34 log,8.0,35.0,1311,-90,-1.5707963267948966,L,L,1,0
56,0,2608.889,0,8,-90,100,901,0.0,8,2609.496,1,736181.596102,Aud,Left,2015-08-05 13:34:00,5_8_2015 level5_100_cooling 13_34 log,8.0,34.0,1311,-90,-1.5707963267948966,L,L,1,0
46,0,1134.753,0,8,-90,250,851,0.0,8,1135.585,1,736131.695771,Aud,Left,2015-06-16 16:23:00,16_6_2015 level5_250_cooling 16_23 log,9.0,34.0,1311,-90,-1.5707963267948966,L,L,1,0
102,0,2747.825,0,8,-90,100,651,0.0,8,2748.43,1,736183.600878,Aud,Left,2015-08-07 13:39:00,7_8_2015 level5_100_cooling 13_39 log,8.0,34.0,1311,-90,-1.5707963267948966,L,L,1,0
103,0,1881.89,0,8,-90,250,851,0.0,8,1882.796,1,736159.701184,Aud,Left,2015-07-14 16:18:00,14_7_2015 level5_250_cooling 16_18 log,10.0,34.0,1311,-90,-1.5707963267948966,L,L,1,0
19,0,1864.68,0,8,-90,100,601,0.0,8,1865.454,1,736183.590657,Aud,Left,2015-08-07 13:39:00,7_8_2015 level5_100_cooling 13_39 log,8.0,35.0,1311,-90,-1.5707963267948966,L,L,1,0
102,0,2747.825,0,8,-90,100,651,0.0,8,2748.43,1,736183.600878,Aud,Left,2015-08-07 13:39:00,7_8_2015 level5_100_cooling 13_39 log,8.0,34.0,1311,-90,-1.5707963267948966,L,L,1,0
102,0,3061.428,0,8,-90,100,901,0.0,8,3062.154,1,736181.60134,Aud,Left,2015-08-05 13:34:00,5_8_2015 level5_100_cooling 13_34 log,8.0,34.0,1311,-90,-1.5707963267948966,L,L,1,0
44,0,2114.79,0,8,-90,100,751,0.0,8,2115.438,1,736183.593552,Aud,Left,2015-08-07 13:39:00,7_8_2015 level5_100_cooling 13_39 log,8.0,34.0,1311,-90,-1.5707963267948966,L,L,1,0
28,0,2319.121,0,8,-90,100,601,0.0,8,2319.904,1,736181.592749,Aud,Left,2015-08-05 13:34:00,5_8_2015 level5_100_cooling 13_34 log,8.0,34.0,1311,-90,-1.5707963267948966,L,L,1,0
19,0,1864.68,0,8,-90,100,601,0.0,8,1865.454,1,736183.590657,Aud,Left,2015-08-07 13:39:00,7_8_2015 level5_100_cooling 13_39 log,8.0,35.0,1311,-90,-1.5707963267948966,L,L,1,0
19,0,1272.35,0,8,-90,250,601,4.5,7,1273.315,0,736148.678894,Aud,Left,2015-07-03 15:56:00,3_7_2015 level5_250_cooling 15_56 log,11.0,35.0,1311,-60,-1.5707963267948966,L,L,1,30
119,0,2901.494,0,8,-90,100,951,4.5,8,2902.185,1,736183.602657,Aud,Left,2015-08-07 13:39:00,7_8_2015 level5_100_cooling 13_39 log,9.0,34.0,1311,-90,-1.5707963267948966,L,L,1,0
119,0,2901.494,0,8,-90,100,951,4.5,8,2902.185,1,736183.602657,Aud,Left,2015-08-07 13:39:00,7_8_2015 level5_100_cooling 13_39 log,9.0,34.0,1311,-90,-1.5707963267948966,L,L,1,0
33,0,2011.893,0,8,-90,100,851,4.5,8,2012.745,1,736183.592361,Aud,Left,2015-08-07 13:39:00,7_8_2015 level5_100_cooling 13_39 log,8.0,35.0,1311,-90,-1.5707963267948966,L,L,1,0
87,0,2926.997,0,8,-90,100,901,4.5,8,2927.643,1,736181.599784,Aud,Left,2015-08-05 13:34:00,5_8_2015 level5_100_cooling 13_34 log,8.0,34.0,1311,-90,-1.5707963267948966,L,L,1,0
78,0,2849.581,0,8,-90,100,551,4.5,8,2850.328,1,736181.598889,Aud,Left,2015-08-05 13:34:00,5_8_2015 level5_100_cooling 13_34 log,7.0,34.0,1311,-90,-1.5707963267948966,L,L,1,0
47,0,2142.353,0,8,-90,100,1001,4.5,8,2143.155,1,736183.593871,Aud,Left,2015-08-07 13:39:00,7_8_2015 level5_100_cooling 13_39 log,8.0,34.0,1311,-90,-1.5707963267948966,L,L,1,0
126,0,1412.209,0,8,-90,250,551,4.5,8,1413.753,1,736167.708742,Aud,Left,2015-07-22 16:37:00,22_7_2015 level5_250_cooling 16_37 log,11.0,34.0,1311,-90,-1.5707963267948966,L,L,1,0
101,0,2740.25,0,8,-90,100,851,4.5,8,2740.917,1,736183.60079,Aud,Left,2015-08-07 13:39:00,7_8_2015 level5_100_cooling 13_39 log,8.0,34.0,1311,-90,-1.5707963267948966,L,L,1,0
8,0,679.187,0,8,-90,250,701,4.5,8,680.313,1,736131.6905,Aud,Left,2015-06-16 16:23:00,16_6_2015 level5_250_cooling 16_23 log,9.0,34.0,1311,-90,-1.5707963267948966,L,L,1,0
126,0,1412.209,0,8,-90,250,551,4.5,8,1413.753,1,736167.708742,Aud,Left,2015-07-22 16:37:00,22_7_2015 level5_250_cooling 16_37 log,11.0,34.0,1311,-90,-1.5707963267948966,L,L,1,0
8,0,679.187,0,8,-90,250,701,4.5,8,680.313,1,736131.6905,Aud,Left,2015-06-16 16:23:00,16_6_2015 level5_250_cooling 16_23 log,9.0,34.0,1311,-90,-1.5707963267948966,L,L,1,0
87,0,2009.783,0,8,-90,250,501,4.5,8,2010.684,1,736126.60351,Aud,Left,2015-06-11 13:55:00,11_6_2015 level5_250_cooling 13_55 log,9.0,34.0,1311,-90,-1.5707963267948966,L,L,1,0
42,0,1237.85,0,8,-90,250,601,4.5,8,1239.714,1,736159.693741,Aud,Left,2015-07-14 16:18:00,14_7_2015 level5_250_cooling 16_18 log,9.0,34.0,1311,-90,-1.5707963267948966,L,L,1,0
8,0,679.187,0,8,-90,250,701,4.5,8,680.313,1,736131.6905,Aud,Left,2015-06-16 16:23:00,16_6_2015 level5_250_cooling 16_23 log,9.0,34.0,1311,-90,-1.5707963267948966,L,L,1,0
87,0,2926.997,0,8,-90,100,901,4.5,8,2927.643,1,736181.599784,Aud,Left,2015-08-05 13:34:00,5_8_2015 level5_100_cooling 13_34 log,8.0,34.0,1311,-90,-1.5707963267948966,L,L,1,0
19,0,1272.35,0,8,-90,250,601,4.5,7,1273.315,0,736148.678894,Aud,Left,2015-07-03 15:56:00,3_7_2015 level5_250_cooling 15_56 log,11.0,35.0,1311,-60,-1.5707963267948966,L,L,1,30
62,0,1314.572,0,8,-90,250,951,4.5,8,1315.338,1,736131.697851,Aud,Left,2015-06-16 16:23:00,16_6_2015 level5_250_cooling 16_23 log,9.0,34.0,1311,-90,-1.5707963267948966,L,L,1,0
40,0,1484.81,0,8,-90,250,501,4.5,8,1485.579,1,736126.597433,Aud,Left,2015-06-11 13:55:00,11_6_2015 level5_250_cooling 13_55 log,8.0,34.0,1311,-90,-1.5707963267948966,L,L,1,0
42,0,1237.85,0,8,-90,250,601,4.5,8,1239.714,1,736159.693741,Aud,Left,2015-07-14 16:18:00,14_7_2015 level5_250_cooling 16_18 log,9.0,34.0,1311,-90,-1.5707963267948966,L,L,1,0
42,0,1237.85,0,8,-90,250,601,4.5,8,1239.714,1,736159.693741,Aud,Left,2015-07-14 16:18:00,14_7_2015 level5_250_cooling 16_18 log,9.0,34.0,1311,-90,-1.5707963267948966,L,L,1,0
83,0,2545.409,0,8,-90,100,801,4.5,7,2546.323,0,736183.598537,Aud,Left,2015-08-07 13:39:00,7_8_2015 level5_100_cooling 13_39 log,8.0,35.0,1311,-60,-1.5707963267948966,L,L,1,30
94,0,2985.184,0,8,-90,100,651,4.5,8,2985.773,1,736181.600458,Aud,Left,2015-08-05 13:34:00,5_8_2015 level5_100_cooling 13_34 log,8.0,34.0,1311,-90,-1.5707963267948966,L,L,1,0
77,0,828.452,0,8,-90,250,501,9.0,8,829.627,1,736167.701981,Aud,Left,2015-07-22 16:37:00,22_7_2015 level5_250_cooling 16_37 log,10.0,34.0,1311,-90,-1.5707963267948966,L,L,1,0
96,0,2172.512,0,8,-90,250,801,9.0,8,2173.349,1,736148.689312,Aud,Left,2015-07-03 15:56:00,3_7_2015 level5_250_cooling 15_56 log,11.0,34.0,1311,-90,-1.5707963267948966,L,L,1,0
96,0,2172.512,0,8,-90,250,801,9.0,8,2173.349,1,736148.689312,Aud,Left,2015-07-03 15:56:00,3_7_2015 level5_250_cooling 15_56 log,11.0,34.0,1311,-90,-1.5707963267948966,L,L,1,0
69,0,1822.693,0,8,-90,250,751,9.0,8,1823.567,1,736126.601344,Aud,Left,2015-06-11 13:55:00,11_6_2015 level5_250_cooling 13_55 log,9.0,34.0,1311,-90,-1.5707963267948966,L,L,1,0
77,0,828.452,0,8,-90,250,501,9.0,8,829.627,1,736167.701981,Aud,Left,2015-07-22 16:37:00,22_7_2015 level5_250_cooling 16_37 log,10.0,34.0,1311,-90,-1.5707963267948966,L,L,1,0
27,0,306.327,0,8,-90,250,651,9.0,8,307.061,1,736167.695934,Aud,Left,2015-07-22 16:37:00,22_7_2015 level5_250_cooling 16_37 log,11.0,35.0,1311,-90,-1.5707963267948966,L,L,1,0
117,0,2387.678,0,8,-90,250,601,9.0,8,2388.677,1,736148.691804,Aud,Left,2015-07-03 15:56:00,3_7_2015 level5_250_cooling 15_56 log,10.0,35.0,1311,-90,-1.5707963267948966,L,L,1,0
27,0,1365.084,0,8,-90,250,501,9.0,8,1365.825,1,736148.679967,Aud,Left,2015-07-03 15:56:00,3_7_2015 level5_250_cooling 15_56 log,11.0,35.0,1311,-90,-1.5707963267948966,L,L,1,0
35,0,1456.081,0,8,-90,250,901,9.0,8,1456.794,1,736148.68102,Aud,Left,2015-07-03 15:56:00,3_7_2015 level5_250_cooling 15_56 log,11.0,35.0,1311,-90,-1.5707963267948966,L,L,1,0
125,0,2965.934,0,8,-90,100,851,9.0,8,2966.574,1,736183.603404,Aud,Left,2015-08-07 13:39:00,7_8_2015 level5_100_cooling 13_39 log,9.0,34.0,1311,-90,-1.5707963267948966,L,L,1,0
103,0,2172.32,0,8,-90,250,851,9.0,8,2172.963,1,736126.605391,Aud,Left,2015-06-11 13:55:00,11_6_2015 level5_250_cooling 13_55 log,9.0,34.0,1311,-90,-1.5707963267948966,L,L,1,0
113,0,1964.799,0,8,-90,250,651,9.0,8,1965.871,1,736159.702146,Aud,Left,2015-07-14 16:18:00,14_7_2015 level5_250_cooling 16_18 log,10.0,34.0,1311,-90,-1.5707963267948966,L,L,1,0
41,0,1074.131,0,8,-90,250,501,9.0,8,1075.002,1,736131.695069,Aud,Left,2015-06-16 16:23:00,16_6_2015 level5_250_cooling 16_23 log,9.0,34.0,1311,-90,-1.5707963267948966,L,L,1,0
27,0,306.327,0,8,-90,250,651,9.0,8,307.061,1,736167.695934,Aud,Left,2015-07-22 16:37:00,22_7_2015 level5_250_cooling 16_37 log,11.0,35.0,1311,-90,-1.5707963267948966,L,L,1,0
125,0,2965.934,0,8,-90,100,851,9.0,8,2966.574,1,736183.603404,Aud,Left,2015-08-07 13:39:00,7_8_2015 level5_100_cooling 13_39 log,9.0,34.0,1311,-90,-1.5707963267948966,L,L,1,0
125,0,2965.934,0,8,-90,100,851,9.0,8,2966.574,1,736183.603404,Aud,Left,2015-08-07 13:39:00,7_8_2015 level5_100_cooling 13_39 log,9.0,34.0,1311,-90,-1.5707963267948966,L,L,1,0
27,0,1365.084,0,8,-90,250,501,9.0,8,1365.825,1,736148.679967,Aud,Left,2015-07-03 15:56:00,3_7_2015 level5_250_cooling 15_56 log,11.0,35.0,1311,-90,-1.5707963267948966,L,L,1,0
55,0,2601.47,0,8,-90,100,701,9.0,8,2602.346,1,736181.596017,Aud,Left,2015-08-05 13:34:00,5_8_2015 level5_100_cooling 13_34 log,8.0,34.0,1311,-90,-1.5707963267948966,L,L,1,0
41,0,1074.131,0,8,-90,250,501,9.0,8,1075.002,1,736131.695069,Aud,Left,2015-06-16 16:23:00,16_6_2015 level5_250_cooling 16_23 log,9.0,34.0,1311,-90,-1.5707963267948966,L,L,1,0
69,0,1822.693,0,8,-90,250,751,9.0,8,1823.567,1,736126.601344,Aud,Left,2015-06-11 13:55:00,11_6_2015 level5_250_cooling 13_55 log,9.0,34.0,1311,-90,-1.5707963267948966,L,L,1,0
61,0,2676.115,0,8,-90,100,851,9.0,8,2676.9,1,736181.59688,Aud,Left,2015-08-05 13:34:00,5_8_2015 level5_100_cooling 13_34 log,8.0,34.0,1311,-90,-1.5707963267948966,L,L,1,0
61,0,2676.115,0,8,-90,100,851,9.0,8,2676.9,1,736181.59688,Aud,Left,2015-08-05 13:34:00,5_8_2015 level5_100_cooling 13_34 log,8.0,34.0,1311,-90,-1.5707963267948966,L,L,1,0
90,0,2632.688,0,8,-90,100,851,9.0,8,2633.565,1,736183.599546,Aud,Left,2015-08-07 13:39:00,7_8_2015 level5_100_cooling 13_39 log,8.0,34.0,1311,-90,-1.5707963267948966,L,L,1,0
15,0,170.235,0,7,-60,250,651,0.0,8,171.317,0,736167.694361,Aud,Left,2015-07-22 16:37:00,22_7_2015 level5_250_cooling 16_37 log,9.0,35.0,1311,-90,-1.0471975511965976,L,L,1,30
122,0,2937.839,0,7,-60,100,501,0.0,7,2938.6,1,736183.603078,Aud,Left,2015-08-07 13:39:00,7_8_2015 level5_100_cooling 13_39 log,9.0,34.0,1311,-60,-1.0471975511965976,L,L,1,0
15,0,170.235,0,7,-60,250,651,0.0,8,171.317,0,736167.694361,Aud,Left,2015-07-22 16:37:00,22_7_2015 level5_250_cooling 16_37 log,9.0,35.0,1311,-90,-1.0471975511965976,L,L,1,30
85,0,2566.089,0,7,-60,100,551,0.0,7,2567.153,1,736183.598778,Aud,Left,2015-08-07 13:39:00,7_8_2015 level5_100_cooling 13_39 log,8.0,35.0,1311,-60,-1.0471975511965976,L,L,1,0
13,0,2162.473,0,7,-60,100,501,0.0,8,2163.265,0,736181.590936,Aud,Left,2015-08-05 13:34:00,5_8_2015 level5_100_cooling 13_34 log,8.0,34.0,1311,-90,-1.0471975511965976,L,L,1,30
15,0,170.235,0,7,-60,250,651,0.0,8,171.317,0,736167.694361,Aud,Left,2015-07-22 16:37:00,22_7_2015 level5_250_cooling 16_37 log,9.0,35.0,1311,-90,-1.0471975511965976,L,L,1,30
15,0,170.235,0,7,-60,250,651,0.0,8,171.317,0,736167.694361,Aud,Left,2015-07-22 16:37:00,22_7_2015 level5_250_cooling 16_37 log,9.0,35.0,1311,-90,-1.0471975511965976,L,L,1,30
3,0,1015.673,0,7,-60,250,1001,0.0,7,1018.542,1,736126.592027,Aud,Left,2015-06-11 13:55:00,11_6_2015 level5_250_cooling 13_55 log,9.0,35.0,1311,-60,-1.0471975511965976,L,L,1,0
1,0,1067.214,0,7,-60,250,901,0.0,7,1068.154,1,736148.67652,Aud,Left,2015-07-03 15:56:00,3_7_2015 level5_250_cooling 15_56 log,12.0,36.0,1311,-60,-1.0471975511965976,L,L,1,0
35,0,2034.418,0,7,-60,100,601,0.0,7,2035.2,1,736183.592623,Aud,Left,2015-08-07 13:39:00,7_8_2015 level5_100_cooling 13_39 log,8.0,35.0,1311,-60,-1.0471975511965976,L,L,1,0
58,0,2628.117,0,7,-60,100,601,0.0,8,2628.83,0,736181.596325,Aud,Left,2015-08-05 13:34:00,5_8_2015 level5_100_cooling 13_34 log,8.0,34.0,1311,-90,-1.0471975511965976,L,L,1,30
79,0,1631.905,0,7,-60,250,651,0.0,7,1632.815,1,736159.698291,Aud,Left,2015-07-14 16:18:00,14_7_2015 level5_250_cooling 16_18 log,10.0,34.0,1311,-60,-1.0471975511965976,L,L,1,0
3,0,1015.673,0,7,-60,250,1001,0.0,7,1018.542,1,736126.592027,Aud,Left,2015-06-11 13:55:00,11_6_2015 level5_250_cooling 13_55 log,9.0,35.0,1311,-60,-1.0471975511965976,L,L,1,0
35,0,2034.418,0,7,-60,100,601,0.0,7,2035.2,1,736183.592623,Aud,Left,2015-08-07 13:39:00,7_8_2015 level5_100_cooling 13_39 log,8.0,35.0,1311,-60,-1.0471975511965976,L,L,1,0
58,0,2628.117,0,7,-60,100,601,0.0,8,2628.83,0,736181.596325,Aud,Left,2015-08-05 13:34:00,5_8_2015 level5_100_cooling 13_34 log,8.0,34.0,1311,-90,-1.0471975511965976,L,L,1,30
78,0,2496.307,0,7,-60,100,751,0.0,8,2497.016,0,736183.597968,Aud,Left,2015-08-07 13:39:00,7_8_2015 level5_100_cooling 13_39 log,8.0,35.0,1311,-90,-1.0471975511965976,L,L,1,30
122,0,2937.839,0,7,-60,100,501,0.0,7,2938.6,1,736183.603078,Aud,Left,2015-08-07 13:39:00,7_8_2015 level5_100_cooling 13_39 log,9.0,34.0,1311,-60,-1.0471975511965976,L,L,1,0
122,0,2937.839,0,7,-60,100,501,0.0,7,2938.6,1,736183.603078,Aud,Left,2015-08-07 13:39:00,7_8_2015 level5_100_cooling 13_39 log,9.0,34.0,1311,-60,-1.0471975511965976,L,L,1,0
5,0,2080.587,0,7,-60,100,751,0.0,8,2083.026,0,736181.590006,Aud,Left,2015-08-05 13:34:00,5_8_2015 level5_100_cooling 13_34 log,11.0,35.0,1311,-90,-1.0471975511965976,L,L,1,30
48,0,1603.431,0,7,-60,250,901,0.0,7,1604.273,1,736148.682725,Aud,Left,2015-07-03 15:56:00,3_7_2015 level5_250_cooling 15_56 log,11.0,35.0,1311,-60,-1.0471975511965976,L,L,1,0
85,0,2566.089,0,7,-60,100,551,0.0,7,2567.153,1,736183.598778,Aud,Left,2015-08-07 13:39:00,7_8_2015 level5_100_cooling 13_39 log,8.0,35.0,1311,-60,-1.0471975511965976,L,L,1,0
15,0,170.235,0,7,-60,250,651,0.0,8,171.317,0,736167.694361,Aud,Left,2015-07-22 16:37:00,22_7_2015 level5_250_cooling 16_37 log,9.0,35.0,1311,-90,-1.0471975511965976,L,L,1,30
48,0,1603.431,0,7,-60,250,901,0.0,7,1604.273,1,736148.682725,Aud,Left,2015-07-03 15:56:00,3_7_2015 level5_250_cooling 15_56 log,11.0,35.0,1311,-60,-1.0471975511965976,L,L,1,0
28,0,1038.337,0,7,-60,250,701,4.5,6,1039.367,0,736159.691423,Aud,Left,2015-07-14 16:18:00,14_7_2015 level5_250_cooling 16_18 log,9.0,34.0,1311,-30,-1.0471975511965976,L,L,1,30
74,0,2814.386,0,7,-60,100,1001,4.5,7,2815.125,1,736181.598481,Aud,Left,2015-08-05 13:34:00,5_8_2015 level5_100_cooling 13_34 log,7.0,34.0,1311,-60,-1.0471975511965976,L,L,1,0
132,0,1472.925,0,7,-60,250,901,4.5,6,1473.773,0,736167.709437,Aud,Left,2015-07-22 16:37:00,22_7_2015 level5_250_cooling 16_37 log,11.0,34.0,1311,-30,-1.0471975511965976,L,L,1,30
59,0,2295.208,0,7,-60,100,851,4.5,7,2296.106,1,736183.595641,Aud,Left,2015-08-07 13:39:00,7_8_2015 level5_100_cooling 13_39 log,8.0,35.0,1311,-60,-1.0471975511965976,L,L,1,0
62,0,2689.165,0,7,-60,100,601,4.5,7,2690.261,1,736181.597035,Aud,Left,2015-08-05 13:34:00,5_8_2015 level5_100_cooling 13_34 log,7.0,34.0,1311,-60,-1.0471975511965976,L,L,1,0
113,0,2846.719,0,7,-60,100,551,4.5,6,2847.493,0,736183.602023,Aud,Left,2015-08-07 13:39:00,7_8_2015 level5_100_cooling 13_39 log,8.0,34.0,1311,-30,-1.0471975511965976,L,L,1,30
113,0,2846.719,0,7,-60,100,551,4.5,6,2847.493,0,736183.602023,Aud,Left,2015-08-07 13:39:00,7_8_2015 level5_100_cooling 13_39 log,8.0,34.0,1311,-30,-1.0471975511965976,L,L,1,30
113,0,2846.719,0,7,-60,100,551,4.5,6,2847.493,0,736183.602023,Aud,Left,2015-08-07 13:39:00,7_8_2015 level5_100_cooling 13_39 log,8.0,34.0,1311,-30,-1.0471975511965976,L,L,1,30
103,0,3068.729,0,7,-60,100,801,4.5,8,3069.545,0,736181.601425,Aud,Left,2015-08-05 13:34:00,5_8_2015 level5_100_cooling 13_34 log,8.0,34.0,1311,-90,-1.0471975511965976,L,L,1,30
8,0,638.965,0,7,-60,250,801,4.5,7,639.728,1,736167.692182,Aud,Left,2015-07-22 16:37:00,22_7_2015 level5_250_cooling 16_37 log,10.0,34.0,1311,-60,-1.0471975511965976,L,L,1,0
54,0,2209.362,0,7,-60,100,601,4.5,6,2210.419,0,736183.594649,Aud,Left,2015-08-07 13:39:00,7_8_2015 level5_100_cooling 13_39 log,8.0,35.0,1311,-30,-1.0471975511965976,L,L,1,30
93,0,1755.347,0,7,-60,250,551,4.5,7,1756.801,1,736159.699726,Aud,Left,2015-07-14 16:18:00,14_7_2015 level5_250_cooling 16_18 log,10.0,34.0,1311,-60,-1.0471975511965976,L,L,1,0
14,0,1799.929,0,7,-60,100,501,4.5,7,1801.323,1,736183.589914,Aud,Left,2015-08-07 13:39:00,7_8_2015 level5_100_cooling 13_39 log,8.0,35.0,1311,-60,-1.0471975511965976,L,L,1,0
34,0,2375.304,0,7,-60,100,1001,4.5,5,2376.051,0,736181.593399,Aud,Left,2015-08-05 13:34:00,5_8_2015 level5_100_cooling 13_34 log,8.0,34.0,1311,0,-1.0471975511965976,L,,0,60
93,0,1755.347,0,7,-60,250,551,4.5,7,1756.801,1,736159.699726,Aud,Left,2015-07-14 16:18:00,14_7_2015 level5_250_cooling 16_18 log,10.0,34.0,1311,-60,-1.0471975511965976,L,L,1,0
8,0,638.965,0,7,-60,250,801,4.5,7,639.728,1,736167.692182,Aud,Left,2015-07-22 16:37:00,22_7_2015 level5_250_cooling 16_37 log,10.0,34.0,1311,-60,-1.0471975511965976,L,L,1,0
93,0,1755.347,0,7,-60,250,551,4.5,7,1756.801,1,736159.699726,Aud,Left,2015-07-14 16:18:00,14_7_2015 level5_250_cooling 16_18 log,10.0,34.0,1311,-60,-1.0471975511965976,L,L,1,0
43,0,1248.849,0,7,-60,250,751,4.5,7,1249.698,1,736159.693857,Aud,Left,2015-07-14 16:18:00,14_7_2015 level5_250_cooling 16_18 log,9.0,34.0,1311,-60,-1.0471975511965976,L,L,1,0
83,0,2022.577,0,7,-60,250,1001,4.5,8,2023.482,0,736148.687577,Aud,Left,2015-07-03 15:56:00,3_7_2015 level5_250_cooling 15_56 log,11.0,35.0,1311,-90,-1.0471975511965976,L,L,1,30
100,0,2733.036,0,7,-60,100,751,4.5,7,2733.998,1,736183.600709,Aud,Left,2015-08-07 13:39:00,7_8_2015 level5_100_cooling 13_39 log,8.0,34.0,1311,-60,-1.0471975511965976,L,L,1,0
62,0,1749.274,0,7,-60,250,651,4.5,7,1751.335,1,736148.684427,Aud,Left,2015-07-03 15:56:00,3_7_2015 level5_250_cooling 15_56 log,11.0,35.0,1311,-60,-1.0471975511965976,L,L,1,0
100,0,2733.036,0,7,-60,100,751,4.5,7,2733.998,1,736183.600709,Aud,Left,2015-08-07 13:39:00,7_8_2015 level5_100_cooling 13_39 log,8.0,34.0,1311,-60,-1.0471975511965976,L,L,1,0
43,0,1248.849,0,7,-60,250,751,4.5,7,1249.698,1,736159.693857,Aud,Left,2015-07-14 16:18:00,14_7_2015 level5_250_cooling 16_18 log,9.0,34.0,1311,-60,-1.0471975511965976,L,L,1,0
36,0,2041.433,0,7,-60,100,701,9.0,7,2042.27,1,736183.592703,Aud,Left,2015-08-07 13:39:00,7_8_2015 level5_100_cooling 13_39 log,8.0,35.0,1311,-60,-1.0471975511965976,L,L,1,0
111,0,3151.851,0,7,-60,100,601,9.0,8,3155.109,0,736181.602415,Aud,Left,2015-08-05 13:34:00,5_8_2015 level5_100_cooling 13_34 log,8.0,34.0,1311,-90,-1.0471975511965976,L,L,1,30
111,0,1241.502,0,7,-60,250,601,9.0,6,1242.741,0,736167.706763,Aud,Left,2015-07-22 16:37:00,22_7_2015 level5_250_cooling 16_37 log,11.0,34.0,1311,-30,-1.0471975511965976,L,L,1,30
7,0,1717.231,0,7,-60,100,751,9.0,8,1717.915,0,736183.58895,Aud,Left,2015-08-07 13:39:00,7_8_2015 level5_100_cooling 13_39 log,9.0,35.0,1311,-90,-1.0471975511965976,L,L,1,30
61,0,2307.779,0,7,-60,100,851,9.0,6,2308.678,0,736183.595786,Aud,Left,2015-08-07 13:39:00,7_8_2015 level5_100_cooling 13_39 log,8.0,35.0,1311,-30,-1.0471975511965976,L,L,1,30
111,0,1241.502,0,7,-60,250,601,9.0,6,1242.741,0,736167.706763,Aud,Left,2015-07-22 16:37:00,22_7_2015 level5_250_cooling 16_37 log,11.0,34.0,1311,-30,-1.0471975511965976,L,L,1,30
106,0,1904.792,0,7,-60,250,751,9.0,7,1905.748,1,736159.701449,Aud,Left,2015-07-14 16:18:00,14_7_2015 level5_250_cooling 16_18 log,10.0,34.0,1311,-60,-1.0471975511965976,L,L,1,0
44,0,2476.578,0,7,-60,100,651,9.0,8,2477.417,0,736181.594571,Aud,Left,2015-08-05 13:34:00,5_8_2015 level5_100_cooling 13_34 log,7.0,34.0,1311,-90,-1.0471975511965976,L,L,1,30
119,0,1334.361,0,7,-60,250,651,9.0,6,1335.48,0,736167.707836,Aud,Left,2015-07-22 16:37:00,22_7_2015 level5_250_cooling 16_37 log,11.0,34.0,1311,-30,-1.0471975511965976,L,L,1,30
80,0,2864.75,0,7,-60,100,501,9.0,6,2865.583,0,736181.599064,Aud,Left,2015-08-05 13:34:00,5_8_2015 level5_100_cooling 13_34 log,8.0,34.0,1311,-30,-1.0471975511965976,L,L,1,30
106,0,1904.792,0,7,-60,250,751,9.0,7,1905.748,1,736159.701449,Aud,Left,2015-07-14 16:18:00,14_7_2015 level5_250_cooling 16_18 log,10.0,34.0,1311,-60,-1.0471975511965976,L,L,1,0
29,0,2331.813,1,7,-60,100,551,9.0,7,2332.516,1,736181.592895,Aud,Left,2015-08-05 13:34:00,5_8_2015 level5_100_cooling 13_34 log,8.0,34.0,1311,-60,-1.0471975511965976,L,L,1,0
111,0,1241.502,0,7,-60,250,601,9.0,6,1242.741,0,736167.706763,Aud,Left,2015-07-22 16:37:00,22_7_2015 level5_250_cooling 16_37 log,11.0,34.0,1311,-30,-1.0471975511965976,L,L,1,30
119,0,1334.361,0,7,-60,250,651,9.0,6,1335.48,0,736167.707836,Aud,Left,2015-07-22 16:37:00,22_7_2015 level5_250_cooling 16_37 log,11.0,34.0,1311,-30,-1.0471975511965976,L,L,1,30
20,0,1871.896,0,7,-60,100,551,9.0,8,1872.571,0,736183.590741,Aud,Left,2015-08-07 13:39:00,7_8_2015 level5_100_cooling 13_39 log,8.0,35.0,1311,-90,-1.0471975511965976,L,L,1,30
101,0,2152.079,0,7,-60,250,901,9.0,7,2153.001,1,736126.605158,Aud,Left,2015-06-11 13:55:00,11_6_2015 level5_250_cooling 13_55 log,9.0,34.0,1311,-60,-1.0471975511965976,L,L,1,0
49,0,2161.149,0,7,-60,100,901,9.0,6,2162.101,0,736183.59409,Aud,Left,2015-08-07 13:39:00,7_8_2015 level5_100_cooling 13_39 log,8.0,34.0,1311,-30,-1.0471975511965976,L,L,1,30
6,0,1121.612,0,7,-60,250,651,9.0,7,1122.504,1,736148.677149,Aud,Left,2015-07-03 15:56:00,3_7_2015 level5_250_cooling 15_56 log,12.0,35.0,1311,-60,-1.0471975511965976,L,L,1,0
103,0,2754.634,0,7,-60,100,801,9.0,6,2755.549,0,736183.600958,Aud,Left,2015-08-07 13:39:00,7_8_2015 level5_100_cooling 13_39 log,8.0,34.0,1311,-30,-1.0471975511965976,L,L,1,30
20,0,1871.896,0,7,-60,100,551,9.0,8,1872.571,0,736183.590741,Aud,Left,2015-08-07 13:39:00,7_8_2015 level5_100_cooling 13_39 log,8.0,35.0,1311,-90,-1.0471975511965976,L,L,1,30
29,0,2331.813,1,7,-60,100,551,9.0,7,2332.516,1,736181.592895,Aud,Left,2015-08-05 13:34:00,5_8_2015 level5_100_cooling 13_34 log,8.0,34.0,1311,-60,-1.0471975511965976,L,L,1,0
36,0,2041.433,0,7,-60,100,701,9.0,7,2042.27,1,736183.592703,Aud,Left,2015-08-07 13:39:00,7_8_2015 level5_100_cooling 13_39 log,8.0,35.0,1311,-60,-1.0471975511965976,L,L,1,0
111,0,1241.502,0,7,-60,250,601,9.0,6,1242.741,0,736167.706763,Aud,Left,2015-07-22 16:37:00,22_7_2015 level5_250_cooling 16_37 log,11.0,34.0,1311,-30,-1.0471975511965976,L,L,1,30
71,0,2782.624,0,6,-30,100,951,0.0,6,2783.604,1,736181.598115,Aud,Left,2015-08-05 13:34:00,5_8_2015 level5_100_cooling 13_34 log,7.0,34.0,1311,-30,-0.5235987755982988,L,L,1,0
98,0,2116.847,0,6,-30,250,501,0.0,7,2117.885,0,736126.604751,Aud,Left,2015-06-11 13:55:00,11_6_2015 level5_250_cooling 13_55 log,9.0,34.0,1311,-60,-0.5235987755982988,L,L,1,30
121,0,1349.957,0,6,-30,250,651,0.0,5,1351.379,0,736167.708019,Aud,Left,2015-07-22 16:37:00,22_7_2015 level5_250_cooling 16_37 log,11.0,34.0,1311,0,-0.5235987755982988,L,,0,30
14,0,154.962,0,6,-30,250,551,0.0,6,155.985,1,736167.694185,Aud,Left,2015-07-22 16:37:00,22_7_2015 level5_250_cooling 16_37 log,9.0,35.0,1311,-30,-0.5235987755982988,L,L,1,0
25,0,1334.503,0,6,-30,250,651,0.0,6,1335.346,1,736148.679613,Aud,Left,2015-07-03 15:56:00,3_7_2015 level5_250_cooling 15_56 log,11.0,35.0,1311,-30,-0.5235987755982988,L,L,1,0
71,0,2782.624,0,6,-30,100,951,0.0,6,2783.604,1,736181.598115,Aud,Left,2015-08-05 13:34:00,5_8_2015 level5_100_cooling 13_34 log,7.0,34.0,1311,-30,-0.5235987755982988,L,L,1,0
98,0,2116.847,0,6,-30,250,501,0.0,7,2117.885,0,736126.604751,Aud,Left,2015-06-11 13:55:00,11_6_2015 level5_250_cooling 13_55 log,9.0,34.0,1311,-60,-0.5235987755982988,L,L,1,30
56,0,1658.512,0,6,-30,250,851,0.0,5,1659.33,0,736126.599444,Aud,Left,2015-06-11 13:55:00,11_6_2015 level5_250_cooling 13_55 log,9.0,34.0,1311,0,-0.5235987755982988,L,,0,30
56,0,1658.512,0,6,-30,250,851,0.0,5,1659.33,0,736126.599444,Aud,Left,2015-06-11 13:55:00,11_6_2015 level5_250_cooling 13_55 log,9.0,34.0,1311,0,-0.5235987755982988,L,,0,30
4,0,1100.888,0,6,-30,250,1001,0.0,6,1101.935,1,736148.676911,Aud,Left,2015-07-03 15:56:00,3_7_2015 level5_250_cooling 15_56 log,12.0,35.0,1311,-30,-0.5235987755982988,L,L,1,0
41,0,1521.473,1,6,-30,250,701,0.0,6,1522.561,1,736148.681781,Aud,Left,2015-07-03 15:56:00,3_7_2015 level5_250_cooling 15_56 log,11.0,35.0,1311,-30,-0.5235987755982988,L,L,1,0
71,0,2782.624,0,6,-30,100,951,0.0,6,2783.604,1,736181.598115,Aud,Left,2015-08-05 13:34:00,5_8_2015 level5_100_cooling 13_34 log,7.0,34.0,1311,-30,-0.5235987755982988,L,L,1,0
21,0,962.144,0,6,-30,250,1001,0.0,7,962.76,0,736159.690538,Aud,Left,2015-07-14 16:18:00,14_7_2015 level5_250_cooling 16_18 log,9.0,35.0,1311,-60,-0.5235987755982988,L,L,1,30
53,0,1359.19,0,6,-30,250,601,0.0,7,1360.07,0,736159.695134,Aud,Left,2015-07-14 16:18:00,14_7_2015 level5_250_cooling 16_18 log,9.0,34.0,1311,-60,-0.5235987755982988,L,L,1,30
71,0,2782.624,0,6,-30,100,951,0.0,6,2783.604,1,736181.598115,Aud,Left,2015-08-05 13:34:00,5_8_2015 level5_100_cooling 13_34 log,7.0,34.0,1311,-30,-0.5235987755982988,L,L,1,0
41,0,1521.473,1,6,-30,250,701,0.0,6,1522.561,1,736148.681781,Aud,Left,2015-07-03 15:56:00,3_7_2015 level5_250_cooling 15_56 log,11.0,35.0,1311,-30,-0.5235987755982988,L,L,1,0
116,0,2872.184,0,6,-30,100,901,0.0,6,2876.369,1,736183.602357,Aud,Left,2015-08-07 13:39:00,7_8_2015 level5_100_cooling 13_39 log,9.0,34.0,1311,-30,-0.5235987755982988,L,L,1,0
25,0,1334.503,0,6,-30,250,651,0.0,6,1335.346,1,736148.679613,Aud,Left,2015-07-03 15:56:00,3_7_2015 level5_250_cooling 15_56 log,11.0,35.0,1311,-30,-0.5235987755982988,L,L,1,0
53,0,1359.19,0,6,-30,250,601,0.0,7,1360.07,0,736159.695134,Aud,Left,2015-07-14 16:18:00,14_7_2015 level5_250_cooling 16_18 log,9.0,34.0,1311,-60,-0.5235987755982988,L,L,1,30
121,0,1349.957,0,6,-30,250,651,0.0,5,1351.379,0,736167.708019,Aud,Left,2015-07-22 16:37:00,22_7_2015 level5_250_cooling 16_37 log,11.0,34.0,1311,0,-0.5235987755982988,L,,0,30
107,0,3110.916,0,6,-30,100,701,0.0,6,3111.566,1,736181.601912,Aud,Left,2015-08-05 13:34:00,5_8_2015 level5_100_cooling 13_34 log,8.0,34.0,1311,-30,-0.5235987755982988,L,L,1,0
109,0,2812.596,0,6,-30,100,601,0.0,6,2813.406,1,736183.601628,Aud,Left,2015-08-07 13:39:00,7_8_2015 level5_100_cooling 13_39 log,8.0,34.0,1311,-30,-0.5235987755982988,L,L,1,0
78,0,1972.707,0,6,-30,250,701,0.0,6,1973.829,1,736148.687002,Aud,Left,2015-07-03 15:56:00,3_7_2015 level5_250_cooling 15_56 log,11.0,35.0,1311,-30,-0.5235987755982988,L,L,1,0
94,0,2675.143,0,6,-30,100,1001,4.5,6,2676.042,1,736183.600038,Aud,Left,2015-08-07 13:39:00,7_8_2015 level5_100_cooling 13_39 log,8.0,34.0,1311,-30,-0.5235987755982988,L,L,1,0
30,0,2338.373,0,6,-30,100,701,4.5,6,2341.444,1,736181.592998,Aud,Left,2015-08-05 13:34:00,5_8_2015 level5_100_cooling 13_34 log,8.0,34.0,1311,-30,-0.5235987755982988,L,L,1,0
119,0,2412.425,0,6,-30,250,501,4.5,2,2419.961,0,736148.692165,Aud,Left,2015-07-03 15:56:00,3_7_2015 level5_250_cooling 15_56 log,10.0,35.0,1311,90,-0.5235987755982988,L,R,0,120
15,0,1807.922,0,6,-30,100,751,4.5,8,1809.408,0,736183.590008,Aud,Left,2015-08-07 13:39:00,7_8_2015 level5_100_cooling 13_39 log,8.0,35.0,1311,-90,-0.5235987755982988,L,L,1,60
85,0,2908.614,0,6,-30,100,701,4.5,6,2909.483,1,736181.599572,Aud,Left,2015-08-05 13:34:00,5_8_2015 level5_100_cooling 13_34 log,8.0,34.0,1311,-30,-0.5235987755982988,L,L,1,0
30,0,2338.373,0,6,-30,100,701,4.5,6,2341.444,1,736181.592998,Aud,Left,2015-08-05 13:34:00,5_8_2015 level5_100_cooling 13_34 log,8.0,34.0,1311,-30,-0.5235987755982988,L,L,1,0
95,0,2686.739,0,6,-30,100,901,4.5,7,2687.557,0,736183.600171,Aud,Left,2015-08-07 13:39:00,7_8_2015 level5_100_cooling 13_39 log,8.0,34.0,1311,-60,-0.5235987755982988,L,L,1,30
51,0,2560.691,0,6,-30,100,951,4.5,6,2561.638,1,736181.595547,Aud,Left,2015-08-05 13:34:00,5_8_2015 level5_100_cooling 13_34 log,8.0,34.0,1311,-30,-0.5235987755982988,L,L,1,0
11,0,1756.174,0,6,-30,100,801,4.5,7,1758.462,0,736183.589419,Aud,Left,2015-08-07 13:39:00,7_8_2015 level5_100_cooling 13_39 log,8.0,35.0,1311,-60,-0.5235987755982988,L,L,1,30
30,0,2338.373,0,6,-30,100,701,4.5,6,2341.444,1,736181.592998,Aud,Left,2015-08-05 13:34:00,5_8_2015 level5_100_cooling 13_34 log,8.0,34.0,1311,-30,-0.5235987755982988,L,L,1,0
11,0,1756.174,0,6,-30,100,801,4.5,7,1758.462,0,736183.589419,Aud,Left,2015-08-07 13:39:00,7_8_2015 level5_100_cooling 13_39 log,8.0,35.0,1311,-60,-0.5235987755982988,L,L,1,30
15,0,769.051,0,6,-30,250,501,4.5,8,772.429,0,736131.691567,Aud,Left,2015-06-16 16:23:00,16_6_2015 level5_250_cooling 16_23 log,9.0,34.0,1311,-90,-0.5235987755982988,L,L,1,60
49,0,2539.951,0,6,-30,100,551,4.5,6,2540.767,1,736181.595305,Aud,Left,2015-08-05 13:34:00,5_8_2015 level5_100_cooling 13_34 log,7.0,34.0,1311,-30,-0.5235987755982988,L,L,1,0
51,0,2560.691,0,6,-30,100,951,4.5,6,2561.638,1,736181.595547,Aud,Left,2015-08-05 13:34:00,5_8_2015 level5_100_cooling 13_34 log,8.0,34.0,1311,-30,-0.5235987755982988,L,L,1,0
85,0,2908.614,0,6,-30,100,701,4.5,6,2909.483,1,736181.599572,Aud,Left,2015-08-05 13:34:00,5_8_2015 level5_100_cooling 13_34 log,8.0,34.0,1311,-30,-0.5235987755982988,L,L,1,0
15,0,1807.922,0,6,-30,100,751,4.5,8,1809.408,0,736183.590008,Aud,Left,2015-08-07 13:39:00,7_8_2015 level5_100_cooling 13_39 log,8.0,35.0,1311,-90,-0.5235987755982988,L,L,1,60
24,0,996.156,0,6,-30,250,501,4.5,8,996.921,0,736159.690932,Aud,Left,2015-07-14 16:18:00,14_7_2015 level5_250_cooling 16_18 log,9.0,34.0,1311,-90,-0.5235987755982988,L,L,1,60
49,0,1615.694,0,6,-30,250,951,4.5,7,1616.781,0,736148.682871,Aud,Left,2015-07-03 15:56:00,3_7_2015 level5_250_cooling 15_56 log,11.0,35.0,1311,-60,-0.5235987755982988,L,L,1,30
119,0,2412.425,0,6,-30,250,501,4.5,2,2419.961,0,736148.692165,Aud,Left,2015-07-03 15:56:00,3_7_2015 level5_250_cooling 15_56 log,10.0,35.0,1311,90,-0.5235987755982988,L,R,0,120
68,0,1384.55,0,6,-30,250,901,4.5,8,1385.461,0,736131.698662,Aud,Left,2015-06-16 16:23:00,16_6_2015 level5_250_cooling 16_23 log,9.0,34.0,1311,-90,-0.5235987755982988,L,L,1,60
49,0,1615.694,0,6,-30,250,951,4.5,7,1616.781,0,736148.682871,Aud,Left,2015-07-03 15:56:00,3_7_2015 level5_250_cooling 15_56 log,11.0,35.0,1311,-60,-0.5235987755982988,L,L,1,30
85,0,2908.614,0,6,-30,100,701,4.5,6,2909.483,1,736181.599572,Aud,Left,2015-08-05 13:34:00,5_8_2015 level5_100_cooling 13_34 log,8.0,34.0,1311,-30,-0.5235987755982988,L,L,1,0
24,0,996.156,0,6,-30,250,501,4.5,8,996.921,0,736159.690932,Aud,Left,2015-07-14 16:18:00,14_7_2015 level5_250_cooling 16_18 log,9.0,34.0,1311,-90,-0.5235987755982988,L,L,1,60
89,0,2025.21,0,6,-30,250,1001,9.0,6,2026.422,1,736126.603692,Aud,Left,2015-06-11 13:55:00,11_6_2015 level5_250_cooling 13_55 log,9.0,34.0,1311,-30,-0.5235987755982988,L,L,1,0
48,0,540.274,0,6,-30,250,851,9.0,7,541.167,0,736167.698642,Aud,Left,2015-07-22 16:37:00,22_7_2015 level5_250_cooling 16_37 log,10.0,35.0,1311,-60,-0.5235987755982988,L,L,1,30
51,0,1335.941,1,6,-30,250,501,9.0,6,1336.959,1,736159.694867,Aud,Left,2015-07-14 16:18:00,14_7_2015 level5_250_cooling 16_18 log,9.0,35.0,1311,-30,-0.5235987755982988,L,L,1,0
51,0,1335.941,1,6,-30,250,501,9.0,6,1336.959,1,736159.694867,Aud,Left,2015-07-14 16:18:00,14_7_2015 level5_250_cooling 16_18 log,9.0,35.0,1311,-30,-0.5235987755982988,L,L,1,0
115,0,2863.473,1,6,-30,100,501,9.0,6,2864.405,1,736183.602218,Aud,Left,2015-08-07 13:39:00,7_8_2015 level5_100_cooling 13_39 log,8.0,34.0,1311,-30,-0.5235987755982988,L,L,1,0
64,0,2703.792,0,6,-30,100,951,9.0,7,2704.47,0,736181.597201,Aud,Left,2015-08-05 13:34:00,5_8_2015 level5_100_cooling 13_34 log,7.0,34.0,1311,-60,-0.5235987755982988,L,L,1,30
68,0,1812.311,0,6,-30,250,851,9.0,8,1813.342,0,736126.601226,Aud,Left,2015-06-11 13:55:00,11_6_2015 level5_250_cooling 13_55 log,9.0,34.0,1311,-90,-0.5235987755982988,L,L,1,60
108,0,1187.991,0,6,-30,250,901,9.0,7,1190.219,0,736167.706155,Aud,Left,2015-07-22 16:37:00,22_7_2015 level5_250_cooling 16_37 log,11.0,34.0,1311,-60,-0.5235987755982988,L,L,1,30
109,0,1928.998,0,6,-30,250,651,9.0,6,1929.963,1,736159.70173,Aud,Left,2015-07-14 16:18:00,14_7_2015 level5_250_cooling 16_18 log,10.0,34.0,1311,-30,-0.5235987755982988,L,L,1,0
8,0,2108.799,0,6,-30,100,501,9.0,8,2110.241,0,736181.590322,Aud,Left,2015-08-05 13:34:00,5_8_2015 level5_100_cooling 13_34 log,9.0,35.0,1311,-90,-0.5235987755982988,L,L,1,60
89,0,2025.21,0,6,-30,250,1001,9.0,6,2026.422,1,736126.603692,Aud,Left,2015-06-11 13:55:00,11_6_2015 level5_250_cooling 13_55 log,9.0,34.0,1311,-30,-0.5235987755982988,L,L,1,0
23,0,2270.254,0,6,-30,100,801,9.0,6,2270.891,1,736181.592184,Aud,Left,2015-08-05 13:34:00,5_8_2015 level5_100_cooling 13_34 log,7.0,34.0,1311,-30,-0.5235987755982988,L,L,1,0
45,0,2122.797,0,6,-30,100,851,9.0,8,2123.646,0,736183.593644,Aud,Left,2015-08-07 13:39:00,7_8_2015 level5_100_cooling 13_39 log,8.0,34.0,1311,-90,-0.5235987755982988,L,L,1,60
68,0,1812.311,0,6,-30,250,851,9.0,8,1813.342,0,736126.601226,Aud,Left,2015-06-11 13:55:00,11_6_2015 level5_250_cooling 13_55 log,9.0,34.0,1311,-90,-0.5235987755982988,L,L,1,60
68,0,1812.311,0,6,-30,250,851,9.0,8,1813.342,0,736126.601226,Aud,Left,2015-06-11 13:55:00,11_6_2015 level5_250_cooling 13_55 log,9.0,34.0,1311,-90,-0.5235987755982988,L,L,1,60
8,0,2108.799,0,6,-30,100,501,9.0,8,2110.241,0,736181.590322,Aud,Left,2015-08-05 13:34:00,5_8_2015 level5_100_cooling 13_34 log,9.0,35.0,1311,-90,-0.5235987755982988,L,L,1,60
30,0,1983.286,0,6,-30,100,1001,9.0,7,1984.207,0,736183.59203,Aud,Left,2015-08-07 13:39:00,7_8_2015 level5_100_cooling 13_39 log,8.0,35.0,1311,-60,-0.5235987755982988,L,L,1,30
115,0,2863.473,1,6,-30,100,501,9.0,6,2864.405,1,736183.602218,Aud,Left,2015-08-07 13:39:00,7_8_2015 level5_100_cooling 13_39 log,8.0,34.0,1311,-30,-0.5235987755982988,L,L,1,0
48,0,540.274,0,6,-30,250,851,9.0,7,541.167,0,736167.698642,Aud,Left,2015-07-22 16:37:00,22_7_2015 level5_250_cooling 16_37 log,10.0,35.0,1311,-60,-0.5235987755982988,L,L,1,30
109,0,1928.998,0,6,-30,250,651,9.0,6,1929.963,1,736159.70173,Aud,Left,2015-07-14 16:18:00,14_7_2015 level5_250_cooling 16_18 log,10.0,34.0,1311,-30,-0.5235987755982988,L,L,1,0
110,0,1222.673,0,6,-30,250,751,9.0,8,1224.762,0,736167.706554,Aud,Left,2015-07-22 16:37:00,22_7_2015 level5_250_cooling 16_37 log,11.0,34.0,1311,-90,-0.5235987755982988,L,L,1,60
8,0,2108.799,0,6,-30,100,501,9.0,8,2110.241,0,736181.590322,Aud,Left,2015-08-05 13:34:00,5_8_2015 level5_100_cooling 13_34 log,9.0,35.0,1311,-90,-0.5235987755982988,L,L,1,60
108,0,1187.991,0,6,-30,250,901,9.0,7,1190.219,0,736167.706155,Aud,Left,2015-07-22 16:37:00,22_7_2015 level5_250_cooling 16_37 log,11.0,34.0,1311,-60,-0.5235987755982988,L,L,1,30
79,0,1503.121,0,4,30,250,651,0.0,4,1503.862,1,736131.700034,Aud,Left,2015-06-16 16:23:00,16_6_2015 level5_250_cooling 16_23 log,9.0,34.0,1311,30,0.5235987755982988,R,R,1,0
59,0,2642.645,0,4,30,100,851,0.0,3,2648.429,0,736181.596551,Aud,Left,2015-08-05 13:34:00,5_8_2015 level5_100_cooling 13_34 log,8.0,34.0,1311,60,0.5235987755982988,R,R,1,30
121,0,2028.741,0,4,30,250,701,0.0,5,2029.733,0,736159.702885,Aud,Left,2015-07-14 16:18:00,14_7_2015 level5_250_cooling 16_18 log,10.0,34.0,1311,0,0.5235987755982988,R,,0,30
121,0,2028.741,0,4,30,250,701,0.0,5,2029.733,0,736159.702885,Aud,Left,2015-07-14 16:18:00,14_7_2015 level5_250_cooling 16_18 log,10.0,34.0,1311,0,0.5235987755982988,R,,0,30
92,0,2971.847,0,4,30,100,551,0.0,4,2972.971,1,736181.600307,Aud,Left,2015-08-05 13:34:00,5_8_2015 level5_100_cooling 13_34 log,8.0,34.0,1311,30,0.5235987755982988,R,R,1,0
36,0,1111.864,0,4,30,250,901,0.0,4,1112.724,1,736159.692271,Aud,Left,2015-07-14 16:18:00,14_7_2015 level5_250_cooling 16_18 log,9.0,35.0,1311,30,0.5235987755982988,R,R,1,0
99,0,2723.867,0,4,30,100,851,0.0,3,2724.697,0,736183.600601,Aud,Left,2015-08-07 13:39:00,7_8_2015 level5_100_cooling 13_39 log,8.0,34.0,1311,60,0.5235987755982988,R,R,1,30
76,0,2479.169,0,4,30,100,501,0.0,3,2480.076,0,736183.59777,Aud,Left,2015-08-07 13:39:00,7_8_2015 level5_100_cooling 13_39 log,8.0,35.0,1311,60,0.5235987755982988,R,R,1,30
9,0,695.49,0,4,30,250,551,0.0,4,696.196,1,736131.690686,Aud,Left,2015-06-16 16:23:00,16_6_2015 level5_250_cooling 16_23 log,9.0,34.0,1311,30,0.5235987755982988,R,R,1,0
93,0,2073.552,0,4,30,250,851,0.0,4,2074.317,1,736126.604248,Aud,Left,2015-06-11 13:55:00,11_6_2015 level5_250_cooling 13_55 log,9.0,34.0,1311,30,0.5235987755982988,R,R,1,0
88,0,2595.816,0,4,30,100,951,0.0,3,2596.693,0,736183.59912,Aud,Left,2015-08-07 13:39:00,7_8_2015 level5_100_cooling 13_39 log,8.0,35.0,1311,60,0.5235987755982988,R,R,1,30
96,0,998.902,0,4,30,250,651,0.0,5,1000.204,0,736167.703956,Aud,Left,2015-07-22 16:37:00,22_7_2015 level5_250_cooling 16_37 log,10.0,34.0,1311,0,0.5235987755982988,R,,0,30
61,0,1741.571,1,4,30,250,601,0.0,5,1742.639,0,736148.684327,Aud,Left,2015-07-03 15:56:00,3_7_2015 level5_250_cooling 15_56 log,11.0,35.0,1311,0,0.5235987755982988,R,,0,30
121,0,2028.741,0,4,30,250,701,0.0,5,2029.733,0,736159.702885,Aud,Left,2015-07-14 16:18:00,14_7_2015 level5_250_cooling 16_18 log,10.0,34.0,1311,0,0.5235987755982988,R,,0,30
61,0,1741.571,1,4,30,250,601,0.0,5,1742.639,0,736148.684327,Aud,Left,2015-07-03 15:56:00,3_7_2015 level5_250_cooling 15_56 log,11.0,35.0,1311,0,0.5235987755982988,R,,0,30
79,0,2505.081,0,4,30,100,801,0.0,3,2506.056,0,736183.59807,Aud,Left,2015-08-07 13:39:00,7_8_2015 level5_100_cooling 13_39 log,8.0,35.0,1311,60,0.5235987755982988,R,R,1,30
74,0,1576.79,1,4,30,250,701,0.0,4,1577.549,1,736159.697652,Aud,Left,2015-07-14 16:18:00,14_7_2015 level5_250_cooling 16_18 log,10.0,34.0,1311,30,0.5235987755982988,R,R,1,0
79,0,2505.081,0,4,30,100,801,0.0,3,2506.056,0,736183.59807,Aud,Left,2015-08-07 13:39:00,7_8_2015 level5_100_cooling 13_39 log,8.0,35.0,1311,60,0.5235987755982988,R,R,1,30
74,0,1576.79,1,4,30,250,701,0.0,4,1577.549,1,736159.697652,Aud,Left,2015-07-14 16:18:00,14_7_2015 level5_250_cooling 16_18 log,10.0,34.0,1311,30,0.5235987755982988,R,R,1,0
121,0,2028.741,0,4,30,250,701,0.0,5,2029.733,0,736159.702885,Aud,Left,2015-07-14 16:18:00,14_7_2015 level5_250_cooling 16_18 log,10.0,34.0,1311,0,0.5235987755982988,R,,0,30
69,0,1530.737,0,4,30,250,701,0.0,4,1531.504,1,736159.697118,Aud,Left,2015-07-14 16:18:00,14_7_2015 level5_250_cooling 16_18 log,9.0,34.0,1311,30,0.5235987755982988,R,R,1,0
92,0,2971.847,0,4,30,100,551,0.0,4,2972.971,1,736181.600307,Aud,Left,2015-08-05 13:34:00,5_8_2015 level5_100_cooling 13_34 log,8.0,34.0,1311,30,0.5235987755982988,R,R,1,0
99,0,2723.867,0,4,30,100,851,0.0,3,2724.697,0,736183.600601,Aud,Left,2015-08-07 13:39:00,7_8_2015 level5_100_cooling 13_39 log,8.0,34.0,1311,60,0.5235987755982988,R,R,1,30
64,0,2338.446,0,4,30,100,651,4.5,2,2339.367,0,736183.596141,Aud,Left,2015-08-07 13:39:00,7_8_2015 level5_100_cooling 13_39 log,8.0,35.0,1311,90,0.5235987755982988,R,R,1,60
107,0,2790.424,0,4,30,100,701,4.5,3,2791.403,0,736183.601374,Aud,Left,2015-08-07 13:39:00,7_8_2015 level5_100_cooling 13_39 log,8.0,34.0,1311,60,0.5235987755982988,R,R,1,30
4,0,1035.785,0,4,30,250,651,4.5,4,1037.217,1,736126.592243,Aud,Left,2015-06-11 13:55:00,11_6_2015 level5_250_cooling 13_55 log,9.0,35.0,1311,30,0.5235987755982988,R,R,1,0
2,0,1084.179,0,4,30,250,601,4.5,4,1085.177,1,736148.676717,Aud,Left,2015-07-03 15:56:00,3_7_2015 level5_250_cooling 15_56 log,12.0,35.0,1311,30,0.5235987755982988,R,R,1,0
75,0,2820.827,0,4,30,100,701,4.5,5,2821.794,0,736181.598557,Aud,Left,2015-08-05 13:34:00,5_8_2015 level5_100_cooling 13_34 log,7.0,34.0,1311,0,0.5235987755982988,R,,0,30
29,0,1978.279,0,4,30,100,501,4.5,4,1979.193,1,736183.591973,Aud,Left,2015-08-07 13:39:00,7_8_2015 level5_100_cooling 13_39 log,8.0,35.0,1311,30,0.5235987755982988,R,R,1,0
129,0,1438.049,0,4,30,250,751,4.5,6,1438.983,0,736167.709033,Aud,Left,2015-07-22 16:37:00,22_7_2015 level5_250_cooling 16_37 log,11.0,34.0,1311,-30,0.5235987755982988,R,L,0,60
42,0,2456.308,0,4,30,100,851,4.5,3,2457.089,0,736181.594336,Aud,Left,2015-08-05 13:34:00,5_8_2015 level5_100_cooling 13_34 log,7.0,34.0,1311,60,0.5235987755982988,R,R,1,30
90,0,945.936,0,4,30,250,601,4.5,5,947.032,0,736167.70334,Aud,Left,2015-07-22 16:37:00,22_7_2015 level5_250_cooling 16_37 log,10.0,34.0,1311,0,0.5235987755982988,R,,0,30
90,0,945.936,0,4,30,250,601,4.5,5,947.032,0,736167.70334,Aud,Left,2015-07-22 16:37:00,22_7_2015 level5_250_cooling 16_37 log,10.0,34.0,1311,0,0.5235987755982988,R,,0,30
2,0,1084.179,0,4,30,250,601,4.5,4,1085.177,1,736148.676717,Aud,Left,2015-07-03 15:56:00,3_7_2015 level5_250_cooling 15_56 log,12.0,35.0,1311,30,0.5235987755982988,R,R,1,0
96,0,2998.964,0,4,30,100,951,4.5,4,2999.794,1,736181.600617,Aud,Left,2015-08-05 13:34:00,5_8_2015 level5_100_cooling 13_34 log,8.0,34.0,1311,30,0.5235987755982988,R,R,1,0
7,0,803.082,0,4,30,250,651,4.5,3,804.124,0,736159.6887,Aud,Left,2015-07-14 16:18:00,14_7_2015 level5_250_cooling 16_18 log,9.0,35.0,1311,60,0.5235987755982988,R,R,1,30
129,0,1438.049,0,4,30,250,751,4.5,6,1438.983,0,736167.709033,Aud,Left,2015-07-22 16:37:00,22_7_2015 level5_250_cooling 16_37 log,11.0,34.0,1311,-30,0.5235987755982988,R,L,0,60
64,0,2338.446,0,4,30,100,651,4.5,2,2339.367,0,736183.596141,Aud,Left,2015-08-07 13:39:00,7_8_2015 level5_100_cooling 13_39 log,8.0,35.0,1311,90,0.5235987755982988,R,R,1,60
7,0,2103.521,0,4,30,100,701,4.5,4,2105.255,1,736181.590264,Aud,Left,2015-08-05 13:34:00,5_8_2015 level5_100_cooling 13_34 log,10.0,35.0,1311,30,0.5235987755982988,R,R,1,0
25,0,2287.846,0,4,30,100,751,4.5,5,2288.588,0,736181.592387,Aud,Left,2015-08-05 13:34:00,5_8_2015 level5_100_cooling 13_34 log,8.0,34.0,1311,0,0.5235987755982988,R,,0,30
6,0,656.057,0,4,30,250,751,4.5,4,656.891,1,736131.690231,Aud,Left,2015-06-16 16:23:00,16_6_2015 level5_250_cooling 16_23 log,9.0,35.0,1311,30,0.5235987755982988,R,R,1,0
6,0,656.057,0,4,30,250,751,4.5,4,656.891,1,736131.690231,Aud,Left,2015-06-16 16:23:00,16_6_2015 level5_250_cooling 16_23 log,9.0,35.0,1311,30,0.5235987755982988,R,R,1,0
91,0,2113.717,0,4,30,250,1001,4.5,3,2114.418,0,736148.688631,Aud,Left,2015-07-03 15:56:00,3_7_2015 level5_250_cooling 15_56 log,11.0,34.0,1311,60,0.5235987755982988,R,R,1,30
68,0,2740.613,0,4,30,100,801,4.5,3,2742.232,0,736181.597636,Aud,Left,2015-08-05 13:34:00,5_8_2015 level5_100_cooling 13_34 log,7.0,34.0,1311,60,0.5235987755982988,R,R,1,30
101,0,3050.708,0,4,30,100,951,4.5,4,3051.703,1,736181.601218,Aud,Left,2015-08-05 13:34:00,5_8_2015 level5_100_cooling 13_34 log,8.0,34.0,1311,30,0.5235987755982988,R,R,1,0
68,0,2740.613,0,4,30,100,801,4.5,3,2742.232,0,736181.597636,Aud,Left,2015-08-05 13:34:00,5_8_2015 level5_100_cooling 13_34 log,7.0,34.0,1311,60,0.5235987755982988,R,R,1,30
92,0,1746.397,0,4,30,250,801,9.0,4,1747.153,1,736159.699615,Aud,Left,2015-07-14 16:18:00,14_7_2015 level5_250_cooling 16_18 log,10.0,34.0,1311,30,0.5235987755982988,R,R,1,0
50,0,2548.156,0,4,30,100,501,9.0,6,2548.999,0,736181.5954,Aud,Left,2015-08-05 13:34:00,5_8_2015 level5_100_cooling 13_34 log,7.0,34.0,1311,-30,0.5235987755982988,R,L,0,60
51,0,570.234,0,4,30,250,901,9.0,4,571.377,1,736167.698993,Aud,Left,2015-07-22 16:37:00,22_7_2015 level5_250_cooling 16_37 log,10.0,34.0,1311,30,0.5235987755982988,R,R,1,0
123,0,2943.679,0,4,30,100,801,9.0,5,2944.596,0,736183.603147,Aud,Left,2015-08-07 13:39:00,7_8_2015 level5_100_cooling 13_39 log,9.0,34.0,1311,0,0.5235987755982988,R,,0,30
82,0,875.044,0,4,30,250,651,9.0,4,876.311,1,736167.702522,Aud,Left,2015-07-22 16:37:00,22_7_2015 level5_250_cooling 16_37 log,10.0,34.0,1311,30,0.5235987755982988,R,R,1,0
82,0,875.044,0,4,30,250,651,9.0,4,876.311,1,736167.702522,Aud,Left,2015-07-22 16:37:00,22_7_2015 level5_250_cooling 16_37 log,10.0,34.0,1311,30,0.5235987755982988,R,R,1,0
10,0,106.653,0,4,30,250,601,9.0,4,107.391,1,736167.693623,Aud,Left,2015-07-22 16:37:00,22_7_2015 level5_250_cooling 16_37 log,9.0,35.0,1311,30,0.5235987755982988,R,R,1,0
11,0,1148.142,0,4,30,250,701,9.0,4,1149.06,1,736126.593537,Aud,Left,2015-06-11 13:55:00,11_6_2015 level5_250_cooling 13_55 log,9.0,35.0,1311,30,0.5235987755982988,R,R,1,0
12,0,1768.863,0,4,30,100,951,9.0,8,1774.453,0,736183.589603,Aud,Left,2015-08-07 13:39:00,7_8_2015 level5_100_cooling 13_39 log,8.0,35.0,1311,-90,0.5235987755982988,R,L,0,120
82,0,875.044,0,4,30,250,651,9.0,4,876.311,1,736167.702522,Aud,Left,2015-07-22 16:37:00,22_7_2015 level5_250_cooling 16_37 log,10.0,34.0,1311,30,0.5235987755982988,R,R,1,0
4,0,35.795,0,4,30,250,851,9.0,4,36.529,1,736167.692803,Aud,Left,2015-07-22 16:37:00,22_7_2015 level5_250_cooling 16_37 log,9.0,35.0,1311,30,0.5235987755982988,R,R,1,0
51,0,570.234,0,4,30,250,901,9.0,4,571.377,1,736167.698993,Aud,Left,2015-07-22 16:37:00,22_7_2015 level5_250_cooling 16_37 log,10.0,34.0,1311,30,0.5235987755982988,R,R,1,0
40,0,1510.567,0,4,30,250,701,9.0,4,1511.613,1,736148.681653,Aud,Left,2015-07-03 15:56:00,3_7_2015 level5_250_cooling 15_56 log,11.0,35.0,1311,30,0.5235987755982988,R,R,1,0
52,0,2569.631,0,4,30,100,651,9.0,4,2570.391,1,736181.595649,Aud,Left,2015-08-05 13:34:00,5_8_2015 level5_100_cooling 13_34 log,8.0,34.0,1311,30,0.5235987755982988,R,R,1,0
45,0,1124.143,0,4,30,250,751,9.0,4,1126.048,1,736131.695661,Aud,Left,2015-06-16 16:23:00,16_6_2015 level5_250_cooling 16_23 log,9.0,34.0,1311,30,0.5235987755982988,R,R,1,0
34,0,2021.78,0,4,30,100,801,9.0,5,2023.018,0,736183.59248,Aud,Left,2015-08-07 13:39:00,7_8_2015 level5_100_cooling 13_39 log,8.0,35.0,1311,0,0.5235987755982988,R,,0,30
25,0,1924.974,0,4,30,100,651,9.0,6,1926.703,0,736183.591365,Aud,Left,2015-08-07 13:39:00,7_8_2015 level5_100_cooling 13_39 log,8.0,35.0,1311,-30,0.5235987755982988,R,L,0,60
51,0,570.234,0,4,30,250,901,9.0,4,571.377,1,736167.698993,Aud,Left,2015-07-22 16:37:00,22_7_2015 level5_250_cooling 16_37 log,10.0,34.0,1311,30,0.5235987755982988,R,R,1,0
10,0,106.653,0,4,30,250,601,9.0,4,107.391,1,736167.693623,Aud,Left,2015-07-22 16:37:00,22_7_2015 level5_250_cooling 16_37 log,9.0,35.0,1311,30,0.5235987755982988,R,R,1,0
100,0,2143.833,0,4,30,250,901,9.0,4,2144.965,1,736126.605064,Aud,Left,2015-06-11 13:55:00,11_6_2015 level5_250_cooling 13_55 log,9.0,34.0,1311,30,0.5235987755982988,R,R,1,0
41,0,1495.529,0,4,30,250,651,9.0,4,1496.427,1,736126.597558,Aud,Left,2015-06-11 13:55:00,11_6_2015 level5_250_cooling 13_55 log,8.0,34.0,1311,30,0.5235987755982988,R,R,1,0
40,0,1510.567,0,4,30,250,701,9.0,4,1511.613,1,736148.681653,Aud,Left,2015-07-03 15:56:00,3_7_2015 level5_250_cooling 15_56 log,11.0,35.0,1311,30,0.5235987755982988,R,R,1,0
92,0,1746.397,0,4,30,250,801,9.0,4,1747.153,1,736159.699615,Aud,Left,2015-07-14 16:18:00,14_7_2015 level5_250_cooling 16_18 log,10.0,34.0,1311,30,0.5235987755982988,R,R,1,0
92,0,2656.9,0,3,60,100,951,0.0,3,2658.028,1,736183.599829,Aud,Left,2015-08-07 13:39:00,7_8_2015 level5_100_cooling 13_39 log,8.0,34.0,1311,60,1.0471975511965976,R,R,1,0
92,0,2656.9,0,3,60,100,951,0.0,3,2658.028,1,736183.599829,Aud,Left,2015-08-07 13:39:00,7_8_2015 level5_100_cooling 13_39 log,8.0,34.0,1311,60,1.0471975511965976,R,R,1,0
95,0,2991.575,0,3,60,100,1001,0.0,3,2992.598,1,736181.600534,Aud,Left,2015-08-05 13:34:00,5_8_2015 level5_100_cooling 13_34 log,8.0,34.0,1311,60,1.0471975511965976,R,R,1,0
22,0,1267.472,0,3,60,250,501,0.0,4,1268.439,0,736126.594919,Aud,Left,2015-06-11 13:55:00,11_6_2015 level5_250_cooling 13_55 log,9.0,34.0,1311,30,1.0471975511965976,R,R,1,30
95,0,2991.575,0,3,60,100,1001,0.0,3,2992.598,1,736181.600534,Aud,Left,2015-08-05 13:34:00,5_8_2015 level5_100_cooling 13_34 log,8.0,34.0,1311,60,1.0471975511965976,R,R,1,0
10,0,1744.837,0,3,60,100,601,0.0,2,1745.814,0,736183.589272,Aud,Left,2015-08-07 13:39:00,7_8_2015 level5_100_cooling 13_39 log,8.0,35.0,1311,90,1.0471975511965976,R,R,1,30
83,0,1718.345,0,3,60,250,501,0.0,4,1721.135,0,736131.702548,Aud,Left,2015-06-16 16:23:00,16_6_2015 level5_250_cooling 16_23 log,11.0,34.0,1311,30,1.0471975511965976,R,R,1,30
92,0,2656.9,0,3,60,100,951,0.0,3,2658.028,1,736183.599829,Aud,Left,2015-08-07 13:39:00,7_8_2015 level5_100_cooling 13_39 log,8.0,34.0,1311,60,1.0471975511965976,R,R,1,0
10,0,1744.837,0,3,60,100,601,0.0,2,1745.814,0,736183.589272,Aud,Left,2015-08-07 13:39:00,7_8_2015 level5_100_cooling 13_39 log,8.0,35.0,1311,90,1.0471975511965976,R,R,1,30
76,0,2829.12,0,3,60,100,751,0.0,3,2829.827,1,736181.598651,Aud,Left,2015-08-05 13:34:00,5_8_2015 level5_100_cooling 13_34 log,7.0,34.0,1311,60,1.0471975511965976,R,R,1,0
83,0,1718.345,0,3,60,250,501,0.0,4,1721.135,0,736131.702548,Aud,Left,2015-06-16 16:23:00,16_6_2015 level5_250_cooling 16_23 log,11.0,34.0,1311,30,1.0471975511965976,R,R,1,30
16,0,1817.079,0,3,60,100,651,0.0,3,1818.46,1,736183.590113,Aud,Left,2015-08-07 13:39:00,7_8_2015 level5_100_cooling 13_39 log,8.0,35.0,1311,60,1.0471975511965976,R,R,1,0
76,0,2829.12,0,3,60,100,751,0.0,3,2829.827,1,736181.598651,Aud,Left,2015-08-05 13:34:00,5_8_2015 level5_100_cooling 13_34 log,7.0,34.0,1311,60,1.0471975511965976,R,R,1,0
73,0,792.328,0,3,60,250,901,0.0,4,793.052,0,736167.70156,Aud,Left,2015-07-22 16:37:00,22_7_2015 level5_250_cooling 16_37 log,10.0,34.0,1311,30,1.0471975511965976,R,R,1,30
84,0,1977.178,0,3,60,250,751,0.0,4,1978.212,0,736126.603134,Aud,Left,2015-06-11 13:55:00,11_6_2015 level5_250_cooling 13_55 log,9.0,34.0,1311,30,1.0471975511965976,R,R,1,30
40,0,2078.076,0,3,60,100,751,0.0,3,2078.889,1,736183.593127,Aud,Left,2015-08-07 13:39:00,7_8_2015 level5_100_cooling 13_39 log,8.0,34.0,1311,60,1.0471975511965976,R,R,1,0
47,0,1553.152,0,3,60,250,501,0.0,4,1554.448,0,736126.598229,Aud,Left,2015-06-11 13:55:00,11_6_2015 level5_250_cooling 13_55 log,9.0,34.0,1311,30,1.0471975511965976,R,R,1,30
49,0,1312.613,0,3,60,250,1001,0.0,4,1313.423,0,736159.694594,Aud,Left,2015-07-14 16:18:00,14_7_2015 level5_250_cooling 16_18 log,9.0,35.0,1311,30,1.0471975511965976,R,R,1,30
47,0,1553.152,0,3,60,250,501,0.0,4,1554.448,0,736126.598229,Aud,Left,2015-06-11 13:55:00,11_6_2015 level5_250_cooling 13_55 log,9.0,34.0,1311,30,1.0471975511965976,R,R,1,30
40,0,2078.076,0,3,60,100,751,0.0,3,2078.889,1,736183.593127,Aud,Left,2015-08-07 13:39:00,7_8_2015 level5_100_cooling 13_39 log,8.0,34.0,1311,60,1.0471975511965976,R,R,1,0
92,0,2656.9,0,3,60,100,951,0.0,3,2658.028,1,736183.599829,Aud,Left,2015-08-07 13:39:00,7_8_2015 level5_100_cooling 13_39 log,8.0,34.0,1311,60,1.0471975511965976,R,R,1,0
117,0,2884.163,0,3,60,100,1001,0.0,3,2885.367,1,736183.602461,Aud,Left,2015-08-07 13:39:00,7_8_2015 level5_100_cooling 13_39 log,9.0,34.0,1311,60,1.0471975511965976,R,R,1,0
16,0,1817.079,0,3,60,100,651,0.0,3,1818.46,1,736183.590113,Aud,Left,2015-08-07 13:39:00,7_8_2015 level5_100_cooling 13_39 log,8.0,35.0,1311,60,1.0471975511965976,R,R,1,0
54,0,2589.023,0,3,60,100,751,4.5,6,2589.876,0,736181.595872,Aud,Left,2015-08-05 13:34:00,5_8_2015 level5_100_cooling 13_34 log,8.0,34.0,1311,-30,1.0471975511965976,R,L,0,90
65,0,2348.759,0,3,60,100,751,4.5,3,2349.501,1,736183.59626,Aud,Left,2015-08-07 13:39:00,7_8_2015 level5_100_cooling 13_39 log,7.0,35.0,1311,60,1.0471975511965976,R,R,1,0
117,0,1997.728,0,3,60,250,851,4.5,4,1998.436,0,736159.702524,Aud,Left,2015-07-14 16:18:00,14_7_2015 level5_250_cooling 16_18 log,10.0,34.0,1311,30,1.0471975511965976,R,R,1,30
71,0,2433.976,0,3,60,100,951,4.5,3,2434.901,1,736183.597247,Aud,Left,2015-08-07 13:39:00,7_8_2015 level5_100_cooling 13_39 log,8.0,35.0,1311,60,1.0471975511965976,R,R,1,0
112,0,1251.588,0,3,60,250,551,4.5,4,1253.842,0,736167.706891,Aud,Left,2015-07-22 16:37:00,22_7_2015 level5_250_cooling 16_37 log,12.0,34.0,1311,30,1.0471975511965976,R,R,1,30
116,0,1304.937,0,3,60,250,801,4.5,5,1305.922,0,736167.707494,Aud,Left,2015-07-22 16:37:00,22_7_2015 level5_250_cooling 16_37 log,12.0,34.0,1311,0,1.0471975511965976,R,,0,60
1,0,951.191,0,3,60,250,501,4.5,2,953.219,0,736126.591271,Aud,Left,2015-06-11 13:55:00,11_6_2015 level5_250_cooling 13_55 log,11.0,35.0,1311,90,1.0471975511965976,R,R,1,30
54,0,2589.023,0,3,60,100,751,4.5,6,2589.876,0,736181.595872,Aud,Left,2015-08-05 13:34:00,5_8_2015 level5_100_cooling 13_34 log,8.0,34.0,1311,-30,1.0471975511965976,R,L,0,90
17,0,187.246,1,3,60,250,751,4.5,3,189.048,1,736167.694567,Aud,Left,2015-07-22 16:37:00,22_7_2015 level5_250_cooling 16_37 log,10.0,35.0,1311,60,1.0471975511965976,R,R,1,0
17,0,187.246,1,3,60,250,751,4.5,3,189.048,1,736167.694567,Aud,Left,2015-07-22 16:37:00,22_7_2015 level5_250_cooling 16_37 log,10.0,35.0,1311,60,1.0471975511965976,R,R,1,0
1,0,951.191,0,3,60,250,501,4.5,2,953.219,0,736126.591271,Aud,Left,2015-06-11 13:55:00,11_6_2015 level5_250_cooling 13_55 log,11.0,35.0,1311,90,1.0471975511965976,R,R,1,30
116,0,1304.937,0,3,60,250,801,4.5,5,1305.922,0,736167.707494,Aud,Left,2015-07-22 16:37:00,22_7_2015 level5_250_cooling 16_37 log,12.0,34.0,1311,0,1.0471975511965976,R,,0,60
106,0,2782.123,0,3,60,100,1001,4.5,3,2783.124,1,736183.601278,Aud,Left,2015-08-07 13:39:00,7_8_2015 level5_100_cooling 13_39 log,8.0,34.0,1311,60,1.0471975511965976,R,R,1,0
60,0,2657.289,0,3,60,100,801,4.5,4,2658.187,0,736181.596664,Aud,Left,2015-08-05 13:34:00,5_8_2015 level5_100_cooling 13_34 log,7.0,34.0,1311,30,1.0471975511965976,R,R,1,30
33,0,1082.835,0,3,60,250,501,4.5,4,1083.695,0,736159.691936,Aud,Left,2015-07-14 16:18:00,14_7_2015 level5_250_cooling 16_18 log,9.0,35.0,1311,30,1.0471975511965976,R,R,1,30
33,0,1082.835,0,3,60,250,501,4.5,4,1083.695,0,736159.691936,Aud,Left,2015-07-14 16:18:00,14_7_2015 level5_250_cooling 16_18 log,9.0,35.0,1311,30,1.0471975511965976,R,R,1,30
19,0,2226.082,0,3,60,100,701,4.5,3,2226.927,1,736181.591672,Aud,Left,2015-08-05 13:34:00,5_8_2015 level5_100_cooling 13_34 log,7.0,34.0,1311,60,1.0471975511965976,R,R,1,0
106,0,2782.123,0,3,60,100,1001,4.5,3,2783.124,1,736183.601278,Aud,Left,2015-08-07 13:39:00,7_8_2015 level5_100_cooling 13_39 log,8.0,34.0,1311,60,1.0471975511965976,R,R,1,0
54,0,2589.023,0,3,60,100,751,4.5,6,2589.876,0,736181.595872,Aud,Left,2015-08-05 13:34:00,5_8_2015 level5_100_cooling 13_34 log,8.0,34.0,1311,-30,1.0471975511965976,R,L,0,90
54,0,2589.023,0,3,60,100,751,4.5,6,2589.876,0,736181.595872,Aud,Left,2015-08-05 13:34:00,5_8_2015 level5_100_cooling 13_34 log,8.0,34.0,1311,-30,1.0471975511965976,R,L,0,90
60,0,2657.289,0,3,60,100,801,4.5,4,2658.187,0,736181.596664,Aud,Left,2015-08-05 13:34:00,5_8_2015 level5_100_cooling 13_34 log,7.0,34.0,1311,30,1.0471975511965976,R,R,1,30
112,0,2331.49,0,3,60,250,901,4.5,4,2332.61,0,736148.691155,Aud,Left,2015-07-03 15:56:00,3_7_2015 level5_250_cooling 15_56 log,9.0,35.0,1311,30,1.0471975511965976,R,R,1,30
17,0,187.246,1,3,60,250,751,4.5,3,189.048,1,736167.694567,Aud,Left,2015-07-22 16:37:00,22_7_2015 level5_250_cooling 16_37 log,10.0,35.0,1311,60,1.0471975511965976,R,R,1,0
72,0,1559.547,0,3,60,250,501,9.0,5,1560.709,0,736159.697456,Aud,Left,2015-07-14 16:18:00,14_7_2015 level5_250_cooling 16_18 log,10.0,34.0,1311,0,1.0471975511965976,R,,0,60
61,0,1442.855,0,3,60,250,751,9.0,4,1443.979,0,736159.696105,Aud,Left,2015-07-14 16:18:00,14_7_2015 level5_250_cooling 16_18 log,9.0,34.0,1311,30,1.0471975511965976,R,R,1,30
31,0,1993.93,1,3,60,100,551,9.0,4,1995.02,0,736183.592156,Aud,Left,2015-08-07 13:39:00,7_8_2015 level5_100_cooling 13_39 log,8.0,35.0,1311,30,1.0471975511965976,R,R,1,30
102,0,1049.867,0,3,60,250,851,9.0,4,1050.725,0,736167.70454,Aud,Left,2015-07-22 16:37:00,22_7_2015 level5_250_cooling 16_37 log,11.0,34.0,1311,30,1.0471975511965976,R,R,1,30
51,0,1200.536,0,3,60,250,651,9.0,3,1201.266,1,736131.696532,Aud,Left,2015-06-16 16:23:00,16_6_2015 level5_250_cooling 16_23 log,9.0,34.0,1311,60,1.0471975511965976,R,R,1,0
102,0,1049.867,0,3,60,250,851,9.0,4,1050.725,0,736167.70454,Aud,Left,2015-07-22 16:37:00,22_7_2015 level5_250_cooling 16_37 log,11.0,34.0,1311,30,1.0471975511965976,R,R,1,30
51,0,1200.536,0,3,60,250,651,9.0,3,1201.266,1,736131.696532,Aud,Left,2015-06-16 16:23:00,16_6_2015 level5_250_cooling 16_23 log,9.0,34.0,1311,60,1.0471975511965976,R,R,1,0
12,0,872.33,0,3,60,250,851,9.0,6,873.511,0,736159.689503,Aud,Left,2015-07-14 16:18:00,14_7_2015 level5_250_cooling 16_18 log,9.0,36.0,1311,-30,1.0471975511965976,R,L,0,90
61,0,1442.855,0,3,60,250,751,9.0,4,1443.979,0,736159.696105,Aud,Left,2015-07-14 16:18:00,14_7_2015 level5_250_cooling 16_18 log,9.0,34.0,1311,30,1.0471975511965976,R,R,1,30
72,0,1559.547,0,3,60,250,501,9.0,5,1560.709,0,736159.697456,Aud,Left,2015-07-14 16:18:00,14_7_2015 level5_250_cooling 16_18 log,10.0,34.0,1311,0,1.0471975511965976,R,,0,60
1,0,560.339,0,3,60,250,1001,9.0,4,562.913,0,736167.691292,Aud,Left,2015-07-22 16:37:00,22_7_2015 level5_250_cooling 16_37 log,10.0,34.0,1311,30,1.0471975511965976,R,R,1,30
32,0,361.662,0,3,60,250,751,9.0,4,362.473,0,736167.696574,Aud,Left,2015-07-22 16:37:00,22_7_2015 level5_250_cooling 16_37 log,10.0,35.0,1311,30,1.0471975511965976,R,R,1,30
16,0,1247.109,0,3,60,250,801,9.0,3,1247.787,1,736148.678601,Aud,Left,2015-07-03 15:56:00,3_7_2015 level5_250_cooling 15_56 log,11.0,35.0,1311,60,1.0471975511965976,R,R,1,0
71,0,1854.338,0,3,60,250,501,9.0,4,1855.089,0,736148.685629,Aud,Left,2015-07-03 15:56:00,3_7_2015 level5_250_cooling 15_56 log,11.0,35.0,1311,30,1.0471975511965976,R,R,1,30
32,0,361.662,0,3,60,250,751,9.0,4,362.473,0,736167.696574,Aud,Left,2015-07-22 16:37:00,22_7_2015 level5_250_cooling 16_37 log,10.0,35.0,1311,30,1.0471975511965976,R,R,1,30
61,0,1442.855,0,3,60,250,751,9.0,4,1443.979,0,736159.696105,Aud,Left,2015-07-14 16:18:00,14_7_2015 level5_250_cooling 16_18 log,9.0,34.0,1311,30,1.0471975511965976,R,R,1,30
7,0,72.583,0,3,60,250,551,9.0,7,73.591,0,736167.69323,Aud,Left,2015-07-22 16:37:00,22_7_2015 level5_250_cooling 16_37 log,9.0,35.0,1311,-60,1.0471975511965976,R,L,0,120
1,0,560.339,0,3,60,250,1001,9.0,4,562.913,0,736167.691292,Aud,Left,2015-07-22 16:37:00,22_7_2015 level5_250_cooling 16_37 log,10.0,34.0,1311,30,1.0471975511965976,R,R,1,30
6,0,2099.381,0,3,60,100,951,9.0,3,2100.375,1,736181.590208,Aud,Left,2015-08-05 13:34:00,5_8_2015 level5_100_cooling 13_34 log,10.0,35.0,1311,60,1.0471975511965976,R,R,1,0
31,0,1993.93,1,3,60,100,551,9.0,4,1995.02,0,736183.592156,Aud,Left,2015-08-07 13:39:00,7_8_2015 level5_100_cooling 13_39 log,8.0,35.0,1311,30,1.0471975511965976,R,R,1,30
72,0,1559.547,0,3,60,250,501,9.0,5,1560.709,0,736159.697456,Aud,Left,2015-07-14 16:18:00,14_7_2015 level5_250_cooling 16_18 log,10.0,34.0,1311,0,1.0471975511965976,R,,0,60
71,0,1854.338,0,3,60,250,501,9.0,4,1855.089,0,736148.685629,Aud,Left,2015-07-03 15:56:00,3_7_2015 level5_250_cooling 15_56 log,11.0,35.0,1311,30,1.0471975511965976,R,R,1,30
7,0,72.583,0,3,60,250,551,9.0,7,73.591,0,736167.69323,Aud,Left,2015-07-22 16:37:00,22_7_2015 level5_250_cooling 16_37 log,9.0,35.0,1311,-60,1.0471975511965976,R,L,0,120
90,0,2029.326,0,2,90,250,651,0.0,3,2030.057,0,736126.603735,Aud,Left,2015-06-11 13:55:00,11_6_2015 level5_250_cooling 13_55 log,9.0,34.0,1311,60,1.5707963267948966,R,R,1,30
44,0,1258.012,0,2,90,250,551,0.0,3,1258.762,0,736159.693962,Aud,Left,2015-07-14 16:18:00,14_7_2015 level5_250_cooling 16_18 log,9.0,34.0,1311,60,1.5707963267948966,R,R,1,30
115,0,1288.975,0,2,90,250,701,0.0,4,1290.206,0,736167.707311,Aud,Left,2015-07-22 16:37:00,22_7_2015 level5_250_cooling 16_37 log,12.0,34.0,1311,30,1.5707963267948966,R,R,1,60
53,0,2577.699,0,2,90,100,551,0.0,3,2578.605,0,736181.595742,Aud,Left,2015-08-05 13:34:00,5_8_2015 level5_100_cooling 13_34 log,8.0,34.0,1311,60,1.5707963267948966,R,R,1,30
22,0,1894.185,0,2,90,100,951,0.0,2,1894.902,1,736183.590999,Aud,Left,2015-08-07 13:39:00,7_8_2015 level5_100_cooling 13_39 log,8.0,35.0,1311,90,1.5707963267948966,R,R,1,0
41,0,2085.582,1,2,90,100,651,0.0,3,2086.404,0,736183.593214,Aud,Left,2015-08-07 13:39:00,7_8_2015 level5_100_cooling 13_39 log,8.0,34.0,1311,60,1.5707963267948966,R,R,1,30
108,0,2801.192,0,2,90,100,551,0.0,3,2802.281,0,736183.6015,Aud,Left,2015-08-07 13:39:00,7_8_2015 level5_100_cooling 13_39 log,8.0,34.0,1311,60,1.5707963267948966,R,R,1,30
37,0,415.167,0,2,90,250,1001,0.0,2,416.0,1,736167.697194,Aud,Left,2015-07-22 16:37:00,22_7_2015 level5_250_cooling 16_37 log,10.0,35.0,1311,90,1.5707963267948966,R,R,1,0
69,0,2392.047,0,2,90,100,801,0.0,2,2392.819,1,736183.596761,Aud,Left,2015-08-07 13:39:00,7_8_2015 level5_100_cooling 13_39 log,8.0,35.0,1311,90,1.5707963267948966,R,R,1,0
90,0,2029.326,0,2,90,250,651,0.0,3,2030.057,0,736126.603735,Aud,Left,2015-06-11 13:55:00,11_6_2015 level5_250_cooling 13_55 log,9.0,34.0,1311,60,1.5707963267948966,R,R,1,30
41,0,2085.582,1,2,90,100,651,0.0,3,2086.404,0,736183.593214,Aud,Left,2015-08-07 13:39:00,7_8_2015 level5_100_cooling 13_39 log,8.0,34.0,1311,60,1.5707963267948966,R,R,1,30
37,0,415.167,0,2,90,250,1001,0.0,2,416.0,1,736167.697194,Aud,Left,2015-07-22 16:37:00,22_7_2015 level5_250_cooling 16_37 log,10.0,35.0,1311,90,1.5707963267948966,R,R,1,0
20,0,2234.168,0,2,90,100,551,0.0,4,2235.047,0,736181.591766,Aud,Left,2015-08-05 13:34:00,5_8_2015 level5_100_cooling 13_34 log,7.0,34.0,1311,30,1.5707963267948966,R,R,1,60
2,0,1606.821,0,2,90,100,551,0.0,2,1616.307,1,736183.587773,Aud,Left,2015-08-07 13:39:00,7_8_2015 level5_100_cooling 13_39 log,10.0,36.0,1311,90,1.5707963267948966,R,R,1,0
22,0,1894.185,0,2,90,100,951,0.0,2,1894.902,1,736183.590999,Aud,Left,2015-08-07 13:39:00,7_8_2015 level5_100_cooling 13_39 log,8.0,35.0,1311,90,1.5707963267948966,R,R,1,0
47,0,529.649,0,2,90,250,551,0.0,5,530.857,0,736167.698523,Aud,Left,2015-07-22 16:37:00,22_7_2015 level5_250_cooling 16_37 log,10.0,34.0,1311,0,1.5707963267948966,R,,0,90
44,0,1258.012,0,2,90,250,551,0.0,3,1258.762,0,736159.693962,Aud,Left,2015-07-14 16:18:00,14_7_2015 level5_250_cooling 16_18 log,9.0,34.0,1311,60,1.5707963267948966,R,R,1,30
120,0,2912.67,0,2,90,100,751,0.0,3,2913.685,0,736183.602789,Aud,Left,2015-08-07 13:39:00,7_8_2015 level5_100_cooling 13_39 log,9.0,34.0,1311,60,1.5707963267948966,R,R,1,30
37,0,415.167,0,2,90,250,1001,0.0,2,416.0,1,736167.697194,Aud,Left,2015-07-22 16:37:00,22_7_2015 level5_250_cooling 16_37 log,10.0,35.0,1311,90,1.5707963267948966,R,R,1,0
22,0,1894.185,0,2,90,100,951,0.0,2,1894.902,1,736183.590999,Aud,Left,2015-08-07 13:39:00,7_8_2015 level5_100_cooling 13_39 log,8.0,35.0,1311,90,1.5707963267948966,R,R,1,0
107,0,1180.74,0,2,90,250,601,0.0,4,1181.793,0,736167.706058,Aud,Left,2015-07-22 16:37:00,22_7_2015 level5_250_cooling 16_37 log,11.0,34.0,1311,30,1.5707963267948966,R,R,1,60
90,0,2029.326,0,2,90,250,651,0.0,3,2030.057,0,736126.603735,Aud,Left,2015-06-11 13:55:00,11_6_2015 level5_250_cooling 13_55 log,9.0,34.0,1311,60,1.5707963267948966,R,R,1,30
2,0,1606.821,0,2,90,100,551,0.0,2,1616.307,1,736183.587773,Aud,Left,2015-08-07 13:39:00,7_8_2015 level5_100_cooling 13_39 log,10.0,36.0,1311,90,1.5707963267948966,R,R,1,0
12,0,725.591,0,2,90,250,851,4.5,3,726.309,0,736131.691035,Aud,Left,2015-06-16 16:23:00,16_6_2015 level5_250_cooling 16_23 log,9.0,35.0,1311,60,1.5707963267948966,R,R,1,30
26,0,1935.455,0,2,90,100,601,4.5,3,1936.571,0,736183.59148,Aud,Left,2015-08-07 13:39:00,7_8_2015 level5_100_cooling 13_39 log,8.0,35.0,1311,60,1.5707963267948966,R,R,1,30
104,0,2245.767,0,2,90,250,851,4.5,2,2246.52,1,736148.690159,Aud,Left,2015-07-03 15:56:00,3_7_2015 level5_250_cooling 15_56 log,10.0,35.0,1311,90,1.5707963267948966,R,R,1,0
87,0,2581.516,0,2,90,100,601,4.5,3,2582.629,0,736183.598957,Aud,Left,2015-08-07 13:39:00,7_8_2015 level5_100_cooling 13_39 log,8.0,35.0,1311,60,1.5707963267948966,R,R,1,30
38,0,2060.177,0,2,90,100,501,4.5,2,2061.254,1,736183.592923,Aud,Left,2015-08-07 13:39:00,7_8_2015 level5_100_cooling 13_39 log,8.0,34.0,1311,90,1.5707963267948966,R,R,1,0
104,0,2245.767,0,2,90,250,851,4.5,2,2246.52,1,736148.690159,Aud,Left,2015-07-03 15:56:00,3_7_2015 level5_250_cooling 15_56 log,10.0,35.0,1311,90,1.5707963267948966,R,R,1,0
9,0,2123.025,0,2,90,100,601,4.5,3,2124.212,0,736181.590483,Aud,Left,2015-08-05 13:34:00,5_8_2015 level5_100_cooling 13_34 log,9.0,35.0,1311,60,1.5707963267948966,R,R,1,30
61,0,670.908,0,2,90,250,801,4.5,4,671.681,0,736167.700154,Aud,Left,2015-07-22 16:37:00,22_7_2015 level5_250_cooling 16_37 log,10.0,34.0,1311,30,1.5707963267948966,R,R,1,60
87,0,2581.516,0,2,90,100,601,4.5,3,2582.629,0,736183.598957,Aud,Left,2015-08-07 13:39:00,7_8_2015 level5_100_cooling 13_39 log,8.0,35.0,1311,60,1.5707963267948966,R,R,1,30
97,0,3006.836,0,2,90,100,751,4.5,3,3007.512,0,736181.600708,Aud,Left,2015-08-05 13:34:00,5_8_2015 level5_100_cooling 13_34 log,8.0,34.0,1311,60,1.5707963267948966,R,R,1,30
9,0,2123.025,0,2,90,100,601,4.5,3,2124.212,0,736181.590483,Aud,Left,2015-08-05 13:34:00,5_8_2015 level5_100_cooling 13_34 log,9.0,35.0,1311,60,1.5707963267948966,R,R,1,30
9,0,2123.025,0,2,90,100,601,4.5,3,2124.212,0,736181.590483,Aud,Left,2015-08-05 13:34:00,5_8_2015 level5_100_cooling 13_34 log,9.0,35.0,1311,60,1.5707963267948966,R,R,1,30
83,0,2890.792,0,2,90,100,551,4.5,6,2892.253,0,736181.599372,Aud,Left,2015-08-05 13:34:00,5_8_2015 level5_100_cooling 13_34 log,8.0,34.0,1311,-30,1.5707963267948966,R,L,0,120
80,0,2516.231,0,2,90,100,701,4.5,2,2517.266,1,736183.598201,Aud,Left,2015-08-07 13:39:00,7_8_2015 level5_100_cooling 13_39 log,8.0,35.0,1311,90,1.5707963267948966,R,R,1,0
97,0,3006.836,0,2,90,100,751,4.5,3,3007.512,0,736181.600708,Aud,Left,2015-08-05 13:34:00,5_8_2015 level5_100_cooling 13_34 log,8.0,34.0,1311,60,1.5707963267948966,R,R,1,30
80,0,1511.495,0,2,90,250,1001,4.5,3,1512.099,0,736131.70013,Aud,Left,2015-06-16 16:23:00,16_6_2015 level5_250_cooling 16_23 log,9.0,34.0,1311,60,1.5707963267948966,R,R,1,30
118,0,2396.211,0,2,90,250,951,4.5,8,2397.399,0,736148.691905,Aud,Left,2015-07-03 15:56:00,3_7_2015 level5_250_cooling 15_56 log,10.0,35.0,1311,-90,1.5707963267948966,R,L,0,180
61,0,670.908,0,2,90,250,801,4.5,4,671.681,0,736167.700154,Aud,Left,2015-07-22 16:37:00,22_7_2015 level5_250_cooling 16_37 log,10.0,34.0,1311,30,1.5707963267948966,R,R,1,60
80,0,2516.231,0,2,90,100,701,4.5,2,2517.266,1,736183.598201,Aud,Left,2015-08-07 13:39:00,7_8_2015 level5_100_cooling 13_39 log,8.0,35.0,1311,90,1.5707963267948966,R,R,1,0
102,0,1873.735,0,2,90,250,951,4.5,4,1874.875,0,736159.701093,Aud,Left,2015-07-14 16:18:00,14_7_2015 level5_250_cooling 16_18 log,10.0,34.0,1311,30,1.5707963267948966,R,R,1,60
80,0,2516.231,0,2,90,100,701,4.5,2,2517.266,1,736183.598201,Aud,Left,2015-08-07 13:39:00,7_8_2015 level5_100_cooling 13_39 log,8.0,35.0,1311,90,1.5707963267948966,R,R,1,0
57,0,2256.921,0,2,90,100,501,4.5,4,2258.171,0,736183.595202,Aud,Left,2015-08-07 13:39:00,7_8_2015 level5_100_cooling 13_39 log,8.0,35.0,1311,30,1.5707963267948966,R,R,1,60
80,0,1511.495,0,2,90,250,1001,4.5,3,1512.099,0,736131.70013,Aud,Left,2015-06-16 16:23:00,16_6_2015 level5_250_cooling 16_23 log,9.0,34.0,1311,60,1.5707963267948966,R,R,1,30
34,0,1388.253,0,2,90,250,801,9.0,3,1388.982,0,736126.596315,Aud,Left,2015-06-11 13:55:00,11_6_2015 level5_250_cooling 13_55 log,9.0,34.0,1311,60,1.5707963267948966,R,R,1,30
52,0,1618.019,0,2,90,250,501,9.0,3,1618.749,0,736126.598975,Aud,Left,2015-06-11 13:55:00,11_6_2015 level5_250_cooling 13_55 log,9.0,34.0,1311,60,1.5707963267948966,R,R,1,30
52,0,1618.019,0,2,90,250,501,9.0,3,1618.749,0,736126.598975,Aud,Left,2015-06-11 13:55:00,11_6_2015 level5_250_cooling 13_55 log,9.0,34.0,1311,60,1.5707963267948966,R,R,1,30
52,0,1618.019,0,2,90,250,501,9.0,3,1618.749,0,736126.598975,Aud,Left,2015-06-11 13:55:00,11_6_2015 level5_250_cooling 13_55 log,9.0,34.0,1311,60,1.5707963267948966,R,R,1,30
52,0,2191.523,0,2,90,100,701,9.0,2,2192.434,1,736183.594441,Aud,Left,2015-08-07 13:39:00,7_8_2015 level5_100_cooling 13_39 log,8.0,35.0,1311,90,1.5707963267948966,R,R,1,0
52,0,2191.523,0,2,90,100,701,9.0,2,2192.434,1,736183.594441,Aud,Left,2015-08-07 13:39:00,7_8_2015 level5_100_cooling 13_39 log,8.0,35.0,1311,90,1.5707963267948966,R,R,1,0
4,0,1679.251,0,2,90,100,901,9.0,3,1680.521,0,736183.588516,Aud,Left,2015-08-07 13:39:00,7_8_2015 level5_100_cooling 13_39 log,9.0,35.0,1311,60,1.5707963267948966,R,R,1,30
134,0,1490.924,0,2,90,250,551,9.0,3,1492.414,0,736167.709652,Aud,Left,2015-07-22 16:37:00,22_7_2015 level5_250_cooling 16_37 log,10.0,34.0,1311,60,1.5707963267948966,R,R,1,30
52,0,2191.523,0,2,90,100,701,9.0,2,2192.434,1,736183.594441,Aud,Left,2015-08-07 13:39:00,7_8_2015 level5_100_cooling 13_39 log,8.0,35.0,1311,90,1.5707963267948966,R,R,1,0
52,0,2191.523,0,2,90,100,701,9.0,2,2192.434,1,736183.594441,Aud,Left,2015-08-07 13:39:00,7_8_2015 level5_100_cooling 13_39 log,8.0,35.0,1311,90,1.5707963267948966,R,R,1,0
54,0,1372.646,0,2,90,250,701,9.0,2,1373.505,1,736159.695289,Aud,Left,2015-07-14 16:18:00,14_7_2015 level5_250_cooling 16_18 log,9.0,34.0,1311,90,1.5707963267948966,R,R,1,0
33,0,1434.722,0,2,90,250,801,9.0,6,1436.258,0,736148.68078,Aud,Left,2015-07-03 15:56:00,3_7_2015 level5_250_cooling 15_56 log,11.0,35.0,1311,-30,1.5707963267948966,R,L,0,120
37,0,2401.69,0,2,90,100,951,9.0,6,2402.293,0,736181.593704,Aud,Left,2015-08-05 13:34:00,5_8_2015 level5_100_cooling 13_34 log,7.0,34.0,1311,-30,1.5707963267948966,R,L,0,120
52,0,1618.019,0,2,90,250,501,9.0,3,1618.749,0,736126.598975,Aud,Left,2015-06-11 13:55:00,11_6_2015 level5_250_cooling 13_55 log,9.0,34.0,1311,60,1.5707963267948966,R,R,1,30
14,0,1222.896,0,2,90,250,1001,9.0,3,1223.321,0,736148.678321,Aud,Left,2015-07-03 15:56:00,3_7_2015 level5_250_cooling 15_56 log,11.0,35.0,1311,60,1.5707963267948966,R,R,1,30
52,0,2191.523,0,2,90,100,701,9.0,2,2192.434,1,736183.594441,Aud,Left,2015-08-07 13:39:00,7_8_2015 level5_100_cooling 13_39 log,8.0,35.0,1311,90,1.5707963267948966,R,R,1,0
64,0,702.54,0,2,90,250,601,9.0,6,704.107,0,736167.700528,Aud,Left,2015-07-22 16:37:00,22_7_2015 level5_250_cooling 16_37 log,10.0,34.0,1311,-30,1.5707963267948966,R,L,0,120
121,0,2922.669,0,2,90,100,601,9.0,4,2923.754,0,736183.602905,Aud,Left,2015-08-07 13:39:00,7_8_2015 level5_100_cooling 13_39 log,8.0,34.0,1311,30,1.5707963267948966,R,R,1,60
57,0,1694.415,0,2,90,250,701,9.0,4,1695.062,0,736148.683778,Aud,Left,2015-07-03 15:56:00,3_7_2015 level5_250_cooling 15_56 log,10.0,35.0,1311,30,1.5707963267948966,R,R,1,60
52,0,1618.019,0,2,90,250,501,9.0,3,1618.749,0,736126.598975,Aud,Left,2015-06-11 13:55:00,11_6_2015 level5_250_cooling 13_55 log,9.0,34.0,1311,60,1.5707963267948966,R,R,1,30
34,0,1388.253,0,2,90,250,801,9.0,3,1388.982,0,736126.596315,Aud,Left,2015-06-11 13:55:00,11_6_2015 level5_250_cooling 13_55 log,9.0,34.0,1311,60,1.5707963267948966,R,R,1,30
37,0,2401.69,0,2,90,100,951,9.0,6,2402.293,0,736181.593704,Aud,Left,2015-08-05 13:34:00,5_8_2015 level5_100_cooling 13_34 log,7.0,34.0,1311,-30,1.5707963267948966,R,L,0,120
109,0,3124.409,0,2,90,100,851,9.0,3,3125.235,0,736181.602069,Aud,Left,2015-08-05 13:34:00,5_8_2015 level5_100_cooling 13_34 log,8.0,34.0,1311,60,1.5707963267948966,R,R,1,30
51,0,1322.905,0,8,-90,100,951,0.0,8,1323.758,1,736180.675591,Aud,Right,2015-08-04 15:50:00,4_8_2015 level5_100_cooling 15_50 log,37.0,7.0,1311,-90,-1.5707963267948966,L,L,1,0
76,0,1782.204,0,8,-90,250,801,0.0,3,1784.459,0,736124.731737,Aud,Right,2015-06-09 17:03:00,9_6_2015 level5_250_cooling 17_3 log,37.0,8.0,1311,60,-1.5707963267948966,L,R,0,150
82,0,1618.955,0,8,-90,100,751,0.0,8,1619.632,1,736180.679016,Aud,Right,2015-08-04 15:50:00,4_8_2015 level5_100_cooling 15_50 log,37.0,7.0,1311,-90,-1.5707963267948966,L,L,1,0
116,0,3190.102,0,8,-90,100,901,0.0,8,3191.065,1,736175.706946,Aud,Right,2015-07-30 16:04:00,30_7_2015 level5_100_cooling 16_4 log,37.0,9.0,1311,-90,-1.5707963267948966,L,L,1,0
82,0,1618.955,0,8,-90,100,751,0.0,8,1619.632,1,736180.679016,Aud,Right,2015-08-04 15:50:00,4_8_2015 level5_100_cooling 15_50 log,37.0,7.0,1311,-90,-1.5707963267948966,L,L,1,0
86,0,1972.583,0,8,-90,250,751,0.0,8,1973.56,1,736160.693231,Aud,Right,2015-07-15 16:05:00,15_7_2015 level5_250_cooling 16_5 log,37.0,9.0,1311,-90,-1.5707963267948966,L,L,1,0
76,0,1782.204,0,8,-90,250,801,0.0,3,1784.459,0,736124.731737,Aud,Right,2015-06-09 17:03:00,9_6_2015 level5_250_cooling 17_3 log,37.0,8.0,1311,60,-1.5707963267948966,L,R,0,150
57,0,2616.872,0,8,-90,250,851,0.0,8,2618.2,1,736125.368058,Aud,Right,2015-06-10 08:06:00,10_6_2015 level5_250_cooling 8_6 log,37.0,9.0,1311,-90,-1.5707963267948966,L,L,1,0
82,0,1618.955,0,8,-90,100,751,0.0,8,1619.632,1,736180.679016,Aud,Right,2015-08-04 15:50:00,4_8_2015 level5_100_cooling 15_50 log,37.0,7.0,1311,-90,-1.5707963267948966,L,L,1,0
51,0,1322.905,0,8,-90,100,951,0.0,8,1323.758,1,736180.675591,Aud,Right,2015-08-04 15:50:00,4_8_2015 level5_100_cooling 15_50 log,37.0,7.0,1311,-90,-1.5707963267948966,L,L,1,0
76,0,1782.204,0,8,-90,250,801,0.0,3,1784.459,0,736124.731737,Aud,Right,2015-06-09 17:03:00,9_6_2015 level5_250_cooling 17_3 log,37.0,8.0,1311,60,-1.5707963267948966,L,R,0,150
57,0,2616.872,0,8,-90,250,851,0.0,8,2618.2,1,736125.368058,Aud,Right,2015-06-10 08:06:00,10_6_2015 level5_250_cooling 8_6 log,37.0,9.0,1311,-90,-1.5707963267948966,L,L,1,0
95,0,2969.512,0,8,-90,100,651,0.0,8,2970.29,1,736175.704392,Aud,Right,2015-07-30 16:04:00,30_7_2015 level5_100_cooling 16_4 log,37.0,9.0,1311,-90,-1.5707963267948966,L,L,1,0
26,0,1093.998,0,8,-90,100,751,0.0,8,1094.734,1,736180.672941,Aud,Right,2015-08-04 15:50:00,4_8_2015 level5_100_cooling 15_50 log,37.0,7.0,1311,-90,-1.5707963267948966,L,L,1,0
25,0,2163.451,1,8,-90,100,951,0.0,8,2164.837,1,736175.695069,Aud,Right,2015-07-30 16:04:00,30_7_2015 level5_100_cooling 16_4 log,37.0,9.0,1311,-90,-1.5707963267948966,L,L,1,0
82,0,1618.955,0,8,-90,100,751,0.0,8,1619.632,1,736180.679016,Aud,Right,2015-08-04 15:50:00,4_8_2015 level5_100_cooling 15_50 log,37.0,7.0,1311,-90,-1.5707963267948966,L,L,1,0
115,0,3296.936,0,8,-90,250,901,0.0,8,3297.752,1,736125.375923,Aud,Right,2015-06-10 08:06:00,10_6_2015 level5_250_cooling 8_6 log,37.0,9.0,1311,-90,-1.5707963267948966,L,L,1,0
15,0,1056.835,0,8,-90,250,951,0.0,8,1057.797,1,736127.576724,Aud,Right,2015-06-12 13:32:00,12_6_2015 level5_250_cooling 13_32 log,37.0,9.0,1311,-90,-1.5707963267948966,L,L,1,0
95,0,2969.512,0,8,-90,100,651,0.0,8,2970.29,1,736175.704392,Aud,Right,2015-07-30 16:04:00,30_7_2015 level5_100_cooling 16_4 log,37.0,9.0,1311,-90,-1.5707963267948966,L,L,1,0
144,0,3773.927,0,8,-90,250,701,0.0,8,3775.103,1,736125.381448,Aud,Right,2015-06-10 08:06:00,10_6_2015 level5_250_cooling 8_6 log,37.0,9.0,1311,-90,-1.5707963267948966,L,L,1,0
15,0,1056.835,0,8,-90,250,951,0.0,8,1057.797,1,736127.576724,Aud,Right,2015-06-12 13:32:00,12_6_2015 level5_250_cooling 13_32 log,37.0,9.0,1311,-90,-1.5707963267948966,L,L,1,0
76,0,1782.204,0,8,-90,250,801,0.0,3,1784.459,0,736124.731737,Aud,Right,2015-06-09 17:03:00,9_6_2015 level5_250_cooling 17_3 log,37.0,8.0,1311,60,-1.5707963267948966,L,R,0,150
73,0,2722.738,0,8,-90,100,851,0.0,8,2723.634,1,736175.701537,Aud,Right,2015-07-30 16:04:00,30_7_2015 level5_100_cooling 16_4 log,37.0,9.0,1311,-90,-1.5707963267948966,L,L,1,0
50,0,1590.255,0,8,-90,250,501,4.5,7,1591.315,0,736162.685913,Aud,Right,2015-07-17 16:01:00,17_7_2015 level5_250_cooling 16_1 log,37.0,8.0,1311,-60,-1.5707963267948966,L,L,1,30
56,0,2567.982,0,8,-90,100,951,4.5,8,2568.703,1,736175.699745,Aud,Right,2015-07-30 16:04:00,30_7_2015 level5_100_cooling 16_4 log,37.0,9.0,1311,-90,-1.5707963267948966,L,L,1,0
80,0,1604.996,0,8,-90,100,851,4.5,8,1605.776,1,736180.678855,Aud,Right,2015-08-04 15:50:00,4_8_2015 level5_100_cooling 15_50 log,37.0,7.0,1311,-90,-1.5707963267948966,L,L,1,0
80,0,1604.996,0,8,-90,100,851,4.5,8,1605.776,1,736180.678855,Aud,Right,2015-08-04 15:50:00,4_8_2015 level5_100_cooling 15_50 log,37.0,7.0,1311,-90,-1.5707963267948966,L,L,1,0
13,0,1133.409,0,8,-90,250,601,4.5,8,1134.677,1,736160.683522,Aud,Right,2015-07-15 16:05:00,15_7_2015 level5_250_cooling 16_5 log,37.0,9.0,1311,-90,-1.5707963267948966,L,L,1,0
34,0,1168.471,0,8,-90,100,751,4.5,8,1169.125,1,736180.673803,Aud,Right,2015-08-04 15:50:00,4_8_2015 level5_100_cooling 15_50 log,37.0,8.0,1311,-90,-1.5707963267948966,L,L,1,0
96,0,2045.655,0,8,-90,250,651,4.5,8,2046.587,1,736162.691183,Aud,Right,2015-07-17 16:01:00,17_7_2015 level5_250_cooling 16_1 log,37.0,11.0,1311,-90,-1.5707963267948966,L,L,1,0
34,0,1168.471,0,8,-90,100,751,4.5,8,1169.125,1,736180.673803,Aud,Right,2015-08-04 15:50:00,4_8_2015 level5_100_cooling 15_50 log,37.0,8.0,1311,-90,-1.5707963267948966,L,L,1,0
50,0,2511.306,0,8,-90,250,651,4.5,8,2515.239,1,736125.366866,Aud,Right,2015-06-10 08:06:00,10_6_2015 level5_250_cooling 8_6 log,37.0,10.0,1311,-90,-1.5707963267948966,L,L,1,0
63,0,2637.605,0,8,-90,100,701,4.5,8,2638.68,1,736175.700553,Aud,Right,2015-07-30 16:04:00,30_7_2015 level5_100_cooling 16_4 log,37.0,9.0,1311,-90,-1.5707963267948966,L,L,1,0
70,0,1503.27,0,8,-90,100,951,4.5,8,1503.972,1,736180.677678,Aud,Right,2015-08-04 15:50:00,4_8_2015 level5_100_cooling 15_50 log,37.0,7.0,1311,-90,-1.5707963267948966,L,L,1,0
55,0,1510.267,0,8,-90,250,601,4.5,8,1510.939,1,736127.581969,Aud,Right,2015-06-12 13:32:00,12_6_2015 level5_250_cooling 13_32 log,37.0,9.0,1311,-90,-1.5707963267948966,L,L,1,0
63,0,2637.605,0,8,-90,100,701,4.5,8,2638.68,1,736175.700553,Aud,Right,2015-07-30 16:04:00,30_7_2015 level5_100_cooling 16_4 log,37.0,9.0,1311,-90,-1.5707963267948966,L,L,1,0
24,0,1146.559,0,8,-90,250,701,4.5,7,1147.578,0,736127.577763,Aud,Right,2015-06-12 13:32:00,12_6_2015 level5_250_cooling 13_32 log,37.0,9.0,1311,-60,-1.5707963267948966,L,L,1,30
70,0,1503.27,0,8,-90,100,951,4.5,8,1503.972,1,736180.677678,Aud,Right,2015-08-04 15:50:00,4_8_2015 level5_100_cooling 15_50 log,37.0,7.0,1311,-90,-1.5707963267948966,L,L,1,0
56,0,1609.935,0,8,-90,250,501,4.5,8,1610.768,1,736160.689033,Aud,Right,2015-07-15 16:05:00,15_7_2015 level5_250_cooling 16_5 log,36.0,8.0,1311,-90,-1.5707963267948966,L,L,1,0
63,0,2637.605,0,8,-90,100,701,4.5,8,2638.68,1,736175.700553,Aud,Right,2015-07-30 16:04:00,30_7_2015 level5_100_cooling 16_4 log,37.0,9.0,1311,-90,-1.5707963267948966,L,L,1,0
56,0,1609.935,0,8,-90,250,501,4.5,8,1610.768,1,736160.689033,Aud,Right,2015-07-15 16:05:00,15_7_2015 level5_250_cooling 16_5 log,36.0,8.0,1311,-90,-1.5707963267948966,L,L,1,0
74,0,1911.552,0,8,-90,250,601,4.5,8,1915.084,1,736127.586645,Aud,Right,2015-06-12 13:32:00,12_6_2015 level5_250_cooling 13_32 log,37.0,9.0,1311,-90,-1.5707963267948966,L,L,1,0
30,0,1201.229,0,8,-90,250,651,4.5,8,1202.058,1,736124.724996,Aud,Right,2015-06-09 17:03:00,9_6_2015 level5_250_cooling 17_3 log,37.0,8.0,1311,-90,-1.5707963267948966,L,L,1,0
73,0,2817.274,0,8,-90,250,601,4.5,7,2818.785,0,736125.370379,Aud,Right,2015-06-10 08:06:00,10_6_2015 level5_250_cooling 8_6 log,37.0,8.0,1311,-60,-1.5707963267948966,L,L,1,30
55,0,1510.267,0,8,-90,250,601,4.5,8,1510.939,1,736127.581969,Aud,Right,2015-06-12 13:32:00,12_6_2015 level5_250_cooling 13_32 log,37.0,9.0,1311,-90,-1.5707963267948966,L,L,1,0
23,0,1160.143,0,8,-90,250,851,4.5,8,1160.963,1,736162.680932,Aud,Right,2015-07-17 16:01:00,17_7_2015 level5_250_cooling 16_1 log,37.0,11.0,1311,-90,-1.5707963267948966,L,L,1,0
43,0,2062.186,0,8,-90,250,501,9.0,8,2063.053,1,736125.361632,Aud,Right,2015-06-10 08:06:00,10_6_2015 level5_250_cooling 8_6 log,37.0,8.0,1311,-90,-1.5707963267948966,L,L,1,0
46,0,1279.505,0,8,-90,100,801,9.0,8,1280.459,1,736180.67509,Aud,Right,2015-08-04 15:50:00,4_8_2015 level5_100_cooling 15_50 log,37.0,7.0,1311,-90,-1.5707963267948966,L,L,1,0
113,0,2169.634,0,8,-90,100,951,9.0,8,2170.578,1,736180.685392,Aud,Right,2015-08-04 15:50:00,4_8_2015 level5_100_cooling 15_50 log,38.0,8.0,1311,-90,-1.5707963267948966,L,L,1,0
46,0,1279.505,0,8,-90,100,801,9.0,8,1280.459,1,736180.67509,Aud,Right,2015-08-04 15:50:00,4_8_2015 level5_100_cooling 15_50 log,37.0,7.0,1311,-90,-1.5707963267948966,L,L,1,0
87,0,3002.999,0,8,-90,250,901,9.0,8,3004.365,1,736125.372527,Aud,Right,2015-06-10 08:06:00,10_6_2015 level5_250_cooling 8_6 log,37.0,8.0,1311,-90,-1.5707963267948966,L,L,1,0
64,0,1449.331,0,8,-90,100,751,9.0,8,1450.007,1,736180.677054,Aud,Right,2015-08-04 15:50:00,4_8_2015 level5_100_cooling 15_50 log,37.0,7.0,1311,-90,-1.5707963267948966,L,L,1,0
56,0,1520.667,0,8,-90,250,701,9.0,8,1521.562,1,736127.582092,Aud,Right,2015-06-12 13:32:00,12_6_2015 level5_250_cooling 13_32 log,37.0,9.0,1311,-90,-1.5707963267948966,L,L,1,0
56,0,1520.667,0,8,-90,250,701,9.0,8,1521.562,1,736127.582092,Aud,Right,2015-06-12 13:32:00,12_6_2015 level5_250_cooling 13_32 log,37.0,9.0,1311,-90,-1.5707963267948966,L,L,1,0
27,0,1101.973,0,8,-90,100,951,9.0,8,1102.616,1,736180.673033,Aud,Right,2015-08-04 15:50:00,4_8_2015 level5_100_cooling 15_50 log,37.0,7.0,1311,-90,-1.5707963267948966,L,L,1,0
113,0,2169.634,0,8,-90,100,951,9.0,8,2170.578,1,736180.685392,Aud,Right,2015-08-04 15:50:00,4_8_2015 level5_100_cooling 15_50 log,38.0,8.0,1311,-90,-1.5707963267948966,L,L,1,0
55,0,1600.744,0,8,-90,250,651,9.0,7,1601.733,0,736160.688927,Aud,Right,2015-07-15 16:05:00,15_7_2015 level5_250_cooling 16_5 log,36.0,8.0,1311,-60,-1.5707963267948966,L,L,1,30
107,0,2144.458,0,8,-90,250,751,9.0,7,2145.505,0,736162.692327,Aud,Right,2015-07-17 16:01:00,17_7_2015 level5_250_cooling 16_1 log,37.0,9.0,1311,-60,-1.5707963267948966,L,L,1,30
119,0,2255.763,0,8,-90,250,851,9.0,8,2256.738,1,736162.693614,Aud,Right,2015-07-17 16:01:00,17_7_2015 level5_250_cooling 16_1 log,37.0,9.0,1311,-90,-1.5707963267948966,L,L,1,0
138,0,3431.431,0,8,-90,100,1001,9.0,8,3432.314,1,736175.709739,Aud,Right,2015-07-30 16:04:00,30_7_2015 level5_100_cooling 16_4 log,37.0,9.0,1311,-90,-1.5707963267948966,L,L,1,0
69,0,1767.784,0,8,-90,250,1001,9.0,8,1768.785,1,736162.687967,Aud,Right,2015-07-17 16:01:00,17_7_2015 level5_250_cooling 16_1 log,37.0,9.0,1311,-90,-1.5707963267948966,L,L,1,0
117,0,3197.434,0,8,-90,100,801,9.0,8,3198.362,1,736175.707031,Aud,Right,2015-07-30 16:04:00,30_7_2015 level5_100_cooling 16_4 log,37.0,9.0,1311,-90,-1.5707963267948966,L,L,1,0
112,0,2160.697,0,8,-90,100,701,9.0,8,2162.003,1,736180.685292,Aud,Right,2015-08-04 15:50:00,4_8_2015 level5_100_cooling 15_50 log,38.0,8.0,1311,-90,-1.5707963267948966,L,L,1,0
64,0,1449.331,0,8,-90,100,751,9.0,8,1450.007,1,736180.677054,Aud,Right,2015-08-04 15:50:00,4_8_2015 level5_100_cooling 15_50 log,37.0,7.0,1311,-90,-1.5707963267948966,L,L,1,0
11,0,1117.266,0,8,-90,250,851,9.0,8,1118.16,1,736160.683331,Aud,Right,2015-07-15 16:05:00,15_7_2015 level5_250_cooling 16_5 log,37.0,9.0,1311,-90,-1.5707963267948966,L,L,1,0
152,0,3579.473,0,8,-90,100,951,9.0,8,3580.252,1,736175.711451,Aud,Right,2015-07-30 16:04:00,30_7_2015 level5_100_cooling 16_4 log,37.0,9.0,1311,-90,-1.5707963267948966,L,L,1,0
27,0,1101.973,0,8,-90,100,951,9.0,8,1102.616,1,736180.673033,Aud,Right,2015-08-04 15:50:00,4_8_2015 level5_100_cooling 15_50 log,37.0,7.0,1311,-90,-1.5707963267948966,L,L,1,0
119,0,2255.763,0,8,-90,250,851,9.0,8,2256.738,1,736162.693614,Aud,Right,2015-07-17 16:01:00,17_7_2015 level5_250_cooling 16_1 log,37.0,9.0,1311,-90,-1.5707963267948966,L,L,1,0
43,0,2062.186,0,8,-90,250,501,9.0,8,2063.053,1,736125.361632,Aud,Right,2015-06-10 08:06:00,10_6_2015 level5_250_cooling 8_6 log,37.0,8.0,1311,-90,-1.5707963267948966,L,L,1,0
155,0,3606.707,0,7,-60,100,551,0.0,6,3607.821,0,736175.71177,Aud,Right,2015-07-30 16:04:00,30_7_2015 level5_100_cooling 16_4 log,37.0,9.0,1311,-30,-1.0471975511965976,L,L,1,30
56,0,1528.081,0,7,-60,250,851,0.0,8,1528.79,0,736124.728778,Aud,Right,2015-06-09 17:03:00,9_6_2015 level5_250_cooling 17_3 log,37.0,8.0,1311,-90,-1.0471975511965976,L,L,1,30
116,0,3308.346,0,7,-60,250,851,0.0,8,3309.5,0,736125.376059,Aud,Right,2015-06-10 08:06:00,10_6_2015 level5_250_cooling 8_6 log,37.0,9.0,1311,-90,-1.0471975511965976,L,L,1,30
153,0,3853.102,0,7,-60,250,501,0.0,8,3853.859,0,736125.382361,Aud,Right,2015-06-10 08:06:00,10_6_2015 level5_250_cooling 8_6 log,37.0,8.0,1311,-90,-1.0471975511965976,L,L,1,30
5,0,1028.564,0,7,-60,250,501,0.0,7,1030.289,1,736160.682314,Aud,Right,2015-07-15 16:05:00,15_7_2015 level5_250_cooling 16_5 log,36.0,10.0,1311,-60,-1.0471975511965976,L,L,1,0
141,0,3460.232,0,7,-60,100,501,0.0,8,3461.216,0,736175.710074,Aud,Right,2015-07-30 16:04:00,30_7_2015 level5_100_cooling 16_4 log,37.0,9.0,1311,-90,-1.0471975511965976,L,L,1,30
86,0,1891.517,0,7,-60,250,851,0.0,8,1892.11,0,736124.732985,Aud,Right,2015-06-09 17:03:00,9_6_2015 level5_250_cooling 17_3 log,37.0,8.0,1311,-90,-1.0471975511965976,L,L,1,30
9,0,1561.02,0,7,-60,250,651,0.0,7,1562.118,1,736125.355834,Aud,Right,2015-06-10 08:06:00,10_6_2015 level5_250_cooling 8_6 log,37.0,8.0,1311,-60,-1.0471975511965976,L,L,1,0
75,0,2751.218,0,7,-60,100,1001,0.0,7,2752.809,1,736175.701875,Aud,Right,2015-07-30 16:04:00,30_7_2015 level5_100_cooling 16_4 log,37.0,9.0,1311,-60,-1.0471975511965976,L,L,1,0
65,0,2655.394,0,7,-60,100,501,0.0,7,2656.347,1,736175.700758,Aud,Right,2015-07-30 16:04:00,30_7_2015 level5_100_cooling 16_4 log,37.0,8.0,1311,-60,-1.0471975511965976,L,L,1,0
62,0,1737.472,0,7,-60,250,701,0.0,8,1738.496,0,736160.690511,Aud,Right,2015-07-15 16:05:00,15_7_2015 level5_250_cooling 16_5 log,39.0,9.0,1311,-90,-1.0471975511965976,L,L,1,30
75,0,2751.218,0,7,-60,100,1001,0.0,7,2752.809,1,736175.701875,Aud,Right,2015-07-30 16:04:00,30_7_2015 level5_100_cooling 16_4 log,37.0,9.0,1311,-60,-1.0471975511965976,L,L,1,0
153,0,3853.102,0,7,-60,250,501,0.0,8,3853.859,0,736125.382361,Aud,Right,2015-06-10 08:06:00,10_6_2015 level5_250_cooling 8_6 log,37.0,8.0,1311,-90,-1.0471975511965976,L,L,1,30
141,0,3460.232,0,7,-60,100,501,0.0,8,3461.216,0,736175.710074,Aud,Right,2015-07-30 16:04:00,30_7_2015 level5_100_cooling 16_4 log,37.0,9.0,1311,-90,-1.0471975511965976,L,L,1,30
65,0,2655.394,0,7,-60,100,501,0.0,7,2656.347,1,736175.700758,Aud,Right,2015-07-30 16:04:00,30_7_2015 level5_100_cooling 16_4 log,37.0,8.0,1311,-60,-1.0471975511965976,L,L,1,0
56,0,1528.081,0,7,-60,250,851,0.0,8,1528.79,0,736124.728778,Aud,Right,2015-06-09 17:03:00,9_6_2015 level5_250_cooling 17_3 log,37.0,8.0,1311,-90,-1.0471975511965976,L,L,1,30
69,0,1496.044,0,7,-60,100,651,0.0,7,1496.906,1,736180.677594,Aud,Right,2015-08-04 15:50:00,4_8_2015 level5_100_cooling 15_50 log,37.0,7.0,1311,-60,-1.0471975511965976,L,L,1,0
88,0,2902.823,0,7,-60,100,601,0.0,8,2903.697,0,736175.703621,Aud,Right,2015-07-30 16:04:00,30_7_2015 level5_100_cooling 16_4 log,37.0,9.0,1311,-90,-1.0471975511965976,L,L,1,30
65,0,2655.394,0,7,-60,100,501,0.0,7,2656.347,1,736175.700758,Aud,Right,2015-07-30 16:04:00,30_7_2015 level5_100_cooling 16_4 log,37.0,8.0,1311,-60,-1.0471975511965976,L,L,1,0
75,0,2751.218,0,7,-60,100,1001,0.0,7,2752.809,1,736175.701875,Aud,Right,2015-07-30 16:04:00,30_7_2015 level5_100_cooling 16_4 log,37.0,9.0,1311,-60,-1.0471975511965976,L,L,1,0
13,0,1047.985,0,7,-60,250,751,0.0,6,1049.542,0,736162.679643,Aud,Right,2015-07-17 16:01:00,17_7_2015 level5_250_cooling 16_1 log,37.0,11.0,1311,-30,-1.0471975511965976,L,L,1,30
9,0,1561.02,0,7,-60,250,651,0.0,7,1562.118,1,736125.355834,Aud,Right,2015-06-10 08:06:00,10_6_2015 level5_250_cooling 8_6 log,37.0,8.0,1311,-60,-1.0471975511965976,L,L,1,0
75,0,2751.218,0,7,-60,100,1001,0.0,7,2752.809,1,736175.701875,Aud,Right,2015-07-30 16:04:00,30_7_2015 level5_100_cooling 16_4 log,37.0,9.0,1311,-60,-1.0471975511965976,L,L,1,0
111,0,3248.798,0,7,-60,250,501,4.5,8,3249.591,0,736125.375366,Aud,Right,2015-06-10 08:06:00,10_6_2015 level5_250_cooling 8_6 log,37.0,9.0,1311,-90,-1.0471975511965976,L,L,1,30
33,0,1903.832,0,7,-60,250,851,4.5,8,1904.981,0,736125.359803,Aud,Right,2015-06-10 08:06:00,10_6_2015 level5_250_cooling 8_6 log,37.0,7.0,1311,-90,-1.0471975511965976,L,L,1,30
31,0,1223.693,0,7,-60,250,801,4.5,8,1224.376,0,736127.578654,Aud,Right,2015-06-12 13:32:00,12_6_2015 level5_250_cooling 13_32 log,37.0,9.0,1311,-90,-1.0471975511965976,L,L,1,30
31,0,1223.693,0,7,-60,250,801,4.5,8,1224.376,0,736127.578654,Aud,Right,2015-06-12 13:32:00,12_6_2015 level5_250_cooling 13_32 log,37.0,9.0,1311,-90,-1.0471975511965976,L,L,1,30
33,0,1903.832,0,7,-60,250,851,4.5,8,1904.981,0,736125.359803,Aud,Right,2015-06-10 08:06:00,10_6_2015 level5_250_cooling 8_6 log,37.0,7.0,1311,-90,-1.0471975511965976,L,L,1,30
21,0,1039.555,0,7,-60,100,501,4.5,8,1040.318,0,736180.672311,Aud,Right,2015-08-04 15:50:00,4_8_2015 level5_100_cooling 15_50 log,37.0,7.0,1311,-90,-1.0471975511965976,L,L,1,30
99,0,2091.07,0,7,-60,250,551,4.5,7,2092.17,1,736160.694605,Aud,Right,2015-07-15 16:05:00,15_7_2015 level5_250_cooling 16_5 log,36.0,9.0,1311,-60,-1.0471975511965976,L,L,1,0
124,0,3262.723,0,7,-60,100,801,4.5,8,3263.578,0,736175.707786,Aud,Right,2015-07-30 16:04:00,30_7_2015 level5_100_cooling 16_4 log,37.0,9.0,1311,-90,-1.0471975511965976,L,L,1,30
99,0,2075.016,0,7,-60,250,901,4.5,7,2076.01,1,736162.691524,Aud,Right,2015-07-17 16:01:00,17_7_2015 level5_250_cooling 16_1 log,37.0,10.0,1311,-60,-1.0471975511965976,L,L,1,0
99,0,2091.07,0,7,-60,250,551,4.5,7,2092.17,1,736160.694605,Aud,Right,2015-07-15 16:05:00,15_7_2015 level5_250_cooling 16_5 log,36.0,9.0,1311,-60,-1.0471975511965976,L,L,1,0
11,0,893.869,0,7,-60,250,501,4.5,3,898.348,0,736124.72148,Aud,Right,2015-06-09 17:03:00,9_6_2015 level5_250_cooling 17_3 log,38.0,8.0,1311,60,-1.0471975511965976,L,R,0,120
124,0,3262.723,0,7,-60,100,801,4.5,8,3263.578,0,736175.707786,Aud,Right,2015-07-30 16:04:00,30_7_2015 level5_100_cooling 16_4 log,37.0,9.0,1311,-90,-1.0471975511965976,L,L,1,30
18,0,1086.923,0,7,-60,250,701,4.5,7,1087.87,1,736127.577071,Aud,Right,2015-06-12 13:32:00,12_6_2015 level5_250_cooling 13_32 log,37.0,9.0,1311,-60,-1.0471975511965976,L,L,1,0
33,0,1903.832,0,7,-60,250,851,4.5,8,1904.981,0,736125.359803,Aud,Right,2015-06-10 08:06:00,10_6_2015 level5_250_cooling 8_6 log,37.0,7.0,1311,-90,-1.0471975511965976,L,L,1,30
59,0,1401.274,0,7,-60,100,701,4.5,7,1402.146,1,736180.676498,Aud,Right,2015-08-04 15:50:00,4_8_2015 level5_100_cooling 15_50 log,37.0,7.0,1311,-60,-1.0471975511965976,L,L,1,0
151,0,3571.014,0,7,-60,100,501,4.5,7,3571.914,1,736175.711355,Aud,Right,2015-07-30 16:04:00,30_7_2015 level5_100_cooling 16_4 log,37.0,9.0,1311,-60,-1.0471975511965976,L,L,1,0
111,0,2145.863,0,7,-60,100,651,4.5,6,2147.607,0,736180.685125,Aud,Right,2015-08-04 15:50:00,4_8_2015 level5_100_cooling 15_50 log,38.0,8.0,1311,-30,-1.0471975511965976,L,L,1,30
21,0,1039.555,0,7,-60,100,501,4.5,8,1040.318,0,736180.672311,Aud,Right,2015-08-04 15:50:00,4_8_2015 level5_100_cooling 15_50 log,37.0,7.0,1311,-90,-1.0471975511965976,L,L,1,30
125,0,2314.262,0,7,-60,250,501,4.5,7,2315.731,1,736162.694297,Aud,Right,2015-07-17 16:01:00,17_7_2015 level5_250_cooling 16_1 log,37.0,9.0,1311,-60,-1.0471975511965976,L,L,1,0
118,0,2250.404,0,7,-60,250,701,4.5,7,2251.699,1,736162.693556,Aud,Right,2015-07-17 16:01:00,17_7_2015 level5_250_cooling 16_1 log,37.0,9.0,1311,-60,-1.0471975511965976,L,L,1,0
103,0,3055.983,0,7,-60,100,551,4.5,6,3057.063,0,736175.705396,Aud,Right,2015-07-30 16:04:00,30_7_2015 level5_100_cooling 16_4 log,37.0,9.0,1311,-30,-1.0471975511965976,L,L,1,30
111,0,2145.863,0,7,-60,100,651,4.5,6,2147.607,0,736180.685125,Aud,Right,2015-08-04 15:50:00,4_8_2015 level5_100_cooling 15_50 log,38.0,8.0,1311,-30,-1.0471975511965976,L,L,1,30
103,0,3055.983,0,7,-60,100,551,4.5,6,3057.063,0,736175.705396,Aud,Right,2015-07-30 16:04:00,30_7_2015 level5_100_cooling 16_4 log,37.0,9.0,1311,-30,-1.0471975511965976,L,L,1,30
49,0,1309.774,0,7,-60,100,701,9.0,7,1310.536,1,736180.675438,Aud,Right,2015-08-04 15:50:00,4_8_2015 level5_100_cooling 15_50 log,37.0,7.0,1311,-60,-1.0471975511965976,L,L,1,0
85,0,2872.674,0,7,-60,100,851,9.0,8,2874.074,0,736175.703279,Aud,Right,2015-07-30 16:04:00,30_7_2015 level5_100_cooling 16_4 log,37.0,9.0,1311,-90,-1.0471975511965976,L,L,1,30
49,0,1309.774,0,7,-60,100,701,9.0,7,1310.536,1,736180.675438,Aud,Right,2015-08-04 15:50:00,4_8_2015 level5_100_cooling 15_50 log,37.0,7.0,1311,-60,-1.0471975511965976,L,L,1,0
75,0,1554.585,0,7,-60,100,601,9.0,6,1555.47,0,736180.678273,Aud,Right,2015-08-04 15:50:00,4_8_2015 level5_100_cooling 15_50 log,37.0,7.0,1311,-30,-1.0471975511965976,L,L,1,30
31,0,2259.427,0,7,-60,100,501,9.0,7,2260.495,1,736175.696177,Aud,Right,2015-07-30 16:04:00,30_7_2015 level5_100_cooling 16_4 log,37.0,9.0,1311,-60,-1.0471975511965976,L,L,1,0
24,0,1072.283,0,7,-60,100,701,9.0,6,1073.502,0,736180.672695,Aud,Right,2015-08-04 15:50:00,4_8_2015 level5_100_cooling 15_50 log,37.0,7.0,1311,-30,-1.0471975511965976,L,L,1,30
92,0,2024.049,0,7,-60,250,751,9.0,7,2024.951,1,736160.693826,Aud,Right,2015-07-15 16:05:00,15_7_2015 level5_250_cooling 16_5 log,37.0,9.0,1311,-60,-1.0471975511965976,L,L,1,0
49,0,1309.774,0,7,-60,100,701,9.0,7,1310.536,1,736180.675438,Aud,Right,2015-08-04 15:50:00,4_8_2015 level5_100_cooling 15_50 log,37.0,7.0,1311,-60,-1.0471975511965976,L,L,1,0
15,0,1638.052,0,7,-60,250,801,9.0,6,1639.0,0,736125.356725,Aud,Right,2015-06-10 08:06:00,10_6_2015 level5_250_cooling 8_6 log,37.0,8.0,1311,-30,-1.0471975511965976,L,L,1,30
90,0,1705.825,0,7,-60,100,601,9.0,7,1706.602,1,736180.680023,Aud,Right,2015-08-04 15:50:00,4_8_2015 level5_100_cooling 15_50 log,38.0,7.0,1311,-60,-1.0471975511965976,L,L,1,0
51,0,2521.932,0,7,-60,250,751,9.0,2,2524.643,0,736125.366975,Aud,Right,2015-06-10 08:06:00,10_6_2015 level5_250_cooling 8_6 log,37.0,10.0,1311,90,-1.0471975511965976,L,R,0,150
26,0,2171.867,0,7,-60,100,501,9.0,8,2175.765,0,736175.695196,Aud,Right,2015-07-30 16:04:00,30_7_2015 level5_100_cooling 16_4 log,37.0,9.0,1311,-90,-1.0471975511965976,L,L,1,30
76,0,2762.387,0,7,-60,100,551,9.0,8,2763.167,0,736175.701995,Aud,Right,2015-07-30 16:04:00,30_7_2015 level5_100_cooling 16_4 log,37.0,9.0,1311,-90,-1.0471975511965976,L,L,1,30
41,0,1352.698,0,7,-60,250,901,9.0,7,1353.677,1,736124.726751,Aud,Right,2015-06-09 17:03:00,9_6_2015 level5_250_cooling 17_3 log,37.0,8.0,1311,-60,-1.0471975511965976,L,L,1,0
100,0,3142.271,0,7,-60,250,701,9.0,6,3143.373,0,736125.374137,Aud,Right,2015-06-10 08:06:00,10_6_2015 level5_250_cooling 8_6 log,37.0,8.0,1311,-30,-1.0471975511965976,L,L,1,30
104,0,2114.771,0,7,-60,250,901,9.0,6,2115.963,0,736162.691986,Aud,Right,2015-07-17 16:01:00,17_7_2015 level5_250_cooling 16_1 log,37.0,10.0,1311,-30,-1.0471975511965976,L,L,1,30
51,0,2521.932,0,7,-60,250,751,9.0,2,2524.643,0,736125.366975,Aud,Right,2015-06-10 08:06:00,10_6_2015 level5_250_cooling 8_6 log,37.0,10.0,1311,90,-1.0471975511965976,L,R,0,150
75,0,1554.585,0,7,-60,100,601,9.0,6,1555.47,0,736180.678273,Aud,Right,2015-08-04 15:50:00,4_8_2015 level5_100_cooling 15_50 log,37.0,7.0,1311,-30,-1.0471975511965976,L,L,1,30
15,0,1638.052,0,7,-60,250,801,9.0,6,1639.0,0,736125.356725,Aud,Right,2015-06-10 08:06:00,10_6_2015 level5_250_cooling 8_6 log,37.0,8.0,1311,-30,-1.0471975511965976,L,L,1,30
24,0,1072.283,0,7,-60,100,701,9.0,6,1073.502,0,736180.672695,Aud,Right,2015-08-04 15:50:00,4_8_2015 level5_100_cooling 15_50 log,37.0,7.0,1311,-30,-1.0471975511965976,L,L,1,30
92,0,2024.049,0,7,-60,250,751,9.0,7,2024.951,1,736160.693826,Aud,Right,2015-07-15 16:05:00,15_7_2015 level5_250_cooling 16_5 log,37.0,9.0,1311,-60,-1.0471975511965976,L,L,1,0
12,0,939.357,0,7,-60,100,701,9.0,6,940.378,0,736180.671153,Aud,Right,2015-08-04 15:50:00,4_8_2015 level5_100_cooling 15_50 log,37.0,8.0,1311,-30,-1.0471975511965976,L,L,1,30
16,0,1186.976,0,7,-60,250,701,9.0,2,1188.369,0,736160.684144,Aud,Right,2015-07-15 16:05:00,15_7_2015 level5_250_cooling 16_5 log,37.0,9.0,1311,90,-1.0471975511965976,L,R,0,150
133,0,3370.583,0,6,-30,100,701,0.0,7,3371.542,0,736175.709035,Aud,Right,2015-07-30 16:04:00,30_7_2015 level5_100_cooling 16_4 log,37.0,9.0,1311,-60,-0.5235987755982988,L,L,1,30
133,0,3370.583,0,6,-30,100,701,0.0,7,3371.542,0,736175.709035,Aud,Right,2015-07-30 16:04:00,30_7_2015 level5_100_cooling 16_4 log,37.0,9.0,1311,-60,-0.5235987755982988,L,L,1,30
133,0,3370.583,0,6,-30,100,701,0.0,7,3371.542,0,736175.709035,Aud,Right,2015-07-30 16:04:00,30_7_2015 level5_100_cooling 16_4 log,37.0,9.0,1311,-60,-0.5235987755982988,L,L,1,30
60,0,1411.771,0,6,-30,100,1001,0.0,7,1412.37,0,736180.676619,Aud,Right,2015-08-04 15:50:00,4_8_2015 level5_100_cooling 15_50 log,37.0,7.0,1311,-60,-0.5235987755982988,L,L,1,30
133,0,3370.583,0,6,-30,100,701,0.0,7,3371.542,0,736175.709035,Aud,Right,2015-07-30 16:04:00,30_7_2015 level5_100_cooling 16_4 log,37.0,9.0,1311,-60,-0.5235987755982988,L,L,1,30
133,0,3370.583,0,6,-30,100,701,0.0,7,3371.542,0,736175.709035,Aud,Right,2015-07-30 16:04:00,30_7_2015 level5_100_cooling 16_4 log,37.0,9.0,1311,-60,-0.5235987755982988,L,L,1,30
36,0,1284.821,0,6,-30,250,801,0.0,7,1285.887,0,736124.725966,Aud,Right,2015-06-09 17:03:00,9_6_2015 level5_250_cooling 17_3 log,37.0,8.0,1311,-60,-0.5235987755982988,L,L,1,30
63,0,1612.134,1,6,-30,250,851,0.0,7,1613.163,0,736127.583151,Aud,Right,2015-06-12 13:32:00,12_6_2015 level5_250_cooling 13_32 log,37.0,9.0,1311,-60,-0.5235987755982988,L,L,1,30
50,0,1466.537,0,6,-30,250,751,0.0,6,1467.752,1,736124.728071,Aud,Right,2015-06-09 17:03:00,9_6_2015 level5_250_cooling 17_3 log,37.0,8.0,1311,-30,-0.5235987755982988,L,L,1,0
124,0,2309.306,0,6,-30,250,1001,0.0,7,2310.248,0,736124.737822,Aud,Right,2015-06-09 17:03:00,9_6_2015 level5_250_cooling 17_3 log,37.0,8.0,1311,-60,-0.5235987755982988,L,L,1,30
60,0,1411.771,0,6,-30,100,1001,0.0,7,1412.37,0,736180.676619,Aud,Right,2015-08-04 15:50:00,4_8_2015 level5_100_cooling 15_50 log,37.0,7.0,1311,-60,-0.5235987755982988,L,L,1,30
60,0,1411.771,0,6,-30,100,1001,0.0,7,1412.37,0,736180.676619,Aud,Right,2015-08-04 15:50:00,4_8_2015 level5_100_cooling 15_50 log,37.0,7.0,1311,-60,-0.5235987755982988,L,L,1,30
60,0,1411.771,0,6,-30,100,1001,0.0,7,1412.37,0,736180.676619,Aud,Right,2015-08-04 15:50:00,4_8_2015 level5_100_cooling 15_50 log,37.0,7.0,1311,-60,-0.5235987755982988,L,L,1,30
102,0,3160.745,0,6,-30,250,501,0.0,5,3161.769,0,736125.374349,Aud,Right,2015-06-10 08:06:00,10_6_2015 level5_250_cooling 8_6 log,37.0,8.0,1311,0,-0.5235987755982988,L,,0,30
133,0,3370.583,0,6,-30,100,701,0.0,7,3371.542,0,736175.709035,Aud,Right,2015-07-30 16:04:00,30_7_2015 level5_100_cooling 16_4 log,37.0,9.0,1311,-60,-0.5235987755982988,L,L,1,30
52,0,2516.056,0,6,-30,100,501,0.0,6,2517.262,1,736175.699149,Aud,Right,2015-07-30 16:04:00,30_7_2015 level5_100_cooling 16_4 log,37.0,9.0,1311,-30,-0.5235987755982988,L,L,1,0
62,0,1698.305,0,6,-30,250,951,0.0,2,1699.308,0,736162.687163,Aud,Right,2015-07-17 16:01:00,17_7_2015 level5_250_cooling 16_1 log,37.0,8.0,1311,90,-0.5235987755982988,L,R,0,120
47,0,1522.189,0,6,-30,250,651,0.0,6,1523.121,1,736160.688018,Aud,Right,2015-07-15 16:05:00,15_7_2015 level5_250_cooling 16_5 log,37.0,9.0,1311,-30,-0.5235987755982988,L,L,1,0
47,0,1522.189,0,6,-30,250,651,0.0,6,1523.121,1,736160.688018,Aud,Right,2015-07-15 16:05:00,15_7_2015 level5_250_cooling 16_5 log,37.0,9.0,1311,-30,-0.5235987755982988,L,L,1,0
50,0,1466.537,0,6,-30,250,751,0.0,6,1467.752,1,736124.728071,Aud,Right,2015-06-09 17:03:00,9_6_2015 level5_250_cooling 17_3 log,37.0,8.0,1311,-30,-0.5235987755982988,L,L,1,0
36,0,1284.821,0,6,-30,250,801,0.0,7,1285.887,0,736124.725966,Aud,Right,2015-06-09 17:03:00,9_6_2015 level5_250_cooling 17_3 log,37.0,8.0,1311,-60,-0.5235987755982988,L,L,1,30
