Trial,CorrectionTrial,StartTime,CenterReward,SpkrIdx,SpkrPos,duration,HoldTime,Atten,Response,RespTime,Correct,ComputerTime,Modality,Condition,SessionDate,originalFile,LeftTemperature,RightTemperature,fNum,ResponseAngle,Spkr_Rad,spkr_hemifield,resp_hemifield,LatCorrect,Error
112,0,2396.303,0,8,-90,100,601,0.0,8,2397.83,1,736179.693588,Aud,Bilateral,2015-08-03 15:58:00,3_8_2015 level5_100_cooling 15_58 log,8.0,7.0,1311,-90,-1.5707963267948966,L,L,1,0
136,0,2662.049,0,8,-90,100,901,0.0,8,2662.808,1,736179.696656,Aud,Bilateral,2015-08-03 15:58:00,3_8_2015 level5_100_cooling 15_58 log,9.0,8.0,1311,-90,-1.5707963267948966,L,L,1,0
2,0,1191.79,0,8,-90,250,901,0.0,8,1192.534,1,736133.712731,Aud,Bilateral,2015-06-18 16:46:00,18_6_2015 level5_250_cooling 16_46 log,10.0,9.0,1311,-90,-1.5707963267948966,L,L,1,0
2,0,1191.79,0,8,-90,250,901,0.0,8,1192.534,1,736133.712731,Aud,Bilateral,2015-06-18 16:46:00,18_6_2015 level5_250_cooling 16_46 log,10.0,9.0,1311,-90,-1.5707963267948966,L,L,1,0
79,0,2013.449,0,8,-90,100,601,0.0,8,2014.288,1,736179.689149,Aud,Bilateral,2015-08-03 15:58:00,3_8_2015 level5_100_cooling 15_58 log,8.0,8.0,1311,-90,-1.5707963267948966,L,L,1,0
128,0,2419.419,0,8,-90,250,801,0.0,8,2420.205,1,736147.622623,Aud,Bilateral,2015-07-02 14:16:00,2_7_2015 level5_250_cooling 14_16 log,10.0,10.0,1311,-90,-1.5707963267948966,L,L,1,0
128,0,2419.419,0,8,-90,250,801,0.0,8,2420.205,1,736147.622623,Aud,Bilateral,2015-07-02 14:16:00,2_7_2015 level5_250_cooling 14_16 log,10.0,10.0,1311,-90,-1.5707963267948966,L,L,1,0
112,0,2396.303,0,8,-90,100,601,0.0,8,2397.83,1,736179.693588,Aud,Bilateral,2015-08-03 15:58:00,3_8_2015 level5_100_cooling 15_58 log,8.0,7.0,1311,-90,-1.5707963267948966,L,L,1,0
113,0,2404.366,1,8,-90,100,651,0.0,8,2405.186,1,736179.693673,Aud,Bilateral,2015-08-03 15:58:00,3_8_2015 level5_100_cooling 15_58 log,8.0,8.0,1311,-90,-1.5707963267948966,L,L,1,0
112,0,2396.303,0,8,-90,100,601,0.0,8,2397.83,1,736179.693588,Aud,Bilateral,2015-08-03 15:58:00,3_8_2015 level5_100_cooling 15_58 log,8.0,7.0,1311,-90,-1.5707963267948966,L,L,1,0
148,0,2608.885,0,8,-90,250,551,0.0,8,2610.75,1,736147.624828,Aud,Bilateral,2015-07-02 14:16:00,2_7_2015 level5_250_cooling 14_16 log,9.0,9.0,1311,-90,-1.5707963267948966,L,L,1,0
73,0,1940.287,0,8,-90,100,651,0.0,8,1941.297,1,736179.688304,Aud,Bilateral,2015-08-03 15:58:00,3_8_2015 level5_100_cooling 15_58 log,8.0,8.0,1311,-90,-1.5707963267948966,L,L,1,0
47,0,1210.833,1,8,-90,250,951,0.0,8,1212.694,1,736134.70476,Aud,Bilateral,2015-06-19 16:34:00,19_6_2015 level5_250_cooling 16_34 log,8.0,8.0,1311,-90,-1.5707963267948966,L,L,1,0
73,0,1940.287,0,8,-90,100,651,0.0,8,1941.297,1,736179.688304,Aud,Bilateral,2015-08-03 15:58:00,3_8_2015 level5_100_cooling 15_58 log,8.0,8.0,1311,-90,-1.5707963267948966,L,L,1,0
73,0,1940.287,0,8,-90,100,651,0.0,8,1941.297,1,736179.688304,Aud,Bilateral,2015-08-03 15:58:00,3_8_2015 level5_100_cooling 15_58 log,8.0,8.0,1311,-90,-1.5707963267948966,L,L,1,0
91,0,2160.959,0,8,-90,100,901,0.0,8,2161.856,1,736179.690857,Aud,Bilateral,2015-08-03 15:58:00,3_8_2015 level5_100_cooling 15_58 log,8.0,8.0,1311,-90,-1.5707963267948966,L,L,1,0
91,0,2160.959,0,8,-90,100,901,0.0,8,2161.856,1,736179.690857,Aud,Bilateral,2015-08-03 15:58:00,3_8_2015 level5_100_cooling 15_58 log,8.0,8.0,1311,-90,-1.5707963267948966,L,L,1,0
14,0,3449.177,0,8,-90,250,501,0.0,8,3450.907,1,736146.685568,Aud,Bilateral,2015-07-01 15:29:00,1_7_2015 level5_250_cooling 15_29 log,10.0,9.0,1311,-90,-1.5707963267948966,L,L,1,0
113,0,2404.366,1,8,-90,100,651,0.0,8,2405.186,1,736179.693673,Aud,Bilateral,2015-08-03 15:58:00,3_8_2015 level5_100_cooling 15_58 log,8.0,8.0,1311,-90,-1.5707963267948966,L,L,1,0
79,0,2013.449,0,8,-90,100,601,0.0,8,2014.288,1,736179.689149,Aud,Bilateral,2015-08-03 15:58:00,3_8_2015 level5_100_cooling 15_58 log,8.0,8.0,1311,-90,-1.5707963267948966,L,L,1,0
51,0,1708.214,0,8,-90,100,951,0.0,8,1709.631,1,736179.685623,Aud,Bilateral,2015-08-03 15:58:00,3_8_2015 level5_100_cooling 15_58 log,8.0,8.0,1311,-90,-1.5707963267948966,L,L,1,0
51,0,1708.214,0,8,-90,100,951,0.0,8,1709.631,1,736179.685623,Aud,Bilateral,2015-08-03 15:58:00,3_8_2015 level5_100_cooling 15_58 log,8.0,8.0,1311,-90,-1.5707963267948966,L,L,1,0
14,0,3449.177,0,8,-90,250,501,0.0,8,3450.907,1,736146.685568,Aud,Bilateral,2015-07-01 15:29:00,1_7_2015 level5_250_cooling 15_29 log,10.0,9.0,1311,-90,-1.5707963267948966,L,L,1,0
91,0,2160.959,0,8,-90,100,901,0.0,8,2161.856,1,736179.690857,Aud,Bilateral,2015-08-03 15:58:00,3_8_2015 level5_100_cooling 15_58 log,8.0,8.0,1311,-90,-1.5707963267948966,L,L,1,0
136,0,2662.049,0,8,-90,100,901,0.0,8,2662.808,1,736179.696656,Aud,Bilateral,2015-08-03 15:58:00,3_8_2015 level5_100_cooling 15_58 log,9.0,8.0,1311,-90,-1.5707963267948966,L,L,1,0
47,0,1210.833,1,8,-90,250,951,0.0,8,1212.694,1,736134.70476,Aud,Bilateral,2015-06-19 16:34:00,19_6_2015 level5_250_cooling 16_34 log,8.0,8.0,1311,-90,-1.5707963267948966,L,L,1,0
79,0,2013.449,0,8,-90,100,601,0.0,8,2014.288,1,736179.689149,Aud,Bilateral,2015-08-03 15:58:00,3_8_2015 level5_100_cooling 15_58 log,8.0,8.0,1311,-90,-1.5707963267948966,L,L,1,0
51,0,1708.214,0,8,-90,100,951,0.0,8,1709.631,1,736179.685623,Aud,Bilateral,2015-08-03 15:58:00,3_8_2015 level5_100_cooling 15_58 log,8.0,8.0,1311,-90,-1.5707963267948966,L,L,1,0
79,0,2013.449,0,8,-90,100,601,0.0,8,2014.288,1,736179.689149,Aud,Bilateral,2015-08-03 15:58:00,3_8_2015 level5_100_cooling 15_58 log,8.0,8.0,1311,-90,-1.5707963267948966,L,L,1,0
42,0,1607.33,0,8,-90,100,701,0.0,8,1608.911,1,736179.684456,Aud,Bilateral,2015-08-03 15:58:00,3_8_2015 level5_100_cooling 15_58 log,9.0,8.0,1311,-90,-1.5707963267948966,L,L,1,0
113,0,2404.366,1,8,-90,100,651,0.0,8,2405.186,1,736179.693673,Aud,Bilateral,2015-08-03 15:58:00,3_8_2015 level5_100_cooling 15_58 log,8.0,8.0,1311,-90,-1.5707963267948966,L,L,1,0
148,0,2608.885,0,8,-90,250,551,0.0,8,2610.75,1,736147.624828,Aud,Bilateral,2015-07-02 14:16:00,2_7_2015 level5_250_cooling 14_16 log,9.0,9.0,1311,-90,-1.5707963267948966,L,L,1,0
113,0,2404.366,1,8,-90,100,651,0.0,8,2405.186,1,736179.693673,Aud,Bilateral,2015-08-03 15:58:00,3_8_2015 level5_100_cooling 15_58 log,8.0,8.0,1311,-90,-1.5707963267948966,L,L,1,0
42,0,1607.33,0,8,-90,100,701,0.0,8,1608.911,1,736179.684456,Aud,Bilateral,2015-08-03 15:58:00,3_8_2015 level5_100_cooling 15_58 log,9.0,8.0,1311,-90,-1.5707963267948966,L,L,1,0
128,0,2419.419,0,8,-90,250,801,0.0,8,2420.205,1,736147.622623,Aud,Bilateral,2015-07-02 14:16:00,2_7_2015 level5_250_cooling 14_16 log,10.0,10.0,1311,-90,-1.5707963267948966,L,L,1,0
47,0,1210.833,1,8,-90,250,951,0.0,8,1212.694,1,736134.70476,Aud,Bilateral,2015-06-19 16:34:00,19_6_2015 level5_250_cooling 16_34 log,8.0,8.0,1311,-90,-1.5707963267948966,L,L,1,0
73,0,1940.287,0,8,-90,100,651,0.0,8,1941.297,1,736179.688304,Aud,Bilateral,2015-08-03 15:58:00,3_8_2015 level5_100_cooling 15_58 log,8.0,8.0,1311,-90,-1.5707963267948966,L,L,1,0
148,0,2608.885,0,8,-90,250,551,0.0,8,2610.75,1,736147.624828,Aud,Bilateral,2015-07-02 14:16:00,2_7_2015 level5_250_cooling 14_16 log,9.0,9.0,1311,-90,-1.5707963267948966,L,L,1,0
73,0,1940.287,0,8,-90,100,651,0.0,8,1941.297,1,736179.688304,Aud,Bilateral,2015-08-03 15:58:00,3_8_2015 level5_100_cooling 15_58 log,8.0,8.0,1311,-90,-1.5707963267948966,L,L,1,0
113,0,2404.366,1,8,-90,100,651,0.0,8,2405.186,1,736179.693673,Aud,Bilateral,2015-08-03 15:58:00,3_8_2015 level5_100_cooling 15_58 log,8.0,8.0,1311,-90,-1.5707963267948966,L,L,1,0
47,0,1210.833,1,8,-90,250,951,0.0,8,1212.694,1,736134.70476,Aud,Bilateral,2015-06-19 16:34:00,19_6_2015 level5_250_cooling 16_34 log,8.0,8.0,1311,-90,-1.5707963267948966,L,L,1,0
7,0,1143.285,1,8,-90,100,851,0.0,8,1145.005,1,736179.679087,Aud,Bilateral,2015-08-03 15:58:00,3_8_2015 level5_100_cooling 15_58 log,9.0,10.0,1311,-90,-1.5707963267948966,L,L,1,0
2,0,1191.79,0,8,-90,250,901,0.0,8,1192.534,1,736133.712731,Aud,Bilateral,2015-06-18 16:46:00,18_6_2015 level5_250_cooling 16_46 log,10.0,9.0,1311,-90,-1.5707963267948966,L,L,1,0
91,0,2160.959,0,8,-90,100,901,0.0,8,2161.856,1,736179.690857,Aud,Bilateral,2015-08-03 15:58:00,3_8_2015 level5_100_cooling 15_58 log,8.0,8.0,1311,-90,-1.5707963267948966,L,L,1,0
54,0,3878.356,0,8,-90,250,651,4.5,8,3879.155,1,736146.690524,Aud,Bilateral,2015-07-01 15:29:00,1_7_2015 level5_250_cooling 15_29 log,9.0,9.0,1311,-90,-1.5707963267948966,L,L,1,0
79,0,1677.609,0,8,-90,250,751,4.5,8,1678.682,1,736134.710153,Aud,Bilateral,2015-06-19 16:34:00,19_6_2015 level5_250_cooling 16_34 log,9.0,8.0,1311,-90,-1.5707963267948966,L,L,1,0
7,0,954.082,0,8,-90,250,601,4.5,3,955.626,0,736147.605671,Aud,Bilateral,2015-07-02 14:16:00,2_7_2015 level5_250_cooling 14_16 log,10.0,10.0,1311,60,-1.5707963267948966,L,R,0,150
99,0,2253.717,0,8,-90,100,801,4.5,8,2254.593,1,736179.69193,Aud,Bilateral,2015-08-03 15:58:00,3_8_2015 level5_100_cooling 15_58 log,8.0,8.0,1311,-90,-1.5707963267948966,L,L,1,0
143,0,2732.05,0,8,-90,100,1001,4.5,7,2733.042,0,736179.697467,Aud,Bilateral,2015-08-03 15:58:00,3_8_2015 level5_100_cooling 15_58 log,9.0,8.0,1311,-60,-1.5707963267948966,L,L,1,30
36,0,1554.546,0,8,-90,250,701,4.5,8,1555.254,1,736133.71693,Aud,Bilateral,2015-06-18 16:46:00,18_6_2015 level5_250_cooling 16_46 log,8.0,8.0,1311,-90,-1.5707963267948966,L,L,1,0
46,0,1657.021,0,8,-90,100,601,4.5,8,1657.928,1,736179.685024,Aud,Bilateral,2015-08-03 15:58:00,3_8_2015 level5_100_cooling 15_58 log,9.0,8.0,1311,-90,-1.5707963267948966,L,L,1,0
10,0,1298.481,0,8,-90,250,801,4.5,8,1299.613,1,736133.713969,Aud,Bilateral,2015-06-18 16:46:00,18_6_2015 level5_250_cooling 16_46 log,8.0,8.0,1311,-90,-1.5707963267948966,L,L,1,0
7,0,954.082,0,8,-90,250,601,4.5,3,955.626,0,736147.605671,Aud,Bilateral,2015-07-02 14:16:00,2_7_2015 level5_250_cooling 14_16 log,10.0,10.0,1311,60,-1.5707963267948966,L,R,0,150
34,0,1454.305,0,8,-90,100,501,4.5,8,1455.198,1,736179.682678,Aud,Bilateral,2015-08-03 15:58:00,3_8_2015 level5_100_cooling 15_58 log,8.0,8.0,1311,-90,-1.5707963267948966,L,L,1,0
99,0,2253.717,0,8,-90,100,801,4.5,8,2254.593,1,736179.69193,Aud,Bilateral,2015-08-03 15:58:00,3_8_2015 level5_100_cooling 15_58 log,8.0,8.0,1311,-90,-1.5707963267948966,L,L,1,0
54,0,3878.356,0,8,-90,250,651,4.5,8,3879.155,1,736146.690524,Aud,Bilateral,2015-07-01 15:29:00,1_7_2015 level5_250_cooling 15_29 log,9.0,9.0,1311,-90,-1.5707963267948966,L,L,1,0
86,0,2096.895,0,8,-90,100,501,4.5,8,2098.603,1,736179.690125,Aud,Bilateral,2015-08-03 15:58:00,3_8_2015 level5_100_cooling 15_58 log,8.0,8.0,1311,-90,-1.5707963267948966,L,L,1,0
34,0,1454.305,0,8,-90,100,501,4.5,8,1455.198,1,736179.682678,Aud,Bilateral,2015-08-03 15:58:00,3_8_2015 level5_100_cooling 15_58 log,8.0,8.0,1311,-90,-1.5707963267948966,L,L,1,0
79,0,1677.609,0,8,-90,250,751,4.5,8,1678.682,1,736134.710153,Aud,Bilateral,2015-06-19 16:34:00,19_6_2015 level5_250_cooling 16_34 log,9.0,8.0,1311,-90,-1.5707963267948966,L,L,1,0
17,0,1260.249,0,8,-90,100,801,4.5,8,1261.03,1,736179.680431,Aud,Bilateral,2015-08-03 15:58:00,3_8_2015 level5_100_cooling 15_58 log,8.0,8.0,1311,-90,-1.5707963267948966,L,L,1,0
79,0,1677.609,0,8,-90,250,751,4.5,8,1678.682,1,736134.710153,Aud,Bilateral,2015-06-19 16:34:00,19_6_2015 level5_250_cooling 16_34 log,9.0,8.0,1311,-90,-1.5707963267948966,L,L,1,0
143,0,2732.05,0,8,-90,100,1001,4.5,7,2733.042,0,736179.697467,Aud,Bilateral,2015-08-03 15:58:00,3_8_2015 level5_100_cooling 15_58 log,9.0,8.0,1311,-60,-1.5707963267948966,L,L,1,30
86,0,2096.895,0,8,-90,100,501,4.5,8,2098.603,1,736179.690125,Aud,Bilateral,2015-08-03 15:58:00,3_8_2015 level5_100_cooling 15_58 log,8.0,8.0,1311,-90,-1.5707963267948966,L,L,1,0
73,0,1939.284,0,8,-90,250,1001,4.5,8,1940.052,1,736133.721383,Aud,Bilateral,2015-06-18 16:46:00,18_6_2015 level5_250_cooling 16_46 log,8.0,8.0,1311,-90,-1.5707963267948966,L,L,1,0
111,0,2242.354,0,8,-90,250,551,4.5,8,2243.104,1,736147.620574,Aud,Bilateral,2015-07-02 14:16:00,2_7_2015 level5_250_cooling 14_16 log,10.0,10.0,1311,-90,-1.5707963267948966,L,L,1,0
86,0,2096.895,0,8,-90,100,501,4.5,8,2098.603,1,736179.690125,Aud,Bilateral,2015-08-03 15:58:00,3_8_2015 level5_100_cooling 15_58 log,8.0,8.0,1311,-90,-1.5707963267948966,L,L,1,0
46,0,1657.021,0,8,-90,100,601,4.5,8,1657.928,1,736179.685024,Aud,Bilateral,2015-08-03 15:58:00,3_8_2015 level5_100_cooling 15_58 log,9.0,8.0,1311,-90,-1.5707963267948966,L,L,1,0
12,0,1037.929,0,8,-90,250,651,4.5,8,1038.617,1,736147.606634,Aud,Bilateral,2015-07-02 14:16:00,2_7_2015 level5_250_cooling 14_16 log,9.0,9.0,1311,-90,-1.5707963267948966,L,L,1,0
64,0,1845.932,0,8,-90,100,751,4.5,8,1847.328,1,736179.687217,Aud,Bilateral,2015-08-03 15:58:00,3_8_2015 level5_100_cooling 15_58 log,8.0,8.0,1311,-90,-1.5707963267948966,L,L,1,0
7,0,954.082,0,8,-90,250,601,4.5,3,955.626,0,736147.605671,Aud,Bilateral,2015-07-02 14:16:00,2_7_2015 level5_250_cooling 14_16 log,10.0,10.0,1311,60,-1.5707963267948966,L,R,0,150
73,0,1939.284,0,8,-90,250,1001,4.5,8,1940.052,1,736133.721383,Aud,Bilateral,2015-06-18 16:46:00,18_6_2015 level5_250_cooling 16_46 log,8.0,8.0,1311,-90,-1.5707963267948966,L,L,1,0
64,0,1845.932,0,8,-90,100,751,4.5,8,1847.328,1,736179.687217,Aud,Bilateral,2015-08-03 15:58:00,3_8_2015 level5_100_cooling 15_58 log,8.0,8.0,1311,-90,-1.5707963267948966,L,L,1,0
7,0,954.082,0,8,-90,250,601,4.5,3,955.626,0,736147.605671,Aud,Bilateral,2015-07-02 14:16:00,2_7_2015 level5_250_cooling 14_16 log,10.0,10.0,1311,60,-1.5707963267948966,L,R,0,150
73,0,1939.284,0,8,-90,250,1001,4.5,8,1940.052,1,736133.721383,Aud,Bilateral,2015-06-18 16:46:00,18_6_2015 level5_250_cooling 16_46 log,8.0,8.0,1311,-90,-1.5707963267948966,L,L,1,0
46,0,1657.021,0,8,-90,100,601,4.5,8,1657.928,1,736179.685024,Aud,Bilateral,2015-08-03 15:58:00,3_8_2015 level5_100_cooling 15_58 log,9.0,8.0,1311,-90,-1.5707963267948966,L,L,1,0
36,0,1554.546,0,8,-90,250,701,4.5,8,1555.254,1,736133.71693,Aud,Bilateral,2015-06-18 16:46:00,18_6_2015 level5_250_cooling 16_46 log,8.0,8.0,1311,-90,-1.5707963267948966,L,L,1,0
12,0,1037.929,0,8,-90,250,651,4.5,8,1038.617,1,736147.606634,Aud,Bilateral,2015-07-02 14:16:00,2_7_2015 level5_250_cooling 14_16 log,9.0,9.0,1311,-90,-1.5707963267948966,L,L,1,0
10,0,1298.481,0,8,-90,250,801,4.5,8,1299.613,1,736133.713969,Aud,Bilateral,2015-06-18 16:46:00,18_6_2015 level5_250_cooling 16_46 log,8.0,8.0,1311,-90,-1.5707963267948966,L,L,1,0
10,0,1298.481,0,8,-90,250,801,4.5,8,1299.613,1,736133.713969,Aud,Bilateral,2015-06-18 16:46:00,18_6_2015 level5_250_cooling 16_46 log,8.0,8.0,1311,-90,-1.5707963267948966,L,L,1,0
58,0,1780.907,0,8,-90,100,651,4.5,8,1781.812,1,736179.686458,Aud,Bilateral,2015-08-03 15:58:00,3_8_2015 level5_100_cooling 15_58 log,7.0,8.0,1311,-90,-1.5707963267948966,L,L,1,0
111,0,2242.354,0,8,-90,250,551,4.5,8,2243.104,1,736147.620574,Aud,Bilateral,2015-07-02 14:16:00,2_7_2015 level5_250_cooling 14_16 log,10.0,10.0,1311,-90,-1.5707963267948966,L,L,1,0
143,0,2732.05,0,8,-90,100,1001,4.5,7,2733.042,0,736179.697467,Aud,Bilateral,2015-08-03 15:58:00,3_8_2015 level5_100_cooling 15_58 log,9.0,8.0,1311,-60,-1.5707963267948966,L,L,1,30
64,0,1845.932,0,8,-90,100,751,4.5,8,1847.328,1,736179.687217,Aud,Bilateral,2015-08-03 15:58:00,3_8_2015 level5_100_cooling 15_58 log,8.0,8.0,1311,-90,-1.5707963267948966,L,L,1,0
111,0,2242.354,0,8,-90,250,551,4.5,8,2243.104,1,736147.620574,Aud,Bilateral,2015-07-02 14:16:00,2_7_2015 level5_250_cooling 14_16 log,10.0,10.0,1311,-90,-1.5707963267948966,L,L,1,0
12,0,1037.929,0,8,-90,250,651,4.5,8,1038.617,1,736147.606634,Aud,Bilateral,2015-07-02 14:16:00,2_7_2015 level5_250_cooling 14_16 log,9.0,9.0,1311,-90,-1.5707963267948966,L,L,1,0
111,0,2242.354,0,8,-90,250,551,4.5,8,2243.104,1,736147.620574,Aud,Bilateral,2015-07-02 14:16:00,2_7_2015 level5_250_cooling 14_16 log,10.0,10.0,1311,-90,-1.5707963267948966,L,L,1,0
73,0,1939.284,0,8,-90,250,1001,4.5,8,1940.052,1,736133.721383,Aud,Bilateral,2015-06-18 16:46:00,18_6_2015 level5_250_cooling 16_46 log,8.0,8.0,1311,-90,-1.5707963267948966,L,L,1,0
91,0,1783.534,0,8,-90,250,501,4.5,8,1784.426,1,736134.711377,Aud,Bilateral,2015-06-19 16:34:00,19_6_2015 level5_250_cooling 16_34 log,8.0,8.0,1311,-90,-1.5707963267948966,L,L,1,0
101,0,4335.102,0,8,-90,250,851,9.0,8,4335.939,1,736146.695812,Aud,Bilateral,2015-07-01 15:29:00,1_7_2015 level5_250_cooling 15_29 log,9.0,9.0,1311,-90,-1.5707963267948966,L,L,1,0
64,0,1534.228,0,8,-90,250,801,9.0,8,1535.009,1,736134.708491,Aud,Bilateral,2015-06-19 16:34:00,19_6_2015 level5_250_cooling 16_34 log,9.0,9.0,1311,-90,-1.5707963267948966,L,L,1,0
104,0,2176.347,0,8,-90,250,551,9.0,8,2177.05,1,736147.619809,Aud,Bilateral,2015-07-02 14:16:00,2_7_2015 level5_250_cooling 14_16 log,9.0,9.0,1311,-90,-1.5707963267948966,L,L,1,0
62,0,1833.658,0,8,-90,250,551,9.0,8,1834.609,1,736133.720161,Aud,Bilateral,2015-06-18 16:46:00,18_6_2015 level5_250_cooling 16_46 log,8.0,9.0,1311,-90,-1.5707963267948966,L,L,1,0
64,0,1534.228,0,8,-90,250,801,9.0,8,1535.009,1,736134.708491,Aud,Bilateral,2015-06-19 16:34:00,19_6_2015 level5_250_cooling 16_34 log,9.0,9.0,1311,-90,-1.5707963267948966,L,L,1,0
101,0,4335.102,0,8,-90,250,851,9.0,8,4335.939,1,736146.695812,Aud,Bilateral,2015-07-01 15:29:00,1_7_2015 level5_250_cooling 15_29 log,9.0,9.0,1311,-90,-1.5707963267948966,L,L,1,0
23,0,3559.217,0,8,-90,250,601,9.0,8,3560.718,1,736146.686839,Aud,Bilateral,2015-07-01 15:29:00,1_7_2015 level5_250_cooling 15_29 log,10.0,9.0,1311,-90,-1.5707963267948966,L,L,1,0
131,0,2606.583,0,8,-90,100,651,9.0,8,2607.577,1,736179.696015,Aud,Bilateral,2015-08-03 15:58:00,3_8_2015 level5_100_cooling 15_58 log,9.0,8.0,1311,-90,-1.5707963267948966,L,L,1,0
15,0,1238.77,0,8,-90,100,551,9.0,8,1239.644,1,736179.680183,Aud,Bilateral,2015-08-03 15:58:00,3_8_2015 level5_100_cooling 15_58 log,8.0,8.0,1311,-90,-1.5707963267948966,L,L,1,0
15,0,1238.77,0,8,-90,100,551,9.0,8,1239.644,1,736179.680183,Aud,Bilateral,2015-08-03 15:58:00,3_8_2015 level5_100_cooling 15_58 log,8.0,8.0,1311,-90,-1.5707963267948966,L,L,1,0
62,0,1833.658,0,8,-90,250,551,9.0,8,1834.609,1,736133.720161,Aud,Bilateral,2015-06-18 16:46:00,18_6_2015 level5_250_cooling 16_46 log,8.0,9.0,1311,-90,-1.5707963267948966,L,L,1,0
6,0,755.631,0,8,-90,250,751,9.0,8,756.478,1,736134.69948,Aud,Bilateral,2015-06-19 16:34:00,19_6_2015 level5_250_cooling 16_34 log,8.0,8.0,1311,-90,-1.5707963267948966,L,L,1,0
101,0,4335.102,0,8,-90,250,851,9.0,8,4335.939,1,736146.695812,Aud,Bilateral,2015-07-01 15:29:00,1_7_2015 level5_250_cooling 15_29 log,9.0,9.0,1311,-90,-1.5707963267948966,L,L,1,0
15,0,1238.77,0,8,-90,100,551,9.0,8,1239.644,1,736179.680183,Aud,Bilateral,2015-08-03 15:58:00,3_8_2015 level5_100_cooling 15_58 log,8.0,8.0,1311,-90,-1.5707963267948966,L,L,1,0
62,0,1833.658,0,8,-90,250,551,9.0,8,1834.609,1,736133.720161,Aud,Bilateral,2015-06-18 16:46:00,18_6_2015 level5_250_cooling 16_46 log,8.0,9.0,1311,-90,-1.5707963267948966,L,L,1,0
62,0,1833.658,0,8,-90,250,551,9.0,8,1834.609,1,736133.720161,Aud,Bilateral,2015-06-18 16:46:00,18_6_2015 level5_250_cooling 16_46 log,8.0,9.0,1311,-90,-1.5707963267948966,L,L,1,0
104,0,2176.347,0,8,-90,250,551,9.0,8,2177.05,1,736147.619809,Aud,Bilateral,2015-07-02 14:16:00,2_7_2015 level5_250_cooling 14_16 log,9.0,9.0,1311,-90,-1.5707963267948966,L,L,1,0
101,0,4335.102,0,8,-90,250,851,9.0,8,4335.939,1,736146.695812,Aud,Bilateral,2015-07-01 15:29:00,1_7_2015 level5_250_cooling 15_29 log,9.0,9.0,1311,-90,-1.5707963267948966,L,L,1,0
64,0,1534.228,0,8,-90,250,801,9.0,8,1535.009,1,736134.708491,Aud,Bilateral,2015-06-19 16:34:00,19_6_2015 level5_250_cooling 16_34 log,9.0,9.0,1311,-90,-1.5707963267948966,L,L,1,0
23,0,3559.217,0,8,-90,250,601,9.0,8,3560.718,1,736146.686839,Aud,Bilateral,2015-07-01 15:29:00,1_7_2015 level5_250_cooling 15_29 log,10.0,9.0,1311,-90,-1.5707963267948966,L,L,1,0
64,0,1534.228,0,8,-90,250,801,9.0,8,1535.009,1,736134.708491,Aud,Bilateral,2015-06-19 16:34:00,19_6_2015 level5_250_cooling 16_34 log,9.0,9.0,1311,-90,-1.5707963267948966,L,L,1,0
131,0,2606.583,0,8,-90,100,651,9.0,8,2607.577,1,736179.696015,Aud,Bilateral,2015-08-03 15:58:00,3_8_2015 level5_100_cooling 15_58 log,9.0,8.0,1311,-90,-1.5707963267948966,L,L,1,0
15,0,1238.77,0,8,-90,100,551,9.0,8,1239.644,1,736179.680183,Aud,Bilateral,2015-08-03 15:58:00,3_8_2015 level5_100_cooling 15_58 log,8.0,8.0,1311,-90,-1.5707963267948966,L,L,1,0
64,0,1534.228,0,8,-90,250,801,9.0,8,1535.009,1,736134.708491,Aud,Bilateral,2015-06-19 16:34:00,19_6_2015 level5_250_cooling 16_34 log,9.0,9.0,1311,-90,-1.5707963267948966,L,L,1,0
62,0,1833.658,0,8,-90,250,551,9.0,8,1834.609,1,736133.720161,Aud,Bilateral,2015-06-18 16:46:00,18_6_2015 level5_250_cooling 16_46 log,8.0,9.0,1311,-90,-1.5707963267948966,L,L,1,0
131,0,2606.583,0,8,-90,100,651,9.0,8,2607.577,1,736179.696015,Aud,Bilateral,2015-08-03 15:58:00,3_8_2015 level5_100_cooling 15_58 log,9.0,8.0,1311,-90,-1.5707963267948966,L,L,1,0
6,0,755.631,0,8,-90,250,751,9.0,8,756.478,1,736134.69948,Aud,Bilateral,2015-06-19 16:34:00,19_6_2015 level5_250_cooling 16_34 log,8.0,8.0,1311,-90,-1.5707963267948966,L,L,1,0
15,0,1238.77,0,8,-90,100,551,9.0,8,1239.644,1,736179.680183,Aud,Bilateral,2015-08-03 15:58:00,3_8_2015 level5_100_cooling 15_58 log,8.0,8.0,1311,-90,-1.5707963267948966,L,L,1,0
62,0,1833.658,0,8,-90,250,551,9.0,8,1834.609,1,736133.720161,Aud,Bilateral,2015-06-18 16:46:00,18_6_2015 level5_250_cooling 16_46 log,8.0,9.0,1311,-90,-1.5707963267948966,L,L,1,0
64,0,1534.228,0,8,-90,250,801,9.0,8,1535.009,1,736134.708491,Aud,Bilateral,2015-06-19 16:34:00,19_6_2015 level5_250_cooling 16_34 log,9.0,9.0,1311,-90,-1.5707963267948966,L,L,1,0
6,0,755.631,0,8,-90,250,751,9.0,8,756.478,1,736134.69948,Aud,Bilateral,2015-06-19 16:34:00,19_6_2015 level5_250_cooling 16_34 log,8.0,8.0,1311,-90,-1.5707963267948966,L,L,1,0
15,0,1238.77,0,8,-90,100,551,9.0,8,1239.644,1,736179.680183,Aud,Bilateral,2015-08-03 15:58:00,3_8_2015 level5_100_cooling 15_58 log,8.0,8.0,1311,-90,-1.5707963267948966,L,L,1,0
62,0,1833.658,0,8,-90,250,551,9.0,8,1834.609,1,736133.720161,Aud,Bilateral,2015-06-18 16:46:00,18_6_2015 level5_250_cooling 16_46 log,8.0,9.0,1311,-90,-1.5707963267948966,L,L,1,0
101,0,4335.102,0,8,-90,250,851,9.0,8,4335.939,1,736146.695812,Aud,Bilateral,2015-07-01 15:29:00,1_7_2015 level5_250_cooling 15_29 log,9.0,9.0,1311,-90,-1.5707963267948966,L,L,1,0
62,0,1833.658,0,8,-90,250,551,9.0,8,1834.609,1,736133.720161,Aud,Bilateral,2015-06-18 16:46:00,18_6_2015 level5_250_cooling 16_46 log,8.0,9.0,1311,-90,-1.5707963267948966,L,L,1,0
6,0,755.631,0,8,-90,250,751,9.0,8,756.478,1,736134.69948,Aud,Bilateral,2015-06-19 16:34:00,19_6_2015 level5_250_cooling 16_34 log,8.0,8.0,1311,-90,-1.5707963267948966,L,L,1,0
62,0,1833.658,0,8,-90,250,551,9.0,8,1834.609,1,736133.720161,Aud,Bilateral,2015-06-18 16:46:00,18_6_2015 level5_250_cooling 16_46 log,8.0,9.0,1311,-90,-1.5707963267948966,L,L,1,0
62,0,1833.658,0,8,-90,250,551,9.0,8,1834.609,1,736133.720161,Aud,Bilateral,2015-06-18 16:46:00,18_6_2015 level5_250_cooling 16_46 log,8.0,9.0,1311,-90,-1.5707963267948966,L,L,1,0
62,0,1833.658,0,8,-90,250,551,9.0,8,1834.609,1,736133.720161,Aud,Bilateral,2015-06-18 16:46:00,18_6_2015 level5_250_cooling 16_46 log,8.0,9.0,1311,-90,-1.5707963267948966,L,L,1,0
101,0,4335.102,0,8,-90,250,851,9.0,8,4335.939,1,736146.695812,Aud,Bilateral,2015-07-01 15:29:00,1_7_2015 level5_250_cooling 15_29 log,9.0,9.0,1311,-90,-1.5707963267948966,L,L,1,0
15,0,1238.77,0,8,-90,100,551,9.0,8,1239.644,1,736179.680183,Aud,Bilateral,2015-08-03 15:58:00,3_8_2015 level5_100_cooling 15_58 log,8.0,8.0,1311,-90,-1.5707963267948966,L,L,1,0
62,0,1833.658,0,8,-90,250,551,9.0,8,1834.609,1,736133.720161,Aud,Bilateral,2015-06-18 16:46:00,18_6_2015 level5_250_cooling 16_46 log,8.0,9.0,1311,-90,-1.5707963267948966,L,L,1,0
62,0,1833.658,0,8,-90,250,551,9.0,8,1834.609,1,736133.720161,Aud,Bilateral,2015-06-18 16:46:00,18_6_2015 level5_250_cooling 16_46 log,8.0,9.0,1311,-90,-1.5707963267948966,L,L,1,0
101,0,4335.102,0,8,-90,250,851,9.0,8,4335.939,1,736146.695812,Aud,Bilateral,2015-07-01 15:29:00,1_7_2015 level5_250_cooling 15_29 log,9.0,9.0,1311,-90,-1.5707963267948966,L,L,1,0
68,0,1885.189,0,7,-60,100,851,0.0,8,1886.73,0,736179.687673,Aud,Bilateral,2015-08-03 15:58:00,3_8_2015 level5_100_cooling 15_58 log,8.0,8.0,1311,-90,-1.0471975511965976,L,L,1,30
129,0,2587.982,0,7,-60,100,851,0.0,6,2588.763,0,736179.695798,Aud,Bilateral,2015-08-03 15:58:00,3_8_2015 level5_100_cooling 15_58 log,9.0,8.0,1311,-30,-1.0471975511965976,L,L,1,30
44,0,3779.111,0,7,-60,250,701,0.0,8,3779.771,0,736146.689377,Aud,Bilateral,2015-07-01 15:29:00,1_7_2015 level5_250_cooling 15_29 log,9.0,9.0,1311,-90,-1.0471975511965976,L,L,1,30
41,0,1156.272,0,7,-60,250,551,0.0,8,1156.954,0,736134.704117,Aud,Bilateral,2015-06-19 16:34:00,19_6_2015 level5_250_cooling 16_34 log,8.0,8.0,1311,-90,-1.0471975511965976,L,L,1,30
129,0,2587.982,0,7,-60,100,851,0.0,6,2588.763,0,736179.695798,Aud,Bilateral,2015-08-03 15:58:00,3_8_2015 level5_100_cooling 15_58 log,9.0,8.0,1311,-30,-1.0471975511965976,L,L,1,30
129,0,2587.982,0,7,-60,100,851,0.0,6,2588.763,0,736179.695798,Aud,Bilateral,2015-08-03 15:58:00,3_8_2015 level5_100_cooling 15_58 log,9.0,8.0,1311,-30,-1.0471975511965976,L,L,1,30
1,0,871.872,0,7,-60,250,851,0.0,8,872.65,0,736147.604713,Aud,Bilateral,2015-07-02 14:16:00,2_7_2015 level5_250_cooling 14_16 log,11.0,11.0,1311,-90,-1.0471975511965976,L,L,1,30
65,0,1551.78,0,7,-60,250,601,0.0,8,1552.596,0,736134.708695,Aud,Bilateral,2015-06-19 16:34:00,19_6_2015 level5_250_cooling 16_34 log,9.0,9.0,1311,-90,-1.0471975511965976,L,L,1,30
70,0,1909.43,0,7,-60,100,1001,0.0,8,1912.144,0,736179.687966,Aud,Bilateral,2015-08-03 15:58:00,3_8_2015 level5_100_cooling 15_58 log,8.0,8.0,1311,-90,-1.0471975511965976,L,L,1,30
43,0,1617.366,0,7,-60,100,951,0.0,8,1618.179,0,736179.684564,Aud,Bilateral,2015-08-03 15:58:00,3_8_2015 level5_100_cooling 15_58 log,9.0,8.0,1311,-90,-1.0471975511965976,L,L,1,30
44,0,3779.111,0,7,-60,250,701,0.0,8,3779.771,0,736146.689377,Aud,Bilateral,2015-07-01 15:29:00,1_7_2015 level5_250_cooling 15_29 log,9.0,9.0,1311,-90,-1.0471975511965976,L,L,1,30
43,0,1617.366,0,7,-60,100,951,0.0,8,1618.179,0,736179.684564,Aud,Bilateral,2015-08-03 15:58:00,3_8_2015 level5_100_cooling 15_58 log,9.0,8.0,1311,-90,-1.0471975511965976,L,L,1,30
78,0,1876.279,0,7,-60,250,701,0.0,8,1876.976,0,736147.616336,Aud,Bilateral,2015-07-02 14:16:00,2_7_2015 level5_250_cooling 14_16 log,10.0,9.0,1311,-90,-1.0471975511965976,L,L,1,30
105,0,2327.502,0,7,-60,100,651,0.0,7,2328.5,1,736179.692786,Aud,Bilateral,2015-08-03 15:58:00,3_8_2015 level5_100_cooling 15_58 log,8.0,8.0,1311,-60,-1.0471975511965976,L,L,1,0
121,0,2500.647,0,7,-60,100,701,0.0,8,2501.323,0,736179.694788,Aud,Bilateral,2015-08-03 15:58:00,3_8_2015 level5_100_cooling 15_58 log,8.0,8.0,1311,-90,-1.0471975511965976,L,L,1,30
74,0,1627.793,0,7,-60,250,901,0.0,8,1629.587,0,736134.709585,Aud,Bilateral,2015-06-19 16:34:00,19_6_2015 level5_250_cooling 16_34 log,9.0,9.0,1311,-90,-1.0471975511965976,L,L,1,30
1,0,871.872,0,7,-60,250,851,0.0,8,872.65,0,736147.604713,Aud,Bilateral,2015-07-02 14:16:00,2_7_2015 level5_250_cooling 14_16 log,11.0,11.0,1311,-90,-1.0471975511965976,L,L,1,30
129,0,2587.982,0,7,-60,100,851,0.0,6,2588.763,0,736179.695798,Aud,Bilateral,2015-08-03 15:58:00,3_8_2015 level5_100_cooling 15_58 log,9.0,8.0,1311,-30,-1.0471975511965976,L,L,1,30
6,0,1249.654,0,7,-60,250,951,0.0,8,1250.335,0,736133.713401,Aud,Bilateral,2015-06-18 16:46:00,18_6_2015 level5_250_cooling 16_46 log,9.0,8.0,1311,-90,-1.0471975511965976,L,L,1,30
98,0,2245.338,0,7,-60,100,501,0.0,7,2246.836,1,736179.69184,Aud,Bilateral,2015-08-03 15:58:00,3_8_2015 level5_100_cooling 15_58 log,8.0,8.0,1311,-60,-1.0471975511965976,L,L,1,0
105,0,2327.502,0,7,-60,100,651,0.0,7,2328.5,1,736179.692786,Aud,Bilateral,2015-08-03 15:58:00,3_8_2015 level5_100_cooling 15_58 log,8.0,8.0,1311,-60,-1.0471975511965976,L,L,1,0
1,0,871.872,0,7,-60,250,851,0.0,8,872.65,0,736147.604713,Aud,Bilateral,2015-07-02 14:16:00,2_7_2015 level5_250_cooling 14_16 log,11.0,11.0,1311,-90,-1.0471975511965976,L,L,1,30
47,0,1669.966,0,7,-60,100,851,0.0,7,1671.132,1,736179.685177,Aud,Bilateral,2015-08-03 15:58:00,3_8_2015 level5_100_cooling 15_58 log,8.0,8.0,1311,-60,-1.0471975511965976,L,L,1,0
31,0,3632.022,0,7,-60,250,551,0.0,8,3632.743,0,736146.687674,Aud,Bilateral,2015-07-01 15:29:00,1_7_2015 level5_250_cooling 15_29 log,9.0,9.0,1311,-90,-1.0471975511965976,L,L,1,30
68,0,1885.189,0,7,-60,100,851,0.0,8,1886.73,0,736179.687673,Aud,Bilateral,2015-08-03 15:58:00,3_8_2015 level5_100_cooling 15_58 log,8.0,8.0,1311,-90,-1.0471975511965976,L,L,1,30
43,0,1617.366,0,7,-60,100,951,0.0,8,1618.179,0,736179.684564,Aud,Bilateral,2015-08-03 15:58:00,3_8_2015 level5_100_cooling 15_58 log,9.0,8.0,1311,-90,-1.0471975511965976,L,L,1,30
44,0,3779.111,0,7,-60,250,701,0.0,8,3779.771,0,736146.689377,Aud,Bilateral,2015-07-01 15:29:00,1_7_2015 level5_250_cooling 15_29 log,9.0,9.0,1311,-90,-1.0471975511965976,L,L,1,30
43,0,1617.366,0,7,-60,100,951,0.0,8,1618.179,0,736179.684564,Aud,Bilateral,2015-08-03 15:58:00,3_8_2015 level5_100_cooling 15_58 log,9.0,8.0,1311,-90,-1.0471975511965976,L,L,1,30
98,0,2245.338,0,7,-60,100,501,0.0,7,2246.836,1,736179.69184,Aud,Bilateral,2015-08-03 15:58:00,3_8_2015 level5_100_cooling 15_58 log,8.0,8.0,1311,-60,-1.0471975511965976,L,L,1,0
65,0,1551.78,0,7,-60,250,601,0.0,8,1552.596,0,736134.708695,Aud,Bilateral,2015-06-19 16:34:00,19_6_2015 level5_250_cooling 16_34 log,9.0,9.0,1311,-90,-1.0471975511965976,L,L,1,30
65,0,1551.78,0,7,-60,250,601,0.0,8,1552.596,0,736134.708695,Aud,Bilateral,2015-06-19 16:34:00,19_6_2015 level5_250_cooling 16_34 log,9.0,9.0,1311,-90,-1.0471975511965976,L,L,1,30
66,0,1870.556,0,7,-60,250,851,0.0,8,1871.338,0,736133.720588,Aud,Bilateral,2015-06-18 16:46:00,18_6_2015 level5_250_cooling 16_46 log,8.0,8.0,1311,-90,-1.0471975511965976,L,L,1,30
3,0,1080.328,0,7,-60,100,701,0.0,8,1081.674,0,736179.678354,Aud,Bilateral,2015-08-03 15:58:00,3_8_2015 level5_100_cooling 15_58 log,11.0,11.0,1311,-90,-1.0471975511965976,L,L,1,30
68,0,1885.189,0,7,-60,100,851,0.0,8,1886.73,0,736179.687673,Aud,Bilateral,2015-08-03 15:58:00,3_8_2015 level5_100_cooling 15_58 log,8.0,8.0,1311,-90,-1.0471975511965976,L,L,1,30
78,0,1876.279,0,7,-60,250,701,0.0,8,1876.976,0,736147.616336,Aud,Bilateral,2015-07-02 14:16:00,2_7_2015 level5_250_cooling 14_16 log,10.0,9.0,1311,-90,-1.0471975511965976,L,L,1,30
1,0,871.872,0,7,-60,250,851,0.0,8,872.65,0,736147.604713,Aud,Bilateral,2015-07-02 14:16:00,2_7_2015 level5_250_cooling 14_16 log,11.0,11.0,1311,-90,-1.0471975511965976,L,L,1,30
3,0,1080.328,0,7,-60,100,701,0.0,8,1081.674,0,736179.678354,Aud,Bilateral,2015-08-03 15:58:00,3_8_2015 level5_100_cooling 15_58 log,11.0,11.0,1311,-90,-1.0471975511965976,L,L,1,30
108,0,2356.291,0,7,-60,100,801,0.0,7,2357.149,1,736179.693117,Aud,Bilateral,2015-08-03 15:58:00,3_8_2015 level5_100_cooling 15_58 log,8.0,8.0,1311,-60,-1.0471975511965976,L,L,1,0
6,0,1249.654,0,7,-60,250,951,0.0,8,1250.335,0,736133.713401,Aud,Bilateral,2015-06-18 16:46:00,18_6_2015 level5_250_cooling 16_46 log,9.0,8.0,1311,-90,-1.0471975511965976,L,L,1,30
1,0,871.872,0,7,-60,250,851,0.0,8,872.65,0,736147.604713,Aud,Bilateral,2015-07-02 14:16:00,2_7_2015 level5_250_cooling 14_16 log,11.0,11.0,1311,-90,-1.0471975511965976,L,L,1,30
65,0,1551.78,0,7,-60,250,601,0.0,8,1552.596,0,736134.708695,Aud,Bilateral,2015-06-19 16:34:00,19_6_2015 level5_250_cooling 16_34 log,9.0,9.0,1311,-90,-1.0471975511965976,L,L,1,30
6,0,1249.654,0,7,-60,250,951,0.0,8,1250.335,0,736133.713401,Aud,Bilateral,2015-06-18 16:46:00,18_6_2015 level5_250_cooling 16_46 log,9.0,8.0,1311,-90,-1.0471975511965976,L,L,1,30
6,0,1249.654,0,7,-60,250,951,0.0,8,1250.335,0,736133.713401,Aud,Bilateral,2015-06-18 16:46:00,18_6_2015 level5_250_cooling 16_46 log,9.0,8.0,1311,-90,-1.0471975511965976,L,L,1,30
41,0,1156.272,0,7,-60,250,551,0.0,8,1156.954,0,736134.704117,Aud,Bilateral,2015-06-19 16:34:00,19_6_2015 level5_250_cooling 16_34 log,8.0,8.0,1311,-90,-1.0471975511965976,L,L,1,30
41,0,1598.873,0,7,-60,100,751,4.5,8,1599.872,0,736179.684352,Aud,Bilateral,2015-08-03 15:58:00,3_8_2015 level5_100_cooling 15_58 log,8.0,8.0,1311,-90,-1.0471975511965976,L,L,1,30
116,0,2444.881,0,7,-60,100,701,4.5,8,2445.643,0,736179.694142,Aud,Bilateral,2015-08-03 15:58:00,3_8_2015 level5_100_cooling 15_58 log,8.0,8.0,1311,-90,-1.0471975511965976,L,L,1,30
53,0,1499.184,0,7,-60,250,651,4.5,7,1500.397,1,736147.611977,Aud,Bilateral,2015-07-02 14:16:00,2_7_2015 level5_250_cooling 14_16 log,9.0,9.0,1311,-60,-1.0471975511965976,L,L,1,0
5,0,3341.139,0,7,-60,250,701,4.5,8,3341.885,0,736146.684307,Aud,Bilateral,2015-07-01 15:29:00,1_7_2015 level5_250_cooling 15_29 log,11.0,10.0,1311,-90,-1.0471975511965976,L,L,1,30
116,0,2444.881,0,7,-60,100,701,4.5,8,2445.643,0,736179.694142,Aud,Bilateral,2015-08-03 15:58:00,3_8_2015 level5_100_cooling 15_58 log,8.0,8.0,1311,-90,-1.0471975511965976,L,L,1,30
37,0,1310.722,0,7,-60,250,951,4.5,8,1311.331,0,736147.609791,Aud,Bilateral,2015-07-02 14:16:00,2_7_2015 level5_250_cooling 14_16 log,9.0,9.0,1311,-90,-1.0471975511965976,L,L,1,30
116,0,2444.881,0,7,-60,100,701,4.5,8,2445.643,0,736179.694142,Aud,Bilateral,2015-08-03 15:58:00,3_8_2015 level5_100_cooling 15_58 log,8.0,8.0,1311,-90,-1.0471975511965976,L,L,1,30
86,0,4200.615,0,7,-60,250,951,4.5,7,4201.454,1,736146.694255,Aud,Bilateral,2015-07-01 15:29:00,1_7_2015 level5_250_cooling 15_29 log,9.0,8.0,1311,-60,-1.0471975511965976,L,L,1,0
5,0,3341.139,0,7,-60,250,701,4.5,8,3341.885,0,736146.684307,Aud,Bilateral,2015-07-01 15:29:00,1_7_2015 level5_250_cooling 15_29 log,11.0,10.0,1311,-90,-1.0471975511965976,L,L,1,30
116,0,2444.881,0,7,-60,100,701,4.5,8,2445.643,0,736179.694142,Aud,Bilateral,2015-08-03 15:58:00,3_8_2015 level5_100_cooling 15_58 log,8.0,8.0,1311,-90,-1.0471975511965976,L,L,1,30
37,0,1310.722,0,7,-60,250,951,4.5,8,1311.331,0,736147.609791,Aud,Bilateral,2015-07-02 14:16:00,2_7_2015 level5_250_cooling 14_16 log,9.0,9.0,1311,-90,-1.0471975511965976,L,L,1,30
24,0,1341.305,0,7,-60,100,851,4.5,7,1342.165,1,736179.681369,Aud,Bilateral,2015-08-03 15:58:00,3_8_2015 level5_100_cooling 15_58 log,8.0,8.0,1311,-60,-1.0471975511965976,L,L,1,0
86,0,4200.615,0,7,-60,250,951,4.5,7,4201.454,1,736146.694255,Aud,Bilateral,2015-07-01 15:29:00,1_7_2015 level5_250_cooling 15_29 log,9.0,8.0,1311,-60,-1.0471975511965976,L,L,1,0
24,0,1341.305,0,7,-60,100,851,4.5,7,1342.165,1,736179.681369,Aud,Bilateral,2015-08-03 15:58:00,3_8_2015 level5_100_cooling 15_58 log,8.0,8.0,1311,-60,-1.0471975511965976,L,L,1,0
37,0,1310.722,0,7,-60,250,951,4.5,8,1311.331,0,736147.609791,Aud,Bilateral,2015-07-02 14:16:00,2_7_2015 level5_250_cooling 14_16 log,9.0,9.0,1311,-90,-1.0471975511965976,L,L,1,30
86,0,4200.615,0,7,-60,250,951,4.5,7,4201.454,1,736146.694255,Aud,Bilateral,2015-07-01 15:29:00,1_7_2015 level5_250_cooling 15_29 log,9.0,8.0,1311,-60,-1.0471975511965976,L,L,1,0
116,0,2444.881,0,7,-60,100,701,4.5,8,2445.643,0,736179.694142,Aud,Bilateral,2015-08-03 15:58:00,3_8_2015 level5_100_cooling 15_58 log,8.0,8.0,1311,-90,-1.0471975511965976,L,L,1,30
116,0,2444.881,0,7,-60,100,701,4.5,8,2445.643,0,736179.694142,Aud,Bilateral,2015-08-03 15:58:00,3_8_2015 level5_100_cooling 15_58 log,8.0,8.0,1311,-90,-1.0471975511965976,L,L,1,30
41,0,1598.873,0,7,-60,100,751,4.5,8,1599.872,0,736179.684352,Aud,Bilateral,2015-08-03 15:58:00,3_8_2015 level5_100_cooling 15_58 log,8.0,8.0,1311,-90,-1.0471975511965976,L,L,1,30
5,0,3341.139,0,7,-60,250,701,4.5,8,3341.885,0,736146.684307,Aud,Bilateral,2015-07-01 15:29:00,1_7_2015 level5_250_cooling 15_29 log,11.0,10.0,1311,-90,-1.0471975511965976,L,L,1,30
116,0,2444.881,0,7,-60,100,701,4.5,8,2445.643,0,736179.694142,Aud,Bilateral,2015-08-03 15:58:00,3_8_2015 level5_100_cooling 15_58 log,8.0,8.0,1311,-90,-1.0471975511965976,L,L,1,30
86,0,4200.615,0,7,-60,250,951,4.5,7,4201.454,1,736146.694255,Aud,Bilateral,2015-07-01 15:29:00,1_7_2015 level5_250_cooling 15_29 log,9.0,8.0,1311,-60,-1.0471975511965976,L,L,1,0
24,0,1341.305,0,7,-60,100,851,4.5,7,1342.165,1,736179.681369,Aud,Bilateral,2015-08-03 15:58:00,3_8_2015 level5_100_cooling 15_58 log,8.0,8.0,1311,-60,-1.0471975511965976,L,L,1,0
24,0,1341.305,0,7,-60,100,851,4.5,7,1342.165,1,736179.681369,Aud,Bilateral,2015-08-03 15:58:00,3_8_2015 level5_100_cooling 15_58 log,8.0,8.0,1311,-60,-1.0471975511965976,L,L,1,0
41,0,1598.873,0,7,-60,100,751,4.5,8,1599.872,0,736179.684352,Aud,Bilateral,2015-08-03 15:58:00,3_8_2015 level5_100_cooling 15_58 log,8.0,8.0,1311,-90,-1.0471975511965976,L,L,1,30
41,0,1598.873,0,7,-60,100,751,4.5,8,1599.872,0,736179.684352,Aud,Bilateral,2015-08-03 15:58:00,3_8_2015 level5_100_cooling 15_58 log,8.0,8.0,1311,-90,-1.0471975511965976,L,L,1,30
5,0,3341.139,0,7,-60,250,701,4.5,8,3341.885,0,736146.684307,Aud,Bilateral,2015-07-01 15:29:00,1_7_2015 level5_250_cooling 15_29 log,11.0,10.0,1311,-90,-1.0471975511965976,L,L,1,30
116,0,2444.881,0,7,-60,100,701,4.5,8,2445.643,0,736179.694142,Aud,Bilateral,2015-08-03 15:58:00,3_8_2015 level5_100_cooling 15_58 log,8.0,8.0,1311,-90,-1.0471975511965976,L,L,1,30
41,0,1598.873,0,7,-60,100,751,4.5,8,1599.872,0,736179.684352,Aud,Bilateral,2015-08-03 15:58:00,3_8_2015 level5_100_cooling 15_58 log,8.0,8.0,1311,-90,-1.0471975511965976,L,L,1,30
53,0,1499.184,0,7,-60,250,651,4.5,7,1500.397,1,736147.611977,Aud,Bilateral,2015-07-02 14:16:00,2_7_2015 level5_250_cooling 14_16 log,9.0,9.0,1311,-60,-1.0471975511965976,L,L,1,0
24,0,1341.305,0,7,-60,100,851,4.5,7,1342.165,1,736179.681369,Aud,Bilateral,2015-08-03 15:58:00,3_8_2015 level5_100_cooling 15_58 log,8.0,8.0,1311,-60,-1.0471975511965976,L,L,1,0
5,0,3341.139,0,7,-60,250,701,4.5,8,3341.885,0,736146.684307,Aud,Bilateral,2015-07-01 15:29:00,1_7_2015 level5_250_cooling 15_29 log,11.0,10.0,1311,-90,-1.0471975511965976,L,L,1,30
86,0,4200.615,0,7,-60,250,951,4.5,7,4201.454,1,736146.694255,Aud,Bilateral,2015-07-01 15:29:00,1_7_2015 level5_250_cooling 15_29 log,9.0,8.0,1311,-60,-1.0471975511965976,L,L,1,0
86,0,4200.615,0,7,-60,250,951,4.5,7,4201.454,1,736146.694255,Aud,Bilateral,2015-07-01 15:29:00,1_7_2015 level5_250_cooling 15_29 log,9.0,8.0,1311,-60,-1.0471975511965976,L,L,1,0
5,0,3341.139,0,7,-60,250,701,4.5,8,3341.885,0,736146.684307,Aud,Bilateral,2015-07-01 15:29:00,1_7_2015 level5_250_cooling 15_29 log,11.0,10.0,1311,-90,-1.0471975511965976,L,L,1,30
5,0,3341.139,0,7,-60,250,701,4.5,8,3341.885,0,736146.684307,Aud,Bilateral,2015-07-01 15:29:00,1_7_2015 level5_250_cooling 15_29 log,11.0,10.0,1311,-90,-1.0471975511965976,L,L,1,30
24,0,1341.305,0,7,-60,100,851,4.5,7,1342.165,1,736179.681369,Aud,Bilateral,2015-08-03 15:58:00,3_8_2015 level5_100_cooling 15_58 log,8.0,8.0,1311,-60,-1.0471975511965976,L,L,1,0
37,0,1310.722,0,7,-60,250,951,4.5,8,1311.331,0,736147.609791,Aud,Bilateral,2015-07-02 14:16:00,2_7_2015 level5_250_cooling 14_16 log,9.0,9.0,1311,-90,-1.0471975511965976,L,L,1,30
53,0,1499.184,0,7,-60,250,651,4.5,7,1500.397,1,736147.611977,Aud,Bilateral,2015-07-02 14:16:00,2_7_2015 level5_250_cooling 14_16 log,9.0,9.0,1311,-60,-1.0471975511965976,L,L,1,0
116,0,2444.881,0,7,-60,100,701,4.5,8,2445.643,0,736179.694142,Aud,Bilateral,2015-08-03 15:58:00,3_8_2015 level5_100_cooling 15_58 log,8.0,8.0,1311,-90,-1.0471975511965976,L,L,1,30
86,0,4200.615,0,7,-60,250,951,4.5,7,4201.454,1,736146.694255,Aud,Bilateral,2015-07-01 15:29:00,1_7_2015 level5_250_cooling 15_29 log,9.0,8.0,1311,-60,-1.0471975511965976,L,L,1,0
86,0,4200.615,0,7,-60,250,951,4.5,7,4201.454,1,736146.694255,Aud,Bilateral,2015-07-01 15:29:00,1_7_2015 level5_250_cooling 15_29 log,9.0,8.0,1311,-60,-1.0471975511965976,L,L,1,0
116,0,2444.881,0,7,-60,100,701,4.5,8,2445.643,0,736179.694142,Aud,Bilateral,2015-08-03 15:58:00,3_8_2015 level5_100_cooling 15_58 log,8.0,8.0,1311,-90,-1.0471975511965976,L,L,1,30
53,0,1499.184,0,7,-60,250,651,4.5,7,1500.397,1,736147.611977,Aud,Bilateral,2015-07-02 14:16:00,2_7_2015 level5_250_cooling 14_16 log,9.0,9.0,1311,-60,-1.0471975511965976,L,L,1,0
18,0,3499.761,0,7,-60,250,901,9.0,7,3500.938,1,736146.686147,Aud,Bilateral,2015-07-01 15:29:00,1_7_2015 level5_250_cooling 15_29 log,10.0,9.0,1311,-60,-1.0471975511965976,L,L,1,0
18,0,3499.761,0,7,-60,250,901,9.0,7,3500.938,1,736146.686147,Aud,Bilateral,2015-07-01 15:29:00,1_7_2015 level5_250_cooling 15_29 log,10.0,9.0,1311,-60,-1.0471975511965976,L,L,1,0
127,0,2570.002,0,7,-60,100,501,9.0,8,2570.83,0,736179.695591,Aud,Bilateral,2015-08-03 15:58:00,3_8_2015 level5_100_cooling 15_58 log,9.0,8.0,1311,-90,-1.0471975511965976,L,L,1,30
40,0,1582.548,0,7,-60,100,851,9.0,8,1583.568,0,736179.684163,Aud,Bilateral,2015-08-03 15:58:00,3_8_2015 level5_100_cooling 15_58 log,8.0,8.0,1311,-90,-1.0471975511965976,L,L,1,30
79,0,1990.421,0,7,-60,250,951,9.0,8,1991.164,0,736133.721974,Aud,Bilateral,2015-06-18 16:46:00,18_6_2015 level5_250_cooling 16_46 log,8.0,8.0,1311,-90,-1.0471975511965976,L,L,1,30
84,0,2070.406,0,7,-60,100,951,9.0,2,2071.595,0,736179.689813,Aud,Bilateral,2015-08-03 15:58:00,3_8_2015 level5_100_cooling 15_58 log,8.0,8.0,1311,90,-1.0471975511965976,L,R,0,150
84,0,2070.406,0,7,-60,100,951,9.0,2,2071.595,0,736179.689813,Aud,Bilateral,2015-08-03 15:58:00,3_8_2015 level5_100_cooling 15_58 log,8.0,8.0,1311,90,-1.0471975511965976,L,R,0,150
18,0,1269.512,0,7,-60,100,851,9.0,8,1270.254,0,736179.680539,Aud,Bilateral,2015-08-03 15:58:00,3_8_2015 level5_100_cooling 15_58 log,8.0,8.0,1311,-90,-1.0471975511965976,L,L,1,30
18,0,3499.761,0,7,-60,250,901,9.0,7,3500.938,1,736146.686147,Aud,Bilateral,2015-07-01 15:29:00,1_7_2015 level5_250_cooling 15_29 log,10.0,9.0,1311,-60,-1.0471975511965976,L,L,1,0
18,0,3499.761,0,7,-60,250,901,9.0,7,3500.938,1,736146.686147,Aud,Bilateral,2015-07-01 15:29:00,1_7_2015 level5_250_cooling 15_29 log,10.0,9.0,1311,-60,-1.0471975511965976,L,L,1,0
127,0,2570.002,0,7,-60,100,501,9.0,8,2570.83,0,736179.695591,Aud,Bilateral,2015-08-03 15:58:00,3_8_2015 level5_100_cooling 15_58 log,9.0,8.0,1311,-90,-1.0471975511965976,L,L,1,30
79,0,1990.421,0,7,-60,250,951,9.0,8,1991.164,0,736133.721974,Aud,Bilateral,2015-06-18 16:46:00,18_6_2015 level5_250_cooling 16_46 log,8.0,8.0,1311,-90,-1.0471975511965976,L,L,1,30
82,0,2046.024,0,7,-60,100,901,9.0,8,2046.889,0,736179.689526,Aud,Bilateral,2015-08-03 15:58:00,3_8_2015 level5_100_cooling 15_58 log,8.0,8.0,1311,-90,-1.0471975511965976,L,L,1,30
127,0,2570.002,0,7,-60,100,501,9.0,8,2570.83,0,736179.695591,Aud,Bilateral,2015-08-03 15:58:00,3_8_2015 level5_100_cooling 15_58 log,9.0,8.0,1311,-90,-1.0471975511965976,L,L,1,30
127,0,2570.002,0,7,-60,100,501,9.0,8,2570.83,0,736179.695591,Aud,Bilateral,2015-08-03 15:58:00,3_8_2015 level5_100_cooling 15_58 log,9.0,8.0,1311,-90,-1.0471975511965976,L,L,1,30
82,0,2046.024,0,7,-60,100,901,9.0,8,2046.889,0,736179.689526,Aud,Bilateral,2015-08-03 15:58:00,3_8_2015 level5_100_cooling 15_58 log,8.0,8.0,1311,-90,-1.0471975511965976,L,L,1,30
141,0,2708.035,1,7,-60,100,551,9.0,8,2709.137,0,736179.697191,Aud,Bilateral,2015-08-03 15:58:00,3_8_2015 level5_100_cooling 15_58 log,9.0,8.0,1311,-90,-1.0471975511965976,L,L,1,30
18,0,1269.512,0,7,-60,100,851,9.0,8,1270.254,0,736179.680539,Aud,Bilateral,2015-08-03 15:58:00,3_8_2015 level5_100_cooling 15_58 log,8.0,8.0,1311,-90,-1.0471975511965976,L,L,1,30
29,0,1499.587,0,7,-60,250,851,9.0,8,1500.359,0,736133.716294,Aud,Bilateral,2015-06-18 16:46:00,18_6_2015 level5_250_cooling 16_46 log,8.0,8.0,1311,-90,-1.0471975511965976,L,L,1,30
40,0,1582.548,0,7,-60,100,851,9.0,8,1583.568,0,736179.684163,Aud,Bilateral,2015-08-03 15:58:00,3_8_2015 level5_100_cooling 15_58 log,8.0,8.0,1311,-90,-1.0471975511965976,L,L,1,30
82,0,2046.024,0,7,-60,100,901,9.0,8,2046.889,0,736179.689526,Aud,Bilateral,2015-08-03 15:58:00,3_8_2015 level5_100_cooling 15_58 log,8.0,8.0,1311,-90,-1.0471975511965976,L,L,1,30
18,0,1269.512,0,7,-60,100,851,9.0,8,1270.254,0,736179.680539,Aud,Bilateral,2015-08-03 15:58:00,3_8_2015 level5_100_cooling 15_58 log,8.0,8.0,1311,-90,-1.0471975511965976,L,L,1,30
79,0,1990.421,0,7,-60,250,951,9.0,8,1991.164,0,736133.721974,Aud,Bilateral,2015-06-18 16:46:00,18_6_2015 level5_250_cooling 16_46 log,8.0,8.0,1311,-90,-1.0471975511965976,L,L,1,30
49,0,1719.381,0,7,-60,250,501,9.0,7,1720.493,1,736133.718841,Aud,Bilateral,2015-06-18 16:46:00,18_6_2015 level5_250_cooling 16_46 log,8.0,8.0,1311,-60,-1.0471975511965976,L,L,1,0
127,0,2570.002,0,7,-60,100,501,9.0,8,2570.83,0,736179.695591,Aud,Bilateral,2015-08-03 15:58:00,3_8_2015 level5_100_cooling 15_58 log,9.0,8.0,1311,-90,-1.0471975511965976,L,L,1,30
141,0,2708.035,1,7,-60,100,551,9.0,8,2709.137,0,736179.697191,Aud,Bilateral,2015-08-03 15:58:00,3_8_2015 level5_100_cooling 15_58 log,9.0,8.0,1311,-90,-1.0471975511965976,L,L,1,30
84,0,2070.406,0,7,-60,100,951,9.0,2,2071.595,0,736179.689813,Aud,Bilateral,2015-08-03 15:58:00,3_8_2015 level5_100_cooling 15_58 log,8.0,8.0,1311,90,-1.0471975511965976,L,R,0,150
79,0,1990.421,0,7,-60,250,951,9.0,8,1991.164,0,736133.721974,Aud,Bilateral,2015-06-18 16:46:00,18_6_2015 level5_250_cooling 16_46 log,8.0,8.0,1311,-90,-1.0471975511965976,L,L,1,30
98,0,2114.818,0,7,-60,250,851,9.0,8,2115.481,0,736147.619097,Aud,Bilateral,2015-07-02 14:16:00,2_7_2015 level5_250_cooling 14_16 log,9.0,9.0,1311,-90,-1.0471975511965976,L,L,1,30
18,0,3499.761,0,7,-60,250,901,9.0,7,3500.938,1,736146.686147,Aud,Bilateral,2015-07-01 15:29:00,1_7_2015 level5_250_cooling 15_29 log,10.0,9.0,1311,-60,-1.0471975511965976,L,L,1,0
98,0,2114.818,0,7,-60,250,851,9.0,8,2115.481,0,736147.619097,Aud,Bilateral,2015-07-02 14:16:00,2_7_2015 level5_250_cooling 14_16 log,9.0,9.0,1311,-90,-1.0471975511965976,L,L,1,30
127,0,2570.002,0,7,-60,100,501,9.0,8,2570.83,0,736179.695591,Aud,Bilateral,2015-08-03 15:58:00,3_8_2015 level5_100_cooling 15_58 log,9.0,8.0,1311,-90,-1.0471975511965976,L,L,1,30
141,0,2708.035,1,7,-60,100,551,9.0,8,2709.137,0,736179.697191,Aud,Bilateral,2015-08-03 15:58:00,3_8_2015 level5_100_cooling 15_58 log,9.0,8.0,1311,-90,-1.0471975511965976,L,L,1,30
29,0,1499.587,0,7,-60,250,851,9.0,8,1500.359,0,736133.716294,Aud,Bilateral,2015-06-18 16:46:00,18_6_2015 level5_250_cooling 16_46 log,8.0,8.0,1311,-90,-1.0471975511965976,L,L,1,30
84,0,2070.406,0,7,-60,100,951,9.0,2,2071.595,0,736179.689813,Aud,Bilateral,2015-08-03 15:58:00,3_8_2015 level5_100_cooling 15_58 log,8.0,8.0,1311,90,-1.0471975511965976,L,R,0,150
18,0,3499.761,0,7,-60,250,901,9.0,7,3500.938,1,736146.686147,Aud,Bilateral,2015-07-01 15:29:00,1_7_2015 level5_250_cooling 15_29 log,10.0,9.0,1311,-60,-1.0471975511965976,L,L,1,0
82,0,2046.024,0,7,-60,100,901,9.0,8,2046.889,0,736179.689526,Aud,Bilateral,2015-08-03 15:58:00,3_8_2015 level5_100_cooling 15_58 log,8.0,8.0,1311,-90,-1.0471975511965976,L,L,1,30
127,0,2570.002,0,7,-60,100,501,9.0,8,2570.83,0,736179.695591,Aud,Bilateral,2015-08-03 15:58:00,3_8_2015 level5_100_cooling 15_58 log,9.0,8.0,1311,-90,-1.0471975511965976,L,L,1,30
18,0,3499.761,0,7,-60,250,901,9.0,7,3500.938,1,736146.686147,Aud,Bilateral,2015-07-01 15:29:00,1_7_2015 level5_250_cooling 15_29 log,10.0,9.0,1311,-60,-1.0471975511965976,L,L,1,0
127,0,2570.002,0,7,-60,100,501,9.0,8,2570.83,0,736179.695591,Aud,Bilateral,2015-08-03 15:58:00,3_8_2015 level5_100_cooling 15_58 log,9.0,8.0,1311,-90,-1.0471975511965976,L,L,1,30
49,0,1719.381,0,7,-60,250,501,9.0,7,1720.493,1,736133.718841,Aud,Bilateral,2015-06-18 16:46:00,18_6_2015 level5_250_cooling 16_46 log,8.0,8.0,1311,-60,-1.0471975511965976,L,L,1,0
79,0,1990.421,0,7,-60,250,951,9.0,8,1991.164,0,736133.721974,Aud,Bilateral,2015-06-18 16:46:00,18_6_2015 level5_250_cooling 16_46 log,8.0,8.0,1311,-90,-1.0471975511965976,L,L,1,30
141,0,2708.035,1,7,-60,100,551,9.0,8,2709.137,0,736179.697191,Aud,Bilateral,2015-08-03 15:58:00,3_8_2015 level5_100_cooling 15_58 log,9.0,8.0,1311,-90,-1.0471975511965976,L,L,1,30
82,0,2046.024,0,7,-60,100,901,9.0,8,2046.889,0,736179.689526,Aud,Bilateral,2015-08-03 15:58:00,3_8_2015 level5_100_cooling 15_58 log,8.0,8.0,1311,-90,-1.0471975511965976,L,L,1,30
91,0,4246.209,0,6,-30,250,751,0.0,6,4247.051,1,736146.694782,Aud,Bilateral,2015-07-01 15:29:00,1_7_2015 level5_250_cooling 15_29 log,9.0,9.0,1311,-30,-0.5235987755982988,L,L,1,0
30,0,1030.069,0,6,-30,250,701,0.0,7,1031.289,0,736134.702661,Aud,Bilateral,2015-06-19 16:34:00,19_6_2015 level5_250_cooling 16_34 log,8.0,8.0,1311,-60,-0.5235987755982988,L,L,1,30
53,0,1731.107,0,6,-30,100,851,0.0,6,1732.169,1,736179.685883,Aud,Bilateral,2015-08-03 15:58:00,3_8_2015 level5_100_cooling 15_58 log,8.0,8.0,1311,-30,-0.5235987755982988,L,L,1,0
16,0,870.336,0,6,-30,250,701,0.0,6,872.297,1,736134.70082,Aud,Bilateral,2015-06-19 16:34:00,19_6_2015 level5_250_cooling 16_34 log,8.0,8.0,1311,-30,-0.5235987755982988,L,L,1,0
55,0,1751.126,0,6,-30,100,801,0.0,6,1752.527,1,736179.68612,Aud,Bilateral,2015-08-03 15:58:00,3_8_2015 level5_100_cooling 15_58 log,8.0,8.0,1311,-30,-0.5235987755982988,L,L,1,0
21,0,1297.75,0,6,-30,100,601,0.0,6,1298.583,1,736179.680865,Aud,Bilateral,2015-08-03 15:58:00,3_8_2015 level5_100_cooling 15_58 log,8.0,8.0,1311,-30,-0.5235987755982988,L,L,1,0
14,0,1336.591,0,6,-30,250,701,0.0,7,1337.72,0,736133.71441,Aud,Bilateral,2015-06-18 16:46:00,18_6_2015 level5_250_cooling 16_46 log,8.0,8.0,1311,-60,-0.5235987755982988,L,L,1,30
61,0,1815.153,0,6,-30,100,951,0.0,6,1816.016,1,736179.686854,Aud,Bilateral,2015-08-03 15:58:00,3_8_2015 level5_100_cooling 15_58 log,8.0,8.0,1311,-30,-0.5235987755982988,L,L,1,0
53,0,1731.107,0,6,-30,100,851,0.0,6,1732.169,1,736179.685883,Aud,Bilateral,2015-08-03 15:58:00,3_8_2015 level5_100_cooling 15_58 log,8.0,8.0,1311,-30,-0.5235987755982988,L,L,1,0
133,0,2469.554,0,6,-30,250,701,0.0,7,2470.995,0,736147.62321,Aud,Bilateral,2015-07-02 14:16:00,2_7_2015 level5_250_cooling 14_16 log,10.0,10.0,1311,-60,-0.5235987755982988,L,L,1,30
120,0,4535.929,0,6,-30,250,851,0.0,7,4537.304,0,736146.698142,Aud,Bilateral,2015-07-01 15:29:00,1_7_2015 level5_250_cooling 15_29 log,9.0,9.0,1311,-60,-0.5235987755982988,L,L,1,30
21,0,1297.75,0,6,-30,100,601,0.0,6,1298.583,1,736179.680865,Aud,Bilateral,2015-08-03 15:58:00,3_8_2015 level5_100_cooling 15_58 log,8.0,8.0,1311,-30,-0.5235987755982988,L,L,1,0
14,0,1336.591,0,6,-30,250,701,0.0,7,1337.72,0,736133.71441,Aud,Bilateral,2015-06-18 16:46:00,18_6_2015 level5_250_cooling 16_46 log,8.0,8.0,1311,-60,-0.5235987755982988,L,L,1,30
55,0,1751.126,0,6,-30,100,801,0.0,6,1752.527,1,736179.68612,Aud,Bilateral,2015-08-03 15:58:00,3_8_2015 level5_100_cooling 15_58 log,8.0,8.0,1311,-30,-0.5235987755982988,L,L,1,0
71,0,1920.478,0,6,-30,100,901,0.0,7,1921.479,0,736179.688074,Aud,Bilateral,2015-08-03 15:58:00,3_8_2015 level5_100_cooling 15_58 log,8.0,8.0,1311,-60,-0.5235987755982988,L,L,1,30
21,0,1297.75,0,6,-30,100,601,0.0,6,1298.583,1,736179.680865,Aud,Bilateral,2015-08-03 15:58:00,3_8_2015 level5_100_cooling 15_58 log,8.0,8.0,1311,-30,-0.5235987755982988,L,L,1,0
21,0,1297.75,0,6,-30,100,601,0.0,6,1298.583,1,736179.680865,Aud,Bilateral,2015-08-03 15:58:00,3_8_2015 level5_100_cooling 15_58 log,8.0,8.0,1311,-30,-0.5235987755982988,L,L,1,0
21,0,1297.75,0,6,-30,100,601,0.0,6,1298.583,1,736179.680865,Aud,Bilateral,2015-08-03 15:58:00,3_8_2015 level5_100_cooling 15_58 log,8.0,8.0,1311,-30,-0.5235987755982988,L,L,1,0
30,0,1030.069,0,6,-30,250,701,0.0,7,1031.289,0,736134.702661,Aud,Bilateral,2015-06-19 16:34:00,19_6_2015 level5_250_cooling 16_34 log,8.0,8.0,1311,-60,-0.5235987755982988,L,L,1,30
55,0,1751.126,0,6,-30,100,801,0.0,6,1752.527,1,736179.68612,Aud,Bilateral,2015-08-03 15:58:00,3_8_2015 level5_100_cooling 15_58 log,8.0,8.0,1311,-30,-0.5235987755982988,L,L,1,0
53,0,1731.107,0,6,-30,100,851,0.0,6,1732.169,1,736179.685883,Aud,Bilateral,2015-08-03 15:58:00,3_8_2015 level5_100_cooling 15_58 log,8.0,8.0,1311,-30,-0.5235987755982988,L,L,1,0
14,0,1336.591,0,6,-30,250,701,0.0,7,1337.72,0,736133.71441,Aud,Bilateral,2015-06-18 16:46:00,18_6_2015 level5_250_cooling 16_46 log,8.0,8.0,1311,-60,-0.5235987755982988,L,L,1,30
20,0,1133.588,0,6,-30,250,601,0.0,7,1134.324,0,736147.607741,Aud,Bilateral,2015-07-02 14:16:00,2_7_2015 level5_250_cooling 14_16 log,9.0,8.0,1311,-60,-0.5235987755982988,L,L,1,30
32,0,1435.772,0,6,-30,100,701,0.0,6,1436.75,1,736179.682464,Aud,Bilateral,2015-08-03 15:58:00,3_8_2015 level5_100_cooling 15_58 log,8.0,8.0,1311,-30,-0.5235987755982988,L,L,1,0
21,0,1297.75,0,6,-30,100,601,0.0,6,1298.583,1,736179.680865,Aud,Bilateral,2015-08-03 15:58:00,3_8_2015 level5_100_cooling 15_58 log,8.0,8.0,1311,-30,-0.5235987755982988,L,L,1,0
61,0,1815.153,0,6,-30,100,951,0.0,6,1816.016,1,736179.686854,Aud,Bilateral,2015-08-03 15:58:00,3_8_2015 level5_100_cooling 15_58 log,8.0,8.0,1311,-30,-0.5235987755982988,L,L,1,0
32,0,1435.772,0,6,-30,100,701,0.0,6,1436.75,1,736179.682464,Aud,Bilateral,2015-08-03 15:58:00,3_8_2015 level5_100_cooling 15_58 log,8.0,8.0,1311,-30,-0.5235987755982988,L,L,1,0
125,0,2391.616,0,6,-30,250,651,0.0,8,2392.326,0,736147.622301,Aud,Bilateral,2015-07-02 14:16:00,2_7_2015 level5_250_cooling 14_16 log,10.0,10.0,1311,-90,-0.5235987755982988,L,L,1,60
71,0,1920.478,0,6,-30,100,901,0.0,7,1921.479,0,736179.688074,Aud,Bilateral,2015-08-03 15:58:00,3_8_2015 level5_100_cooling 15_58 log,8.0,8.0,1311,-60,-0.5235987755982988,L,L,1,30
71,0,1920.478,0,6,-30,100,901,0.0,7,1921.479,0,736179.688074,Aud,Bilateral,2015-08-03 15:58:00,3_8_2015 level5_100_cooling 15_58 log,8.0,8.0,1311,-60,-0.5235987755982988,L,L,1,30
132,0,2614.668,0,6,-30,100,601,0.0,8,2615.531,0,736179.696107,Aud,Bilateral,2015-08-03 15:58:00,3_8_2015 level5_100_cooling 15_58 log,9.0,8.0,1311,-90,-0.5235987755982988,L,L,1,60
61,0,1815.153,0,6,-30,100,951,0.0,6,1816.016,1,736179.686854,Aud,Bilateral,2015-08-03 15:58:00,3_8_2015 level5_100_cooling 15_58 log,8.0,8.0,1311,-30,-0.5235987755982988,L,L,1,0
120,0,4535.929,0,6,-30,250,851,0.0,7,4537.304,0,736146.698142,Aud,Bilateral,2015-07-01 15:29:00,1_7_2015 level5_250_cooling 15_29 log,9.0,9.0,1311,-60,-0.5235987755982988,L,L,1,30
53,0,1731.107,0,6,-30,100,851,0.0,6,1732.169,1,736179.685883,Aud,Bilateral,2015-08-03 15:58:00,3_8_2015 level5_100_cooling 15_58 log,8.0,8.0,1311,-30,-0.5235987755982988,L,L,1,0
71,0,1920.478,0,6,-30,100,901,0.0,7,1921.479,0,736179.688074,Aud,Bilateral,2015-08-03 15:58:00,3_8_2015 level5_100_cooling 15_58 log,8.0,8.0,1311,-60,-0.5235987755982988,L,L,1,30
120,0,4535.929,0,6,-30,250,851,0.0,7,4537.304,0,736146.698142,Aud,Bilateral,2015-07-01 15:29:00,1_7_2015 level5_250_cooling 15_29 log,9.0,9.0,1311,-60,-0.5235987755982988,L,L,1,30
132,0,2614.668,0,6,-30,100,601,0.0,8,2615.531,0,736179.696107,Aud,Bilateral,2015-08-03 15:58:00,3_8_2015 level5_100_cooling 15_58 log,9.0,8.0,1311,-90,-0.5235987755982988,L,L,1,60
30,0,1030.069,0,6,-30,250,701,0.0,7,1031.289,0,736134.702661,Aud,Bilateral,2015-06-19 16:34:00,19_6_2015 level5_250_cooling 16_34 log,8.0,8.0,1311,-60,-0.5235987755982988,L,L,1,30
53,0,1731.107,0,6,-30,100,851,0.0,6,1732.169,1,736179.685883,Aud,Bilateral,2015-08-03 15:58:00,3_8_2015 level5_100_cooling 15_58 log,8.0,8.0,1311,-30,-0.5235987755982988,L,L,1,0
32,0,1435.772,0,6,-30,100,701,0.0,6,1436.75,1,736179.682464,Aud,Bilateral,2015-08-03 15:58:00,3_8_2015 level5_100_cooling 15_58 log,8.0,8.0,1311,-30,-0.5235987755982988,L,L,1,0
30,0,1030.069,0,6,-30,250,701,0.0,7,1031.289,0,736134.702661,Aud,Bilateral,2015-06-19 16:34:00,19_6_2015 level5_250_cooling 16_34 log,8.0,8.0,1311,-60,-0.5235987755982988,L,L,1,30
16,0,870.336,0,6,-30,250,701,0.0,6,872.297,1,736134.70082,Aud,Bilateral,2015-06-19 16:34:00,19_6_2015 level5_250_cooling 16_34 log,8.0,8.0,1311,-30,-0.5235987755982988,L,L,1,0
14,0,1336.591,0,6,-30,250,701,0.0,7,1337.72,0,736133.71441,Aud,Bilateral,2015-06-18 16:46:00,18_6_2015 level5_250_cooling 16_46 log,8.0,8.0,1311,-60,-0.5235987755982988,L,L,1,30
14,0,1336.591,0,6,-30,250,701,0.0,7,1337.72,0,736133.71441,Aud,Bilateral,2015-06-18 16:46:00,18_6_2015 level5_250_cooling 16_46 log,8.0,8.0,1311,-60,-0.5235987755982988,L,L,1,30
28,0,1491.977,0,6,-30,250,751,4.5,4,1493.763,0,736133.716217,Aud,Bilateral,2015-06-18 16:46:00,18_6_2015 level5_250_cooling 16_46 log,8.0,8.0,1311,30,-0.5235987755982988,L,R,0,60
110,0,2373.895,0,6,-30,100,701,4.5,6,2374.86,1,736179.693322,Aud,Bilateral,2015-08-03 15:58:00,3_8_2015 level5_100_cooling 15_58 log,8.0,7.0,1311,-30,-0.5235987755982988,L,L,1,0
114,0,2419.644,0,6,-30,100,851,4.5,8,2420.842,0,736179.693854,Aud,Bilateral,2015-08-03 15:58:00,3_8_2015 level5_100_cooling 15_58 log,8.0,8.0,1311,-90,-0.5235987755982988,L,L,1,60
114,0,2419.644,0,6,-30,100,851,4.5,8,2420.842,0,736179.693854,Aud,Bilateral,2015-08-03 15:58:00,3_8_2015 level5_100_cooling 15_58 log,8.0,8.0,1311,-90,-0.5235987755982988,L,L,1,60
43,0,1174.972,0,6,-30,250,751,4.5,4,1176.03,0,736134.704335,Aud,Bilateral,2015-06-19 16:34:00,19_6_2015 level5_250_cooling 16_34 log,8.0,8.0,1311,30,-0.5235987755982988,L,R,0,60
28,0,1491.977,0,6,-30,250,751,4.5,4,1493.763,0,736133.716217,Aud,Bilateral,2015-06-18 16:46:00,18_6_2015 level5_250_cooling 16_46 log,8.0,8.0,1311,30,-0.5235987755982988,L,R,0,60
59,0,1342.479,0,6,-30,250,901,4.5,8,1343.529,0,736134.706274,Aud,Bilateral,2015-06-19 16:34:00,19_6_2015 level5_250_cooling 16_34 log,8.0,8.0,1311,-90,-0.5235987755982988,L,L,1,60
122,0,2512.009,0,6,-30,100,551,4.5,6,2512.956,1,736179.69492,Aud,Bilateral,2015-08-03 15:58:00,3_8_2015 level5_100_cooling 15_58 log,8.0,8.0,1311,-30,-0.5235987755982988,L,L,1,0
28,0,1491.977,0,6,-30,250,751,4.5,4,1493.763,0,736133.716217,Aud,Bilateral,2015-06-18 16:46:00,18_6_2015 level5_250_cooling 16_46 log,8.0,8.0,1311,30,-0.5235987755982988,L,R,0,60
122,0,2512.009,0,6,-30,100,551,4.5,6,2512.956,1,736179.69492,Aud,Bilateral,2015-08-03 15:58:00,3_8_2015 level5_100_cooling 15_58 log,8.0,8.0,1311,-30,-0.5235987755982988,L,L,1,0
71,0,1724.418,0,6,-30,250,751,4.5,8,1725.498,0,736147.614582,Aud,Bilateral,2015-07-02 14:16:00,2_7_2015 level5_250_cooling 14_16 log,8.0,8.0,1311,-90,-0.5235987755982988,L,L,1,60
122,0,2512.009,0,6,-30,100,551,4.5,6,2512.956,1,736179.69492,Aud,Bilateral,2015-08-03 15:58:00,3_8_2015 level5_100_cooling 15_58 log,8.0,8.0,1311,-30,-0.5235987755982988,L,L,1,0
87,0,2114.64,0,6,-30,100,601,4.5,6,2115.703,1,736179.690322,Aud,Bilateral,2015-08-03 15:58:00,3_8_2015 level5_100_cooling 15_58 log,8.0,8.0,1311,-30,-0.5235987755982988,L,L,1,0
137,0,2670.031,0,6,-30,100,951,4.5,7,2671.216,0,736179.696752,Aud,Bilateral,2015-08-03 15:58:00,3_8_2015 level5_100_cooling 15_58 log,9.0,8.0,1311,-60,-0.5235987755982988,L,L,1,30
28,0,1491.977,0,6,-30,250,751,4.5,4,1493.763,0,736133.716217,Aud,Bilateral,2015-06-18 16:46:00,18_6_2015 level5_250_cooling 16_46 log,8.0,8.0,1311,30,-0.5235987755982988,L,R,0,60
141,0,2542.322,0,6,-30,250,951,4.5,7,2543.161,0,736147.624045,Aud,Bilateral,2015-07-02 14:16:00,2_7_2015 level5_250_cooling 14_16 log,9.0,9.0,1311,-60,-0.5235987755982988,L,L,1,30
71,0,1724.418,0,6,-30,250,751,4.5,8,1725.498,0,736147.614582,Aud,Bilateral,2015-07-02 14:16:00,2_7_2015 level5_250_cooling 14_16 log,8.0,8.0,1311,-90,-0.5235987755982988,L,L,1,60
109,0,1952.899,0,6,-30,250,601,4.5,4,1955.193,0,736134.713354,Aud,Bilateral,2015-06-19 16:34:00,19_6_2015 level5_250_cooling 16_34 log,8.0,8.0,1311,30,-0.5235987755982988,L,R,0,60
109,0,1952.899,0,6,-30,250,601,4.5,4,1955.193,0,736134.713354,Aud,Bilateral,2015-06-19 16:34:00,19_6_2015 level5_250_cooling 16_34 log,8.0,8.0,1311,30,-0.5235987755982988,L,R,0,60
71,0,1724.418,0,6,-30,250,751,4.5,8,1725.498,0,736147.614582,Aud,Bilateral,2015-07-02 14:16:00,2_7_2015 level5_250_cooling 14_16 log,8.0,8.0,1311,-90,-0.5235987755982988,L,L,1,60
141,0,2542.322,0,6,-30,250,951,4.5,7,2543.161,0,736147.624045,Aud,Bilateral,2015-07-02 14:16:00,2_7_2015 level5_250_cooling 14_16 log,9.0,9.0,1311,-60,-0.5235987755982988,L,L,1,30
108,0,2208.33,0,6,-30,250,1001,4.5,7,2209.252,0,736147.620182,Aud,Bilateral,2015-07-02 14:16:00,2_7_2015 level5_250_cooling 14_16 log,9.0,9.0,1311,-60,-0.5235987755982988,L,L,1,30
108,0,2208.33,0,6,-30,250,1001,4.5,7,2209.252,0,736147.620182,Aud,Bilateral,2015-07-02 14:16:00,2_7_2015 level5_250_cooling 14_16 log,9.0,9.0,1311,-60,-0.5235987755982988,L,L,1,30
114,0,2419.644,0,6,-30,100,851,4.5,8,2420.842,0,736179.693854,Aud,Bilateral,2015-08-03 15:58:00,3_8_2015 level5_100_cooling 15_58 log,8.0,8.0,1311,-90,-0.5235987755982988,L,L,1,60
141,0,2542.322,0,6,-30,250,951,4.5,7,2543.161,0,736147.624045,Aud,Bilateral,2015-07-02 14:16:00,2_7_2015 level5_250_cooling 14_16 log,9.0,9.0,1311,-60,-0.5235987755982988,L,L,1,30
137,0,2670.031,0,6,-30,100,951,4.5,7,2671.216,0,736179.696752,Aud,Bilateral,2015-08-03 15:58:00,3_8_2015 level5_100_cooling 15_58 log,9.0,8.0,1311,-60,-0.5235987755982988,L,L,1,30
122,0,2512.009,0,6,-30,100,551,4.5,6,2512.956,1,736179.69492,Aud,Bilateral,2015-08-03 15:58:00,3_8_2015 level5_100_cooling 15_58 log,8.0,8.0,1311,-30,-0.5235987755982988,L,L,1,0
71,0,1724.418,0,6,-30,250,751,4.5,8,1725.498,0,736147.614582,Aud,Bilateral,2015-07-02 14:16:00,2_7_2015 level5_250_cooling 14_16 log,8.0,8.0,1311,-90,-0.5235987755982988,L,L,1,60
108,0,2208.33,0,6,-30,250,1001,4.5,7,2209.252,0,736147.620182,Aud,Bilateral,2015-07-02 14:16:00,2_7_2015 level5_250_cooling 14_16 log,9.0,9.0,1311,-60,-0.5235987755982988,L,L,1,30
87,0,2114.64,0,6,-30,100,601,4.5,6,2115.703,1,736179.690322,Aud,Bilateral,2015-08-03 15:58:00,3_8_2015 level5_100_cooling 15_58 log,8.0,8.0,1311,-30,-0.5235987755982988,L,L,1,0
114,0,2419.644,0,6,-30,100,851,4.5,8,2420.842,0,736179.693854,Aud,Bilateral,2015-08-03 15:58:00,3_8_2015 level5_100_cooling 15_58 log,8.0,8.0,1311,-90,-0.5235987755982988,L,L,1,60
28,0,1491.977,0,6,-30,250,751,4.5,4,1493.763,0,736133.716217,Aud,Bilateral,2015-06-18 16:46:00,18_6_2015 level5_250_cooling 16_46 log,8.0,8.0,1311,30,-0.5235987755982988,L,R,0,60
43,0,1174.972,0,6,-30,250,751,4.5,4,1176.03,0,736134.704335,Aud,Bilateral,2015-06-19 16:34:00,19_6_2015 level5_250_cooling 16_34 log,8.0,8.0,1311,30,-0.5235987755982988,L,R,0,60
141,0,2542.322,0,6,-30,250,951,4.5,7,2543.161,0,736147.624045,Aud,Bilateral,2015-07-02 14:16:00,2_7_2015 level5_250_cooling 14_16 log,9.0,9.0,1311,-60,-0.5235987755982988,L,L,1,30
108,0,2208.33,0,6,-30,250,1001,4.5,7,2209.252,0,736147.620182,Aud,Bilateral,2015-07-02 14:16:00,2_7_2015 level5_250_cooling 14_16 log,9.0,9.0,1311,-60,-0.5235987755982988,L,L,1,30
87,0,2114.64,0,6,-30,100,601,4.5,6,2115.703,1,736179.690322,Aud,Bilateral,2015-08-03 15:58:00,3_8_2015 level5_100_cooling 15_58 log,8.0,8.0,1311,-30,-0.5235987755982988,L,L,1,0
87,0,2114.64,0,6,-30,100,601,4.5,6,2115.703,1,736179.690322,Aud,Bilateral,2015-08-03 15:58:00,3_8_2015 level5_100_cooling 15_58 log,8.0,8.0,1311,-30,-0.5235987755982988,L,L,1,0
137,0,2670.031,0,6,-30,100,951,4.5,7,2671.216,0,736179.696752,Aud,Bilateral,2015-08-03 15:58:00,3_8_2015 level5_100_cooling 15_58 log,9.0,8.0,1311,-60,-0.5235987755982988,L,L,1,30
137,0,2670.031,0,6,-30,100,951,4.5,7,2671.216,0,736179.696752,Aud,Bilateral,2015-08-03 15:58:00,3_8_2015 level5_100_cooling 15_58 log,9.0,8.0,1311,-60,-0.5235987755982988,L,L,1,30
141,0,2542.322,0,6,-30,250,951,4.5,7,2543.161,0,736147.624045,Aud,Bilateral,2015-07-02 14:16:00,2_7_2015 level5_250_cooling 14_16 log,9.0,9.0,1311,-60,-0.5235987755982988,L,L,1,30
28,0,1491.977,0,6,-30,250,751,4.5,4,1493.763,0,736133.716217,Aud,Bilateral,2015-06-18 16:46:00,18_6_2015 level5_250_cooling 16_46 log,8.0,8.0,1311,30,-0.5235987755982988,L,R,0,60
59,0,1342.479,0,6,-30,250,901,4.5,8,1343.529,0,736134.706274,Aud,Bilateral,2015-06-19 16:34:00,19_6_2015 level5_250_cooling 16_34 log,8.0,8.0,1311,-90,-0.5235987755982988,L,L,1,60
24,0,1167.304,0,6,-30,250,801,4.5,4,1169.397,0,736147.608146,Aud,Bilateral,2015-07-02 14:16:00,2_7_2015 level5_250_cooling 14_16 log,9.0,9.0,1311,30,-0.5235987755982988,L,R,0,60
141,0,2542.322,0,6,-30,250,951,4.5,7,2543.161,0,736147.624045,Aud,Bilateral,2015-07-02 14:16:00,2_7_2015 level5_250_cooling 14_16 log,9.0,9.0,1311,-60,-0.5235987755982988,L,L,1,30
31,0,1425.865,0,6,-30,100,751,9.0,7,1427.176,0,736179.682353,Aud,Bilateral,2015-08-03 15:58:00,3_8_2015 level5_100_cooling 15_58 log,7.0,8.0,1311,-60,-0.5235987755982988,L,L,1,30
34,0,3669.037,0,6,-30,250,851,9.0,7,3669.968,0,736146.688103,Aud,Bilateral,2015-07-01 15:29:00,1_7_2015 level5_250_cooling 15_29 log,10.0,9.0,1311,-60,-0.5235987755982988,L,L,1,30
72,0,1931.376,0,6,-30,100,951,9.0,8,1932.318,0,736179.6882,Aud,Bilateral,2015-08-03 15:58:00,3_8_2015 level5_100_cooling 15_58 log,8.0,8.0,1311,-90,-0.5235987755982988,L,L,1,60
31,0,1425.865,0,6,-30,100,751,9.0,7,1427.176,0,736179.682353,Aud,Bilateral,2015-08-03 15:58:00,3_8_2015 level5_100_cooling 15_58 log,7.0,8.0,1311,-60,-0.5235987755982988,L,L,1,30
95,0,2202.876,0,6,-30,100,951,9.0,7,2204.779,0,736179.691353,Aud,Bilateral,2015-08-03 15:58:00,3_8_2015 level5_100_cooling 15_58 log,8.0,8.0,1311,-60,-0.5235987755982988,L,L,1,30
72,0,1931.376,0,6,-30,100,951,9.0,8,1932.318,0,736179.6882,Aud,Bilateral,2015-08-03 15:58:00,3_8_2015 level5_100_cooling 15_58 log,8.0,8.0,1311,-90,-0.5235987755982988,L,L,1,60
13,0,1218.374,0,6,-30,100,651,9.0,6,1219.747,1,736179.679952,Aud,Bilateral,2015-08-03 15:58:00,3_8_2015 level5_100_cooling 15_58 log,8.0,8.0,1311,-30,-0.5235987755982988,L,L,1,0
68,0,4007.805,0,6,-30,250,801,9.0,7,4008.727,0,736146.692024,Aud,Bilateral,2015-07-01 15:29:00,1_7_2015 level5_250_cooling 15_29 log,9.0,9.0,1311,-60,-0.5235987755982988,L,L,1,30
13,0,1218.374,0,6,-30,100,651,9.0,6,1219.747,1,736179.679952,Aud,Bilateral,2015-08-03 15:58:00,3_8_2015 level5_100_cooling 15_58 log,8.0,8.0,1311,-30,-0.5235987755982988,L,L,1,0
57,0,1773.278,0,6,-30,100,1001,9.0,7,1774.443,0,736179.686373,Aud,Bilateral,2015-08-03 15:58:00,3_8_2015 level5_100_cooling 15_58 log,8.0,8.0,1311,-60,-0.5235987755982988,L,L,1,30
104,0,4364.531,0,6,-30,250,1001,9.0,7,4365.368,0,736146.696152,Aud,Bilateral,2015-07-01 15:29:00,1_7_2015 level5_250_cooling 15_29 log,9.0,9.0,1311,-60,-0.5235987755982988,L,L,1,30
103,0,2307.626,0,6,-30,100,851,9.0,3,2308.57,0,736179.692554,Aud,Bilateral,2015-08-03 15:58:00,3_8_2015 level5_100_cooling 15_58 log,8.0,8.0,1311,60,-0.5235987755982988,L,R,0,90
68,0,4007.805,0,6,-30,250,801,9.0,7,4008.727,0,736146.692024,Aud,Bilateral,2015-07-01 15:29:00,1_7_2015 level5_250_cooling 15_29 log,9.0,9.0,1311,-60,-0.5235987755982988,L,L,1,30
72,0,1931.376,0,6,-30,100,951,9.0,8,1932.318,0,736179.6882,Aud,Bilateral,2015-08-03 15:58:00,3_8_2015 level5_100_cooling 15_58 log,8.0,8.0,1311,-90,-0.5235987755982988,L,L,1,60
13,0,1218.374,0,6,-30,100,651,9.0,6,1219.747,1,736179.679952,Aud,Bilateral,2015-08-03 15:58:00,3_8_2015 level5_100_cooling 15_58 log,8.0,8.0,1311,-30,-0.5235987755982988,L,L,1,0
1,0,1042.034,0,6,-30,100,501,9.0,8,1048.827,0,736179.677975,Aud,Bilateral,2015-08-03 15:58:00,3_8_2015 level5_100_cooling 15_58 log,13.0,12.0,1311,-90,-0.5235987755982988,L,L,1,60
72,0,1931.376,0,6,-30,100,951,9.0,8,1932.318,0,736179.6882,Aud,Bilateral,2015-08-03 15:58:00,3_8_2015 level5_100_cooling 15_58 log,8.0,8.0,1311,-90,-0.5235987755982988,L,L,1,60
95,0,2202.876,0,6,-30,100,951,9.0,7,2204.779,0,736179.691353,Aud,Bilateral,2015-08-03 15:58:00,3_8_2015 level5_100_cooling 15_58 log,8.0,8.0,1311,-60,-0.5235987755982988,L,L,1,30
72,0,1931.376,0,6,-30,100,951,9.0,8,1932.318,0,736179.6882,Aud,Bilateral,2015-08-03 15:58:00,3_8_2015 level5_100_cooling 15_58 log,8.0,8.0,1311,-90,-0.5235987755982988,L,L,1,60
95,0,2202.876,0,6,-30,100,951,9.0,7,2204.779,0,736179.691353,Aud,Bilateral,2015-08-03 15:58:00,3_8_2015 level5_100_cooling 15_58 log,8.0,8.0,1311,-60,-0.5235987755982988,L,L,1,30
57,0,1773.278,0,6,-30,100,1001,9.0,7,1774.443,0,736179.686373,Aud,Bilateral,2015-08-03 15:58:00,3_8_2015 level5_100_cooling 15_58 log,8.0,8.0,1311,-60,-0.5235987755982988,L,L,1,30
9,0,795.05,0,6,-30,250,651,9.0,8,796.234,0,736134.699939,Aud,Bilateral,2015-06-19 16:34:00,19_6_2015 level5_250_cooling 16_34 log,8.0,7.0,1311,-90,-0.5235987755982988,L,L,1,60
68,0,4007.805,0,6,-30,250,801,9.0,7,4008.727,0,736146.692024,Aud,Bilateral,2015-07-01 15:29:00,1_7_2015 level5_250_cooling 15_29 log,9.0,9.0,1311,-60,-0.5235987755982988,L,L,1,30
104,0,4364.531,0,6,-30,250,1001,9.0,7,4365.368,0,736146.696152,Aud,Bilateral,2015-07-01 15:29:00,1_7_2015 level5_250_cooling 15_29 log,9.0,9.0,1311,-60,-0.5235987755982988,L,L,1,30
31,0,1425.865,0,6,-30,100,751,9.0,7,1427.176,0,736179.682353,Aud,Bilateral,2015-08-03 15:58:00,3_8_2015 level5_100_cooling 15_58 log,7.0,8.0,1311,-60,-0.5235987755982988,L,L,1,30
72,0,1931.376,0,6,-30,100,951,9.0,8,1932.318,0,736179.6882,Aud,Bilateral,2015-08-03 15:58:00,3_8_2015 level5_100_cooling 15_58 log,8.0,8.0,1311,-90,-0.5235987755982988,L,L,1,60
57,0,1773.278,0,6,-30,100,1001,9.0,7,1774.443,0,736179.686373,Aud,Bilateral,2015-08-03 15:58:00,3_8_2015 level5_100_cooling 15_58 log,8.0,8.0,1311,-60,-0.5235987755982988,L,L,1,30
13,0,1218.374,0,6,-30,100,651,9.0,6,1219.747,1,736179.679952,Aud,Bilateral,2015-08-03 15:58:00,3_8_2015 level5_100_cooling 15_58 log,8.0,8.0,1311,-30,-0.5235987755982988,L,L,1,0
103,0,2307.626,0,6,-30,100,851,9.0,3,2308.57,0,736179.692554,Aud,Bilateral,2015-08-03 15:58:00,3_8_2015 level5_100_cooling 15_58 log,8.0,8.0,1311,60,-0.5235987755982988,L,R,0,90
1,0,1042.034,0,6,-30,100,501,9.0,8,1048.827,0,736179.677975,Aud,Bilateral,2015-08-03 15:58:00,3_8_2015 level5_100_cooling 15_58 log,13.0,12.0,1311,-90,-0.5235987755982988,L,L,1,60
31,0,1425.865,0,6,-30,100,751,9.0,7,1427.176,0,736179.682353,Aud,Bilateral,2015-08-03 15:58:00,3_8_2015 level5_100_cooling 15_58 log,7.0,8.0,1311,-60,-0.5235987755982988,L,L,1,30
13,0,1218.374,0,6,-30,100,651,9.0,6,1219.747,1,736179.679952,Aud,Bilateral,2015-08-03 15:58:00,3_8_2015 level5_100_cooling 15_58 log,8.0,8.0,1311,-30,-0.5235987755982988,L,L,1,0
31,0,1425.865,0,6,-30,100,751,9.0,7,1427.176,0,736179.682353,Aud,Bilateral,2015-08-03 15:58:00,3_8_2015 level5_100_cooling 15_58 log,7.0,8.0,1311,-60,-0.5235987755982988,L,L,1,30
72,0,1931.376,0,6,-30,100,951,9.0,8,1932.318,0,736179.6882,Aud,Bilateral,2015-08-03 15:58:00,3_8_2015 level5_100_cooling 15_58 log,8.0,8.0,1311,-90,-0.5235987755982988,L,L,1,60
57,0,1773.278,0,6,-30,100,1001,9.0,7,1774.443,0,736179.686373,Aud,Bilateral,2015-08-03 15:58:00,3_8_2015 level5_100_cooling 15_58 log,8.0,8.0,1311,-60,-0.5235987755982988,L,L,1,30
34,0,3669.037,0,6,-30,250,851,9.0,7,3669.968,0,736146.688103,Aud,Bilateral,2015-07-01 15:29:00,1_7_2015 level5_250_cooling 15_29 log,10.0,9.0,1311,-60,-0.5235987755982988,L,L,1,30
72,0,1931.376,0,6,-30,100,951,9.0,8,1932.318,0,736179.6882,Aud,Bilateral,2015-08-03 15:58:00,3_8_2015 level5_100_cooling 15_58 log,8.0,8.0,1311,-90,-0.5235987755982988,L,L,1,60
9,0,795.05,0,6,-30,250,651,9.0,8,796.234,0,736134.699939,Aud,Bilateral,2015-06-19 16:34:00,19_6_2015 level5_250_cooling 16_34 log,8.0,7.0,1311,-90,-0.5235987755982988,L,L,1,60
95,0,2202.876,0,6,-30,100,951,9.0,7,2204.779,0,736179.691353,Aud,Bilateral,2015-08-03 15:58:00,3_8_2015 level5_100_cooling 15_58 log,8.0,8.0,1311,-60,-0.5235987755982988,L,L,1,30
1,0,1042.034,0,6,-30,100,501,9.0,8,1048.827,0,736179.677975,Aud,Bilateral,2015-08-03 15:58:00,3_8_2015 level5_100_cooling 15_58 log,13.0,12.0,1311,-90,-0.5235987755982988,L,L,1,60
147,0,2776.041,0,6,-30,100,601,9.0,8,2778.254,0,736179.697991,Aud,Bilateral,2015-08-03 15:58:00,3_8_2015 level5_100_cooling 15_58 log,9.0,8.0,1311,-90,-0.5235987755982988,L,L,1,60
9,0,795.05,0,6,-30,250,651,9.0,8,796.234,0,736134.699939,Aud,Bilateral,2015-06-19 16:34:00,19_6_2015 level5_250_cooling 16_34 log,8.0,7.0,1311,-90,-0.5235987755982988,L,L,1,60
13,0,1218.374,0,6,-30,100,651,9.0,6,1219.747,1,736179.679952,Aud,Bilateral,2015-08-03 15:58:00,3_8_2015 level5_100_cooling 15_58 log,8.0,8.0,1311,-30,-0.5235987755982988,L,L,1,0
103,0,2307.626,0,6,-30,100,851,9.0,3,2308.57,0,736179.692554,Aud,Bilateral,2015-08-03 15:58:00,3_8_2015 level5_100_cooling 15_58 log,8.0,8.0,1311,60,-0.5235987755982988,L,R,0,90
93,0,2179.442,0,5,0,100,551,0.0,3,2182.79,0,736179.691099,Aud,Bilateral,2015-08-03 15:58:00,3_8_2015 level5_100_cooling 15_58 log,8.0,8.0,1311,60,0.0,,R,0,60
139,0,2687.605,0,5,0,100,501,0.0,5,2688.812,1,736179.696955,Aud,Bilateral,2015-08-03 15:58:00,3_8_2015 level5_100_cooling 15_58 log,9.0,8.0,1311,0,0.0,,,0,0
5,0,1109.999,0,5,0,100,801,0.0,3,1113.805,0,736179.678727,Aud,Bilateral,2015-08-03 15:58:00,3_8_2015 level5_100_cooling 15_58 log,10.0,10.0,1311,60,0.0,,R,0,60
60,0,1350.7,0,5,0,250,501,0.0,3,1351.953,0,736134.706371,Aud,Bilateral,2015-06-19 16:34:00,19_6_2015 level5_250_cooling 16_34 log,8.0,8.0,1311,60,0.0,,R,0,60
45,0,1414.128,0,5,0,250,551,0.0,6,1415.315,0,736147.610992,Aud,Bilateral,2015-07-02 14:16:00,2_7_2015 level5_250_cooling 14_16 log,9.0,9.0,1311,-30,0.0,,L,0,30
124,0,2531.464,1,5,0,100,1001,0.0,5,2532.371,1,736179.695145,Aud,Bilateral,2015-08-03 15:58:00,3_8_2015 level5_100_cooling 15_58 log,8.0,8.0,1311,0,0.0,,,0,0
93,0,2179.442,0,5,0,100,551,0.0,3,2182.79,0,736179.691099,Aud,Bilateral,2015-08-03 15:58:00,3_8_2015 level5_100_cooling 15_58 log,8.0,8.0,1311,60,0.0,,R,0,60
60,0,1350.7,0,5,0,250,501,0.0,3,1351.953,0,736134.706371,Aud,Bilateral,2015-06-19 16:34:00,19_6_2015 level5_250_cooling 16_34 log,8.0,8.0,1311,60,0.0,,R,0,60
27,0,1374.628,0,5,0,100,551,0.0,5,1375.784,1,736179.681759,Aud,Bilateral,2015-08-03 15:58:00,3_8_2015 level5_100_cooling 15_58 log,8.0,8.0,1311,0,0.0,,,0,0
139,0,2687.605,0,5,0,100,501,0.0,5,2688.812,1,736179.696955,Aud,Bilateral,2015-08-03 15:58:00,3_8_2015 level5_100_cooling 15_58 log,9.0,8.0,1311,0,0.0,,,0,0
124,0,2531.464,1,5,0,100,1001,0.0,5,2532.371,1,736179.695145,Aud,Bilateral,2015-08-03 15:58:00,3_8_2015 level5_100_cooling 15_58 log,8.0,8.0,1311,0,0.0,,,0,0
93,0,2179.442,0,5,0,100,551,0.0,3,2182.79,0,736179.691099,Aud,Bilateral,2015-08-03 15:58:00,3_8_2015 level5_100_cooling 15_58 log,8.0,8.0,1311,60,0.0,,R,0,60
82,0,4158.198,0,5,0,250,801,0.0,6,4159.204,0,736146.693766,Aud,Bilateral,2015-07-01 15:29:00,1_7_2015 level5_250_cooling 15_29 log,9.0,9.0,1311,-30,0.0,,L,0,30
60,0,1350.7,0,5,0,250,501,0.0,3,1351.953,0,736134.706371,Aud,Bilateral,2015-06-19 16:34:00,19_6_2015 level5_250_cooling 16_34 log,8.0,8.0,1311,60,0.0,,R,0,60
115,0,2430.456,0,5,0,100,751,0.0,5,2431.385,1,736179.693976,Aud,Bilateral,2015-08-03 15:58:00,3_8_2015 level5_100_cooling 15_58 log,8.0,8.0,1311,0,0.0,,,0,0
115,0,2430.456,0,5,0,100,751,0.0,5,2431.385,1,736179.693976,Aud,Bilateral,2015-08-03 15:58:00,3_8_2015 level5_100_cooling 15_58 log,8.0,8.0,1311,0,0.0,,,0,0
81,0,2035.705,0,5,0,100,701,0.0,2,2037.002,0,736179.689412,Aud,Bilateral,2015-08-03 15:58:00,3_8_2015 level5_100_cooling 15_58 log,8.0,8.0,1311,90,0.0,,R,0,90
93,0,2179.442,0,5,0,100,551,0.0,3,2182.79,0,736179.691099,Aud,Bilateral,2015-08-03 15:58:00,3_8_2015 level5_100_cooling 15_58 log,8.0,8.0,1311,60,0.0,,R,0,60
74,0,1947.449,0,5,0,250,651,0.0,3,1948.512,0,736133.72148,Aud,Bilateral,2015-06-18 16:46:00,18_6_2015 level5_250_cooling 16_46 log,8.0,8.0,1311,60,0.0,,R,0,60
124,0,2531.464,1,5,0,100,1001,0.0,5,2532.371,1,736179.695145,Aud,Bilateral,2015-08-03 15:58:00,3_8_2015 level5_100_cooling 15_58 log,8.0,8.0,1311,0,0.0,,,0,0
45,0,1414.128,0,5,0,250,551,0.0,6,1415.315,0,736147.610992,Aud,Bilateral,2015-07-02 14:16:00,2_7_2015 level5_250_cooling 14_16 log,9.0,9.0,1311,-30,0.0,,L,0,30
45,0,1414.128,0,5,0,250,551,0.0,6,1415.315,0,736147.610992,Aud,Bilateral,2015-07-02 14:16:00,2_7_2015 level5_250_cooling 14_16 log,9.0,9.0,1311,-30,0.0,,L,0,30
115,0,2430.456,0,5,0,100,751,0.0,5,2431.385,1,736179.693976,Aud,Bilateral,2015-08-03 15:58:00,3_8_2015 level5_100_cooling 15_58 log,8.0,8.0,1311,0,0.0,,,0,0
5,0,1109.999,0,5,0,100,801,0.0,3,1113.805,0,736179.678727,Aud,Bilateral,2015-08-03 15:58:00,3_8_2015 level5_100_cooling 15_58 log,10.0,10.0,1311,60,0.0,,R,0,60
115,0,2430.456,0,5,0,100,751,0.0,5,2431.385,1,736179.693976,Aud,Bilateral,2015-08-03 15:58:00,3_8_2015 level5_100_cooling 15_58 log,8.0,8.0,1311,0,0.0,,,0,0
81,0,2035.705,0,5,0,100,701,0.0,2,2037.002,0,736179.689412,Aud,Bilateral,2015-08-03 15:58:00,3_8_2015 level5_100_cooling 15_58 log,8.0,8.0,1311,90,0.0,,R,0,90
139,0,2687.605,0,5,0,100,501,0.0,5,2688.812,1,736179.696955,Aud,Bilateral,2015-08-03 15:58:00,3_8_2015 level5_100_cooling 15_58 log,9.0,8.0,1311,0,0.0,,,0,0
27,0,1374.628,0,5,0,100,551,0.0,5,1375.784,1,736179.681759,Aud,Bilateral,2015-08-03 15:58:00,3_8_2015 level5_100_cooling 15_58 log,8.0,8.0,1311,0,0.0,,,0,0
45,0,1643.076,0,5,0,100,551,0.0,6,1644.082,0,736179.684865,Aud,Bilateral,2015-08-03 15:58:00,3_8_2015 level5_100_cooling 15_58 log,9.0,8.0,1311,-30,0.0,,L,0,30
139,0,2687.605,0,5,0,100,501,0.0,5,2688.812,1,736179.696955,Aud,Bilateral,2015-08-03 15:58:00,3_8_2015 level5_100_cooling 15_58 log,9.0,8.0,1311,0,0.0,,,0,0
124,0,2531.464,1,5,0,100,1001,0.0,5,2532.371,1,736179.695145,Aud,Bilateral,2015-08-03 15:58:00,3_8_2015 level5_100_cooling 15_58 log,8.0,8.0,1311,0,0.0,,,0,0
74,0,1947.449,0,5,0,250,651,0.0,3,1948.512,0,736133.72148,Aud,Bilateral,2015-06-18 16:46:00,18_6_2015 level5_250_cooling 16_46 log,8.0,8.0,1311,60,0.0,,R,0,60
45,0,1414.128,0,5,0,250,551,0.0,6,1415.315,0,736147.610992,Aud,Bilateral,2015-07-02 14:16:00,2_7_2015 level5_250_cooling 14_16 log,9.0,9.0,1311,-30,0.0,,L,0,30
45,0,1643.076,0,5,0,100,551,0.0,6,1644.082,0,736179.684865,Aud,Bilateral,2015-08-03 15:58:00,3_8_2015 level5_100_cooling 15_58 log,9.0,8.0,1311,-30,0.0,,L,0,30
93,0,2179.442,0,5,0,100,551,0.0,3,2182.79,0,736179.691099,Aud,Bilateral,2015-08-03 15:58:00,3_8_2015 level5_100_cooling 15_58 log,8.0,8.0,1311,60,0.0,,R,0,60
124,0,2531.464,1,5,0,100,1001,0.0,5,2532.371,1,736179.695145,Aud,Bilateral,2015-08-03 15:58:00,3_8_2015 level5_100_cooling 15_58 log,8.0,8.0,1311,0,0.0,,,0,0
45,0,1414.128,0,5,0,250,551,0.0,6,1415.315,0,736147.610992,Aud,Bilateral,2015-07-02 14:16:00,2_7_2015 level5_250_cooling 14_16 log,9.0,9.0,1311,-30,0.0,,L,0,30
115,0,2430.456,0,5,0,100,751,0.0,5,2431.385,1,736179.693976,Aud,Bilateral,2015-08-03 15:58:00,3_8_2015 level5_100_cooling 15_58 log,8.0,8.0,1311,0,0.0,,,0,0
99,0,1860.818,0,5,0,250,751,0.0,3,1853.991,0,736134.712271,Aud,Bilateral,2015-06-19 16:34:00,19_6_2015 level5_250_cooling 16_34 log,8.0,8.0,1311,60,0.0,,R,0,60
93,0,2179.442,0,5,0,100,551,0.0,3,2182.79,0,736179.691099,Aud,Bilateral,2015-08-03 15:58:00,3_8_2015 level5_100_cooling 15_58 log,8.0,8.0,1311,60,0.0,,R,0,60
115,0,2430.456,0,5,0,100,751,0.0,5,2431.385,1,736179.693976,Aud,Bilateral,2015-08-03 15:58:00,3_8_2015 level5_100_cooling 15_58 log,8.0,8.0,1311,0,0.0,,,0,0
115,0,2430.456,0,5,0,100,751,0.0,5,2431.385,1,736179.693976,Aud,Bilateral,2015-08-03 15:58:00,3_8_2015 level5_100_cooling 15_58 log,8.0,8.0,1311,0,0.0,,,0,0
45,0,1414.128,0,5,0,250,551,0.0,6,1415.315,0,736147.610992,Aud,Bilateral,2015-07-02 14:16:00,2_7_2015 level5_250_cooling 14_16 log,9.0,9.0,1311,-30,0.0,,L,0,30
45,0,1414.128,0,5,0,250,551,0.0,6,1415.315,0,736147.610992,Aud,Bilateral,2015-07-02 14:16:00,2_7_2015 level5_250_cooling 14_16 log,9.0,9.0,1311,-30,0.0,,L,0,30
25,0,3581.369,0,5,0,250,901,4.5,4,3582.333,0,736146.687089,Aud,Bilateral,2015-07-01 15:29:00,1_7_2015 level5_250_cooling 15_29 log,10.0,9.0,1311,30,0.0,,R,0,30
115,0,2285.554,1,5,0,250,901,4.5,4,2286.209,0,736147.621074,Aud,Bilateral,2015-07-02 14:16:00,2_7_2015 level5_250_cooling 14_16 log,10.0,10.0,1311,30,0.0,,R,0,30
25,0,3581.369,0,5,0,250,901,4.5,4,3582.333,0,736146.687089,Aud,Bilateral,2015-07-01 15:29:00,1_7_2015 level5_250_cooling 15_29 log,10.0,9.0,1311,30,0.0,,R,0,30
25,0,3581.369,0,5,0,250,901,4.5,4,3582.333,0,736146.687089,Aud,Bilateral,2015-07-01 15:29:00,1_7_2015 level5_250_cooling 15_29 log,10.0,9.0,1311,30,0.0,,R,0,30
107,0,4397.701,0,5,0,250,501,4.5,6,4398.536,0,736146.696535,Aud,Bilateral,2015-07-01 15:29:00,1_7_2015 level5_250_cooling 15_29 log,9.0,9.0,1311,-30,0.0,,L,0,30
30,0,1414.294,0,5,0,100,951,4.5,5,1415.269,1,736179.682215,Aud,Bilateral,2015-08-03 15:58:00,3_8_2015 level5_100_cooling 15_58 log,7.0,8.0,1311,0,0.0,,,0,0
38,0,1495.593,0,5,0,100,551,4.5,5,1496.532,1,736179.683156,Aud,Bilateral,2015-08-03 15:58:00,3_8_2015 level5_100_cooling 15_58 log,8.0,8.0,1311,0,0.0,,,0,0
3,0,1215.425,0,5,0,250,501,4.5,8,1216.98,0,736133.713013,Aud,Bilateral,2015-06-18 16:46:00,18_6_2015 level5_250_cooling 16_46 log,9.0,9.0,1311,-90,0.0,,L,0,90
74,0,1949.271,0,5,0,100,1001,4.5,5,1950.32,1,736179.688409,Aud,Bilateral,2015-08-03 15:58:00,3_8_2015 level5_100_cooling 15_58 log,8.0,8.0,1311,0,0.0,,,0,0
31,0,1237.801,0,5,0,250,751,4.5,3,1238.807,0,736147.608949,Aud,Bilateral,2015-07-02 14:16:00,2_7_2015 level5_250_cooling 14_16 log,10.0,9.0,1311,60,0.0,,R,0,60
74,0,1949.271,0,5,0,100,1001,4.5,5,1950.32,1,736179.688409,Aud,Bilateral,2015-08-03 15:58:00,3_8_2015 level5_100_cooling 15_58 log,8.0,8.0,1311,0,0.0,,,0,0
54,0,1293.404,0,5,0,250,501,4.5,8,1294.482,0,736134.705707,Aud,Bilateral,2015-06-19 16:34:00,19_6_2015 level5_250_cooling 16_34 log,8.0,8.0,1311,-90,0.0,,L,0,90
54,0,1293.404,0,5,0,250,501,4.5,8,1294.482,0,736134.705707,Aud,Bilateral,2015-06-19 16:34:00,19_6_2015 level5_250_cooling 16_34 log,8.0,8.0,1311,-90,0.0,,L,0,90
115,0,2285.554,1,5,0,250,901,4.5,4,2286.209,0,736147.621074,Aud,Bilateral,2015-07-02 14:16:00,2_7_2015 level5_250_cooling 14_16 log,10.0,10.0,1311,30,0.0,,R,0,30
25,0,3581.369,0,5,0,250,901,4.5,4,3582.333,0,736146.687089,Aud,Bilateral,2015-07-01 15:29:00,1_7_2015 level5_250_cooling 15_29 log,10.0,9.0,1311,30,0.0,,R,0,30
25,0,3581.369,0,5,0,250,901,4.5,4,3582.333,0,736146.687089,Aud,Bilateral,2015-07-01 15:29:00,1_7_2015 level5_250_cooling 15_29 log,10.0,9.0,1311,30,0.0,,R,0,30
3,0,1215.425,0,5,0,250,501,4.5,8,1216.98,0,736133.713013,Aud,Bilateral,2015-06-18 16:46:00,18_6_2015 level5_250_cooling 16_46 log,9.0,9.0,1311,-90,0.0,,L,0,90
27,0,1194.24,0,5,0,250,1001,4.5,4,1195.125,0,736147.608443,Aud,Bilateral,2015-07-02 14:16:00,2_7_2015 level5_250_cooling 14_16 log,9.0,9.0,1311,30,0.0,,R,0,30
115,0,2285.554,1,5,0,250,901,4.5,4,2286.209,0,736147.621074,Aud,Bilateral,2015-07-02 14:16:00,2_7_2015 level5_250_cooling 14_16 log,10.0,10.0,1311,30,0.0,,R,0,30
54,0,1293.404,0,5,0,250,501,4.5,8,1294.482,0,736134.705707,Aud,Bilateral,2015-06-19 16:34:00,19_6_2015 level5_250_cooling 16_34 log,8.0,8.0,1311,-90,0.0,,L,0,90
38,0,1495.593,0,5,0,100,551,4.5,5,1496.532,1,736179.683156,Aud,Bilateral,2015-08-03 15:58:00,3_8_2015 level5_100_cooling 15_58 log,8.0,8.0,1311,0,0.0,,,0,0
30,0,1414.294,0,5,0,100,951,4.5,5,1415.269,1,736179.682215,Aud,Bilateral,2015-08-03 15:58:00,3_8_2015 level5_100_cooling 15_58 log,7.0,8.0,1311,0,0.0,,,0,0
74,0,1949.271,0,5,0,100,1001,4.5,5,1950.32,1,736179.688409,Aud,Bilateral,2015-08-03 15:58:00,3_8_2015 level5_100_cooling 15_58 log,8.0,8.0,1311,0,0.0,,,0,0
38,0,1495.593,0,5,0,100,551,4.5,5,1496.532,1,736179.683156,Aud,Bilateral,2015-08-03 15:58:00,3_8_2015 level5_100_cooling 15_58 log,8.0,8.0,1311,0,0.0,,,0,0
107,0,4397.701,0,5,0,250,501,4.5,6,4398.536,0,736146.696535,Aud,Bilateral,2015-07-01 15:29:00,1_7_2015 level5_250_cooling 15_29 log,9.0,9.0,1311,-30,0.0,,L,0,30
93,0,2059.306,0,5,0,250,951,4.5,4,2060.243,0,736147.618457,Aud,Bilateral,2015-07-02 14:16:00,2_7_2015 level5_250_cooling 14_16 log,9.0,9.0,1311,30,0.0,,R,0,30
96,0,2097.379,0,5,0,250,601,4.5,4,2098.375,0,736147.618897,Aud,Bilateral,2015-07-02 14:16:00,2_7_2015 level5_250_cooling 14_16 log,9.0,9.0,1311,30,0.0,,R,0,30
67,0,1877.455,0,5,0,100,651,4.5,6,1878.33,0,736179.687576,Aud,Bilateral,2015-08-03 15:58:00,3_8_2015 level5_100_cooling 15_58 log,8.0,8.0,1311,-30,0.0,,L,0,30
3,0,1215.425,0,5,0,250,501,4.5,8,1216.98,0,736133.713013,Aud,Bilateral,2015-06-18 16:46:00,18_6_2015 level5_250_cooling 16_46 log,9.0,9.0,1311,-90,0.0,,L,0,90
30,0,1414.294,0,5,0,100,951,4.5,5,1415.269,1,736179.682215,Aud,Bilateral,2015-08-03 15:58:00,3_8_2015 level5_100_cooling 15_58 log,7.0,8.0,1311,0,0.0,,,0,0
3,0,1215.425,0,5,0,250,501,4.5,8,1216.98,0,736133.713013,Aud,Bilateral,2015-06-18 16:46:00,18_6_2015 level5_250_cooling 16_46 log,9.0,9.0,1311,-90,0.0,,L,0,90
93,0,2059.306,0,5,0,250,951,4.5,4,2060.243,0,736147.618457,Aud,Bilateral,2015-07-02 14:16:00,2_7_2015 level5_250_cooling 14_16 log,9.0,9.0,1311,30,0.0,,R,0,30
107,0,4397.701,0,5,0,250,501,4.5,6,4398.536,0,736146.696535,Aud,Bilateral,2015-07-01 15:29:00,1_7_2015 level5_250_cooling 15_29 log,9.0,9.0,1311,-30,0.0,,L,0,30
38,0,1495.593,0,5,0,100,551,4.5,5,1496.532,1,736179.683156,Aud,Bilateral,2015-08-03 15:58:00,3_8_2015 level5_100_cooling 15_58 log,8.0,8.0,1311,0,0.0,,,0,0
31,0,1237.801,0,5,0,250,751,4.5,3,1238.807,0,736147.608949,Aud,Bilateral,2015-07-02 14:16:00,2_7_2015 level5_250_cooling 14_16 log,10.0,9.0,1311,60,0.0,,R,0,60
93,0,2059.306,0,5,0,250,951,4.5,4,2060.243,0,736147.618457,Aud,Bilateral,2015-07-02 14:16:00,2_7_2015 level5_250_cooling 14_16 log,9.0,9.0,1311,30,0.0,,R,0,30
25,0,3581.369,0,5,0,250,901,4.5,4,3582.333,0,736146.687089,Aud,Bilateral,2015-07-01 15:29:00,1_7_2015 level5_250_cooling 15_29 log,10.0,9.0,1311,30,0.0,,R,0,30
25,0,3581.369,0,5,0,250,901,4.5,4,3582.333,0,736146.687089,Aud,Bilateral,2015-07-01 15:29:00,1_7_2015 level5_250_cooling 15_29 log,10.0,9.0,1311,30,0.0,,R,0,30
30,0,1414.294,0,5,0,100,951,4.5,5,1415.269,1,736179.682215,Aud,Bilateral,2015-08-03 15:58:00,3_8_2015 level5_100_cooling 15_58 log,7.0,8.0,1311,0,0.0,,,0,0
25,0,3581.369,0,5,0,250,901,4.5,4,3582.333,0,736146.687089,Aud,Bilateral,2015-07-01 15:29:00,1_7_2015 level5_250_cooling 15_29 log,10.0,9.0,1311,30,0.0,,R,0,30
93,0,2059.306,0,5,0,250,951,4.5,4,2060.243,0,736147.618457,Aud,Bilateral,2015-07-02 14:16:00,2_7_2015 level5_250_cooling 14_16 log,9.0,9.0,1311,30,0.0,,R,0,30
115,0,2285.554,1,5,0,250,901,4.5,4,2286.209,0,736147.621074,Aud,Bilateral,2015-07-02 14:16:00,2_7_2015 level5_250_cooling 14_16 log,10.0,10.0,1311,30,0.0,,R,0,30
2,0,1069.459,0,5,0,100,601,4.5,8,1070.945,0,736179.67823,Aud,Bilateral,2015-08-03 15:58:00,3_8_2015 level5_100_cooling 15_58 log,12.0,12.0,1311,-90,0.0,,L,0,90
74,0,1949.271,0,5,0,100,1001,4.5,5,1950.32,1,736179.688409,Aud,Bilateral,2015-08-03 15:58:00,3_8_2015 level5_100_cooling 15_58 log,8.0,8.0,1311,0,0.0,,,0,0
62,0,1828.84,0,5,0,100,701,9.0,3,1829.723,0,736179.687012,Aud,Bilateral,2015-08-03 15:58:00,3_8_2015 level5_100_cooling 15_58 log,8.0,8.0,1311,60,0.0,,R,0,60
25,0,966.034,0,5,0,250,551,9.0,3,970.982,0,736134.701962,Aud,Bilateral,2015-06-19 16:34:00,19_6_2015 level5_250_cooling 16_34 log,8.0,8.0,1311,60,0.0,,R,0,60
84,0,1961.938,0,5,0,250,751,9.0,7,1963.534,0,736147.617337,Aud,Bilateral,2015-07-02 14:16:00,2_7_2015 level5_250_cooling 14_16 log,9.0,9.0,1311,-60,0.0,,L,0,60
106,0,2336.037,0,5,0,100,601,9.0,2,2337.393,0,736179.692888,Aud,Bilateral,2015-08-03 15:58:00,3_8_2015 level5_100_cooling 15_58 log,8.0,8.0,1311,90,0.0,,R,0,90
146,0,2589.597,0,5,0,250,501,9.0,6,2590.572,0,736147.624594,Aud,Bilateral,2015-07-02 14:16:00,2_7_2015 level5_250_cooling 14_16 log,9.0,9.0,1311,-30,0.0,,L,0,30
94,0,2189.208,0,5,0,100,1001,9.0,5,2192.837,1,736179.691216,Aud,Bilateral,2015-08-03 15:58:00,3_8_2015 level5_100_cooling 15_58 log,8.0,8.0,1311,0,0.0,,,0,0
23,0,1331.388,0,5,0,100,1001,9.0,2,1332.618,0,736179.681259,Aud,Bilateral,2015-08-03 15:58:00,3_8_2015 level5_100_cooling 15_58 log,8.0,8.0,1311,90,0.0,,R,0,90
133,0,2623.816,0,5,0,100,701,9.0,5,2624.823,1,736179.696215,Aud,Bilateral,2015-08-03 15:58:00,3_8_2015 level5_100_cooling 15_58 log,9.0,8.0,1311,0,0.0,,,0,0
23,0,1331.388,0,5,0,100,1001,9.0,2,1332.618,0,736179.681259,Aud,Bilateral,2015-08-03 15:58:00,3_8_2015 level5_100_cooling 15_58 log,8.0,8.0,1311,90,0.0,,R,0,90
25,0,966.034,0,5,0,250,551,9.0,3,970.982,0,736134.701962,Aud,Bilateral,2015-06-19 16:34:00,19_6_2015 level5_250_cooling 16_34 log,8.0,8.0,1311,60,0.0,,R,0,60
84,0,1961.938,0,5,0,250,751,9.0,7,1963.534,0,736147.617337,Aud,Bilateral,2015-07-02 14:16:00,2_7_2015 level5_250_cooling 14_16 log,9.0,9.0,1311,-60,0.0,,L,0,60
100,0,2264.211,0,5,0,100,601,9.0,2,2265.405,0,736179.692055,Aud,Bilateral,2015-08-03 15:58:00,3_8_2015 level5_100_cooling 15_58 log,8.0,8.0,1311,90,0.0,,R,0,90
84,0,1961.938,0,5,0,250,751,9.0,7,1963.534,0,736147.617337,Aud,Bilateral,2015-07-02 14:16:00,2_7_2015 level5_250_cooling 14_16 log,9.0,9.0,1311,-60,0.0,,L,0,60
20,0,1400.577,0,5,0,250,501,9.0,8,1401.797,0,736133.715152,Aud,Bilateral,2015-06-18 16:46:00,18_6_2015 level5_250_cooling 16_46 log,8.0,8.0,1311,-90,0.0,,L,0,90
84,0,1961.938,0,5,0,250,751,9.0,7,1963.534,0,736147.617337,Aud,Bilateral,2015-07-02 14:16:00,2_7_2015 level5_250_cooling 14_16 log,9.0,9.0,1311,-60,0.0,,L,0,60
25,0,966.034,0,5,0,250,551,9.0,3,970.982,0,736134.701962,Aud,Bilateral,2015-06-19 16:34:00,19_6_2015 level5_250_cooling 16_34 log,8.0,8.0,1311,60,0.0,,R,0,60
52,0,1717.931,0,5,0,100,601,9.0,3,1719.109,0,736179.685733,Aud,Bilateral,2015-08-03 15:58:00,3_8_2015 level5_100_cooling 15_58 log,8.0,8.0,1311,60,0.0,,R,0,60
84,0,1961.938,0,5,0,250,751,9.0,7,1963.534,0,736147.617337,Aud,Bilateral,2015-07-02 14:16:00,2_7_2015 level5_250_cooling 14_16 log,9.0,9.0,1311,-60,0.0,,L,0,60
25,0,966.034,0,5,0,250,551,9.0,3,970.982,0,736134.701962,Aud,Bilateral,2015-06-19 16:34:00,19_6_2015 level5_250_cooling 16_34 log,8.0,8.0,1311,60,0.0,,R,0,60
100,0,2264.211,0,5,0,100,601,9.0,2,2265.405,0,736179.692055,Aud,Bilateral,2015-08-03 15:58:00,3_8_2015 level5_100_cooling 15_58 log,8.0,8.0,1311,90,0.0,,R,0,90
51,0,1256.451,1,5,0,250,751,9.0,8,1257.427,0,736134.705277,Aud,Bilateral,2015-06-19 16:34:00,19_6_2015 level5_250_cooling 16_34 log,8.0,8.0,1311,-90,0.0,,L,0,90
106,0,2336.037,0,5,0,100,601,9.0,2,2337.393,0,736179.692888,Aud,Bilateral,2015-08-03 15:58:00,3_8_2015 level5_100_cooling 15_58 log,8.0,8.0,1311,90,0.0,,R,0,90
84,0,1961.938,0,5,0,250,751,9.0,7,1963.534,0,736147.617337,Aud,Bilateral,2015-07-02 14:16:00,2_7_2015 level5_250_cooling 14_16 log,9.0,9.0,1311,-60,0.0,,L,0,60
51,0,1256.451,1,5,0,250,751,9.0,8,1257.427,0,736134.705277,Aud,Bilateral,2015-06-19 16:34:00,19_6_2015 level5_250_cooling 16_34 log,8.0,8.0,1311,-90,0.0,,L,0,90
25,0,966.034,0,5,0,250,551,9.0,3,970.982,0,736134.701962,Aud,Bilateral,2015-06-19 16:34:00,19_6_2015 level5_250_cooling 16_34 log,8.0,8.0,1311,60,0.0,,R,0,60
51,0,1256.451,1,5,0,250,751,9.0,8,1257.427,0,736134.705277,Aud,Bilateral,2015-06-19 16:34:00,19_6_2015 level5_250_cooling 16_34 log,8.0,8.0,1311,-90,0.0,,L,0,90
62,0,1828.84,0,5,0,100,701,9.0,3,1829.723,0,736179.687012,Aud,Bilateral,2015-08-03 15:58:00,3_8_2015 level5_100_cooling 15_58 log,8.0,8.0,1311,60,0.0,,R,0,60
106,0,2336.037,0,5,0,100,601,9.0,2,2337.393,0,736179.692888,Aud,Bilateral,2015-08-03 15:58:00,3_8_2015 level5_100_cooling 15_58 log,8.0,8.0,1311,90,0.0,,R,0,90
100,0,2264.211,0,5,0,100,601,9.0,2,2265.405,0,736179.692055,Aud,Bilateral,2015-08-03 15:58:00,3_8_2015 level5_100_cooling 15_58 log,8.0,8.0,1311,90,0.0,,R,0,90
84,0,1961.938,0,5,0,250,751,9.0,7,1963.534,0,736147.617337,Aud,Bilateral,2015-07-02 14:16:00,2_7_2015 level5_250_cooling 14_16 log,9.0,9.0,1311,-60,0.0,,L,0,60
52,0,1717.931,0,5,0,100,601,9.0,3,1719.109,0,736179.685733,Aud,Bilateral,2015-08-03 15:58:00,3_8_2015 level5_100_cooling 15_58 log,8.0,8.0,1311,60,0.0,,R,0,60
76,0,4094.974,0,5,0,250,901,9.0,5,4096.622,1,736146.693041,Aud,Bilateral,2015-07-01 15:29:00,1_7_2015 level5_250_cooling 15_29 log,9.0,9.0,1311,0,0.0,,,0,0
106,0,2336.037,0,5,0,100,601,9.0,2,2337.393,0,736179.692888,Aud,Bilateral,2015-08-03 15:58:00,3_8_2015 level5_100_cooling 15_58 log,8.0,8.0,1311,90,0.0,,R,0,90
76,0,4094.974,0,5,0,250,901,9.0,5,4096.622,1,736146.693041,Aud,Bilateral,2015-07-01 15:29:00,1_7_2015 level5_250_cooling 15_29 log,9.0,9.0,1311,0,0.0,,,0,0
133,0,2623.816,0,5,0,100,701,9.0,5,2624.823,1,736179.696215,Aud,Bilateral,2015-08-03 15:58:00,3_8_2015 level5_100_cooling 15_58 log,9.0,8.0,1311,0,0.0,,,0,0
52,0,1717.931,0,5,0,100,601,9.0,3,1719.109,0,736179.685733,Aud,Bilateral,2015-08-03 15:58:00,3_8_2015 level5_100_cooling 15_58 log,8.0,8.0,1311,60,0.0,,R,0,60
100,0,2264.211,0,5,0,100,601,9.0,2,2265.405,0,736179.692055,Aud,Bilateral,2015-08-03 15:58:00,3_8_2015 level5_100_cooling 15_58 log,8.0,8.0,1311,90,0.0,,R,0,90
52,0,1717.931,0,5,0,100,601,9.0,3,1719.109,0,736179.685733,Aud,Bilateral,2015-08-03 15:58:00,3_8_2015 level5_100_cooling 15_58 log,8.0,8.0,1311,60,0.0,,R,0,60
25,0,966.034,0,5,0,250,551,9.0,3,970.982,0,736134.701962,Aud,Bilateral,2015-06-19 16:34:00,19_6_2015 level5_250_cooling 16_34 log,8.0,8.0,1311,60,0.0,,R,0,60
133,0,2623.816,0,5,0,100,701,9.0,5,2624.823,1,736179.696215,Aud,Bilateral,2015-08-03 15:58:00,3_8_2015 level5_100_cooling 15_58 log,9.0,8.0,1311,0,0.0,,,0,0
62,0,1828.84,0,5,0,100,701,9.0,3,1829.723,0,736179.687012,Aud,Bilateral,2015-08-03 15:58:00,3_8_2015 level5_100_cooling 15_58 log,8.0,8.0,1311,60,0.0,,R,0,60
23,0,1331.388,0,5,0,100,1001,9.0,2,1332.618,0,736179.681259,Aud,Bilateral,2015-08-03 15:58:00,3_8_2015 level5_100_cooling 15_58 log,8.0,8.0,1311,90,0.0,,R,0,90
23,0,1331.388,0,5,0,100,1001,9.0,2,1332.618,0,736179.681259,Aud,Bilateral,2015-08-03 15:58:00,3_8_2015 level5_100_cooling 15_58 log,8.0,8.0,1311,90,0.0,,R,0,90
25,0,966.034,0,5,0,250,551,9.0,3,970.982,0,736134.701962,Aud,Bilateral,2015-06-19 16:34:00,19_6_2015 level5_250_cooling 16_34 log,8.0,8.0,1311,60,0.0,,R,0,60
118,0,2469.923,0,4,30,100,901,0.0,3,2470.741,0,736179.694432,Aud,Bilateral,2015-08-03 15:58:00,3_8_2015 level5_100_cooling 15_58 log,8.0,8.0,1311,60,0.5235987755982988,R,R,1,30
51,0,1732.933,1,4,30,250,551,0.0,4,1733.811,1,736133.718995,Aud,Bilateral,2015-06-18 16:46:00,18_6_2015 level5_250_cooling 16_46 log,8.0,8.0,1311,30,0.5235987755982988,R,R,1,0
39,0,1571.815,0,4,30,100,801,0.0,8,1573.148,0,736179.684043,Aud,Bilateral,2015-08-03 15:58:00,3_8_2015 level5_100_cooling 15_58 log,8.0,8.0,1311,-90,0.5235987755982988,R,L,0,120
51,0,1732.933,1,4,30,250,551,0.0,4,1733.811,1,736133.718995,Aud,Bilateral,2015-06-18 16:46:00,18_6_2015 level5_250_cooling 16_46 log,8.0,8.0,1311,30,0.5235987755982988,R,R,1,0
78,0,4117.568,0,4,30,250,851,0.0,4,4118.262,1,736146.693294,Aud,Bilateral,2015-07-01 15:29:00,1_7_2015 level5_250_cooling 15_29 log,9.0,9.0,1311,30,0.5235987755982988,R,R,1,0
85,0,2082.003,0,4,30,100,651,0.0,2,2088.521,0,736179.690008,Aud,Bilateral,2015-08-03 15:58:00,3_8_2015 level5_100_cooling 15_58 log,8.0,8.0,1311,90,0.5235987755982988,R,R,1,60
118,0,2469.923,0,4,30,100,901,0.0,3,2470.741,0,736179.694432,Aud,Bilateral,2015-08-03 15:58:00,3_8_2015 level5_100_cooling 15_58 log,8.0,8.0,1311,60,0.5235987755982988,R,R,1,30
78,0,4117.568,0,4,30,250,851,0.0,4,4118.262,1,736146.693294,Aud,Bilateral,2015-07-01 15:29:00,1_7_2015 level5_250_cooling 15_29 log,9.0,9.0,1311,30,0.5235987755982988,R,R,1,0
122,0,2356.457,0,4,30,250,851,0.0,4,2357.182,1,736147.621895,Aud,Bilateral,2015-07-02 14:16:00,2_7_2015 level5_250_cooling 14_16 log,10.0,10.0,1311,30,0.5235987755982988,R,R,1,0
122,0,2356.457,0,4,30,250,851,0.0,4,2357.182,1,736147.621895,Aud,Bilateral,2015-07-02 14:16:00,2_7_2015 level5_250_cooling 14_16 log,10.0,10.0,1311,30,0.5235987755982988,R,R,1,0
85,0,2082.003,0,4,30,100,651,0.0,2,2088.521,0,736179.690008,Aud,Bilateral,2015-08-03 15:58:00,3_8_2015 level5_100_cooling 15_58 log,8.0,8.0,1311,90,0.5235987755982988,R,R,1,60
35,0,1282.662,0,4,30,250,851,0.0,4,1283.276,1,736147.609467,Aud,Bilateral,2015-07-02 14:16:00,2_7_2015 level5_250_cooling 14_16 log,9.0,9.0,1311,30,0.5235987755982988,R,R,1,0
39,0,1571.815,0,4,30,100,801,0.0,8,1573.148,0,736179.684043,Aud,Bilateral,2015-08-03 15:58:00,3_8_2015 level5_100_cooling 15_58 log,8.0,8.0,1311,-90,0.5235987755982988,R,L,0,120
37,0,1486.465,0,4,30,100,951,0.0,2,1487.174,0,736179.683049,Aud,Bilateral,2015-08-03 15:58:00,3_8_2015 level5_100_cooling 15_58 log,8.0,8.0,1311,90,0.5235987755982988,R,R,1,60
20,0,1288.003,0,4,30,100,701,0.0,3,1288.781,0,736179.680753,Aud,Bilateral,2015-08-03 15:58:00,3_8_2015 level5_100_cooling 15_58 log,8.0,8.0,1311,60,0.5235987755982988,R,R,1,30
85,0,2082.003,0,4,30,100,651,0.0,2,2088.521,0,736179.690008,Aud,Bilateral,2015-08-03 15:58:00,3_8_2015 level5_100_cooling 15_58 log,8.0,8.0,1311,90,0.5235987755982988,R,R,1,60
78,0,4117.568,0,4,30,250,851,0.0,4,4118.262,1,736146.693294,Aud,Bilateral,2015-07-01 15:29:00,1_7_2015 level5_250_cooling 15_29 log,9.0,9.0,1311,30,0.5235987755982988,R,R,1,0
119,0,2478.352,0,4,30,100,1001,0.0,2,2479.021,0,736179.694529,Aud,Bilateral,2015-08-03 15:58:00,3_8_2015 level5_100_cooling 15_58 log,8.0,8.0,1311,90,0.5235987755982988,R,R,1,60
118,0,2469.923,0,4,30,100,901,0.0,3,2470.741,0,736179.694432,Aud,Bilateral,2015-08-03 15:58:00,3_8_2015 level5_100_cooling 15_58 log,8.0,8.0,1311,60,0.5235987755982988,R,R,1,30
119,0,2478.352,0,4,30,100,1001,0.0,2,2479.021,0,736179.694529,Aud,Bilateral,2015-08-03 15:58:00,3_8_2015 level5_100_cooling 15_58 log,8.0,8.0,1311,90,0.5235987755982988,R,R,1,60
20,0,1288.003,0,4,30,100,701,0.0,3,1288.781,0,736179.680753,Aud,Bilateral,2015-08-03 15:58:00,3_8_2015 level5_100_cooling 15_58 log,8.0,8.0,1311,60,0.5235987755982988,R,R,1,30
85,0,2082.003,0,4,30,100,651,0.0,2,2088.521,0,736179.690008,Aud,Bilateral,2015-08-03 15:58:00,3_8_2015 level5_100_cooling 15_58 log,8.0,8.0,1311,90,0.5235987755982988,R,R,1,60
118,0,2469.923,0,4,30,100,901,0.0,3,2470.741,0,736179.694432,Aud,Bilateral,2015-08-03 15:58:00,3_8_2015 level5_100_cooling 15_58 log,8.0,8.0,1311,60,0.5235987755982988,R,R,1,30
118,0,2469.923,0,4,30,100,901,0.0,3,2470.741,0,736179.694432,Aud,Bilateral,2015-08-03 15:58:00,3_8_2015 level5_100_cooling 15_58 log,8.0,8.0,1311,60,0.5235987755982988,R,R,1,30
85,0,2082.003,0,4,30,100,651,0.0,2,2088.521,0,736179.690008,Aud,Bilateral,2015-08-03 15:58:00,3_8_2015 level5_100_cooling 15_58 log,8.0,8.0,1311,90,0.5235987755982988,R,R,1,60
118,0,2469.923,0,4,30,100,901,0.0,3,2470.741,0,736179.694432,Aud,Bilateral,2015-08-03 15:58:00,3_8_2015 level5_100_cooling 15_58 log,8.0,8.0,1311,60,0.5235987755982988,R,R,1,30
119,0,2478.352,0,4,30,100,1001,0.0,2,2479.021,0,736179.694529,Aud,Bilateral,2015-08-03 15:58:00,3_8_2015 level5_100_cooling 15_58 log,8.0,8.0,1311,90,0.5235987755982988,R,R,1,60
104,0,2317.472,0,4,30,100,551,0.0,4,2318.805,1,736179.692673,Aud,Bilateral,2015-08-03 15:58:00,3_8_2015 level5_100_cooling 15_58 log,8.0,8.0,1311,30,0.5235987755982988,R,R,1,0
85,0,2082.003,0,4,30,100,651,0.0,2,2088.521,0,736179.690008,Aud,Bilateral,2015-08-03 15:58:00,3_8_2015 level5_100_cooling 15_58 log,8.0,8.0,1311,90,0.5235987755982988,R,R,1,60
35,0,1282.662,0,4,30,250,851,0.0,4,1283.276,1,736147.609467,Aud,Bilateral,2015-07-02 14:16:00,2_7_2015 level5_250_cooling 14_16 log,9.0,9.0,1311,30,0.5235987755982988,R,R,1,0
122,0,2356.457,0,4,30,250,851,0.0,4,2357.182,1,736147.621895,Aud,Bilateral,2015-07-02 14:16:00,2_7_2015 level5_250_cooling 14_16 log,10.0,10.0,1311,30,0.5235987755982988,R,R,1,0
35,0,1282.662,0,4,30,250,851,0.0,4,1283.276,1,736147.609467,Aud,Bilateral,2015-07-02 14:16:00,2_7_2015 level5_250_cooling 14_16 log,9.0,9.0,1311,30,0.5235987755982988,R,R,1,0
119,0,2478.352,0,4,30,100,1001,0.0,2,2479.021,0,736179.694529,Aud,Bilateral,2015-08-03 15:58:00,3_8_2015 level5_100_cooling 15_58 log,8.0,8.0,1311,90,0.5235987755982988,R,R,1,60
122,0,2356.457,0,4,30,250,851,0.0,4,2357.182,1,736147.621895,Aud,Bilateral,2015-07-02 14:16:00,2_7_2015 level5_250_cooling 14_16 log,10.0,10.0,1311,30,0.5235987755982988,R,R,1,0
118,0,2469.923,0,4,30,100,901,0.0,3,2470.741,0,736179.694432,Aud,Bilateral,2015-08-03 15:58:00,3_8_2015 level5_100_cooling 15_58 log,8.0,8.0,1311,60,0.5235987755982988,R,R,1,30
119,0,2478.352,0,4,30,100,1001,0.0,2,2479.021,0,736179.694529,Aud,Bilateral,2015-08-03 15:58:00,3_8_2015 level5_100_cooling 15_58 log,8.0,8.0,1311,90,0.5235987755982988,R,R,1,60
78,0,4117.568,0,4,30,250,851,0.0,4,4118.262,1,736146.693294,Aud,Bilateral,2015-07-01 15:29:00,1_7_2015 level5_250_cooling 15_29 log,9.0,9.0,1311,30,0.5235987755982988,R,R,1,0
119,0,2478.352,0,4,30,100,1001,0.0,2,2479.021,0,736179.694529,Aud,Bilateral,2015-08-03 15:58:00,3_8_2015 level5_100_cooling 15_58 log,8.0,8.0,1311,90,0.5235987755982988,R,R,1,60
78,0,4117.568,0,4,30,250,851,0.0,4,4118.262,1,736146.693294,Aud,Bilateral,2015-07-01 15:29:00,1_7_2015 level5_250_cooling 15_29 log,9.0,9.0,1311,30,0.5235987755982988,R,R,1,0
35,0,1282.662,0,4,30,250,851,0.0,4,1283.276,1,736147.609467,Aud,Bilateral,2015-07-02 14:16:00,2_7_2015 level5_250_cooling 14_16 log,9.0,9.0,1311,30,0.5235987755982988,R,R,1,0
20,0,1288.003,0,4,30,100,701,0.0,3,1288.781,0,736179.680753,Aud,Bilateral,2015-08-03 15:58:00,3_8_2015 level5_100_cooling 15_58 log,8.0,8.0,1311,60,0.5235987755982988,R,R,1,30
20,0,1288.003,0,4,30,100,701,0.0,3,1288.781,0,736179.680753,Aud,Bilateral,2015-08-03 15:58:00,3_8_2015 level5_100_cooling 15_58 log,8.0,8.0,1311,60,0.5235987755982988,R,R,1,30
39,0,1571.815,0,4,30,100,801,0.0,8,1573.148,0,736179.684043,Aud,Bilateral,2015-08-03 15:58:00,3_8_2015 level5_100_cooling 15_58 log,8.0,8.0,1311,-90,0.5235987755982988,R,L,0,120
35,0,1282.662,0,4,30,250,851,0.0,4,1283.276,1,736147.609467,Aud,Bilateral,2015-07-02 14:16:00,2_7_2015 level5_250_cooling 14_16 log,9.0,9.0,1311,30,0.5235987755982988,R,R,1,0
4,0,1094.908,0,4,30,100,901,4.5,5,1100.093,0,736179.678568,Aud,Bilateral,2015-08-03 15:58:00,3_8_2015 level5_100_cooling 15_58 log,11.0,11.0,1311,0,0.5235987755982988,R,,0,30
