Condition,originalFile,Trial,CorrectionTrial,StartTime,CenterReward,SpkrIdx,SpkrPos,duration,HoldTime,Atten,Response,RespTime,Correct,ComputerTime,Modality,SessionDate,LeftTemperature,RightTemperature,fNum,ResponseAngle,Spkr_Rad,spkr_hemifield,resp_hemifield,LatCorrect,Error
Bilateral,19_10_2016 level15_700_Robin 9_56 Bilateral14_t15-54,49,0,1109.132,0,8,-90,700,1041,0.0,8,1110.478,1,736622.427058,Aud,2016-10-19 09:56:00,,,1509,-90,-1.5707963267948966,L,L,1,0
Bilateral,18_10_2016 level15_700_Robin 9_56 Bilateral_T0,17,0,374.348,0,8,-90,700,1081,0.0,8,376.035,1,736621.418696,Aud,2016-10-18 09:56:00,7.8,7.8,1509,-90,-1.5707963267948966,L,L,1,0
Bilateral,18_10_2016 level15_700_Robin 9_56 Bilateral_T0,35,0,625.565,1,8,-90,700,1081,0.0,8,630.475,1,736621.421641,Aud,2016-10-18 09:56:00,7.5,7.2,1509,-90,-1.5707963267948966,L,L,1,0
Bilateral,21_10_2016 level15_700_Robin 9_16 Bilateral_T8,22,0,1154.347,1,8,-90,700,1101,0.0,3,1160.23,0,736624.400207,Aud,2016-10-21 09:16:00,9.5,11.0,1509,60,-1.5707963267948966,L,R,0,150
Bilateral,19_10_2016 level15_700_Robin 14_57 Bilateral6-14_Control14-end,6,0,1961.303,0,8,-90,700,1081,0.0,8,1964.678,1,736622.646074,Aud,2016-10-19 14:57:00,10.9,6.6,1509,-90,-1.5707963267948966,L,L,1,0
Bilateral,18_10_2016 level15_700_Robin 9_56 Bilateral_T0,35,0,625.565,1,8,-90,700,1081,0.0,8,630.475,1,736621.421641,Aud,2016-10-18 09:56:00,7.5,7.2,1509,-90,-1.5707963267948966,L,L,1,0
Bilateral,19_10_2016 level15_700_Robin 9_56 Bilateral14_t15-54,49,0,1109.132,0,8,-90,700,1041,0.0,8,1110.478,1,736622.427058,Aud,2016-10-19 09:56:00,,,1509,-90,-1.5707963267948966,L,L,1,0
Bilateral,18_10_2016 level15_700_Robin 9_56 Bilateral_T0,35,0,625.565,1,8,-90,700,1081,0.0,8,630.475,1,736621.421641,Aud,2016-10-18 09:56:00,7.5,7.2,1509,-90,-1.5707963267948966,L,L,1,0
Bilateral,18_10_2016 level15_700_Robin 9_56 Bilateral_T0,35,0,625.565,1,8,-90,700,1081,0.0,8,630.475,1,736621.421641,Aud,2016-10-18 09:56:00,7.5,7.2,1509,-90,-1.5707963267948966,L,L,1,0
Bilateral,21_10_2016 level15_700_Robin 9_16 Bilateral_T8,41,0,1386.087,0,8,-90,700,1101,4.5,7,1387.951,0,736624.402842,Aud,2016-10-21 09:16:00,9.0,7.5,1509,-60,-1.5707963267948966,L,L,1,30
Bilateral,18_10_2016 level15_700_Robin 9_56 Bilateral_T0,67,0,1157.727,0,8,-90,700,1061,4.5,8,1159.189,1,736621.42776,Aud,2016-10-18 09:56:00,7.2,6.5,1509,-90,-1.5707963267948966,L,L,1,0
Bilateral,21_10_2016 level15_700_Robin 9_16 Bilateral_T8,56,0,1571.146,1,8,-90,700,1021,4.5,2,1577.872,0,736624.40504,Aud,2016-10-21 09:16:00,8.2,7.2,1509,90,-1.5707963267948966,L,R,0,180
Bilateral,21_10_2016 level15_700_Robin 9_16 Bilateral_T8,77,0,1881.489,0,8,-90,700,1001,4.5,8,1885.059,1,736624.408596,Aud,2016-10-21 09:16:00,7.2,7.9,1509,-90,-1.5707963267948966,L,L,1,0
Bilateral,19_10_2016 level15_700_Robin 9_56 Bilateral14_t15-54,28,0,785.456,0,8,-90,700,1061,4.5,3,791.831,0,736622.42337,Aud,2016-10-19 09:56:00,13.6,10.5,1509,60,-1.5707963267948966,L,R,0,150
Bilateral,21_10_2016 level15_700_Robin 9_16 Bilateral_T8,56,0,1571.146,1,8,-90,700,1021,4.5,2,1577.872,0,736624.40504,Aud,2016-10-21 09:16:00,8.2,7.2,1509,90,-1.5707963267948966,L,R,0,180
Bilateral,21_10_2016 level15_700_Robin 9_16 Bilateral_T8,56,0,1571.146,1,8,-90,700,1021,4.5,2,1577.872,0,736624.40504,Aud,2016-10-21 09:16:00,8.2,7.2,1509,90,-1.5707963267948966,L,R,0,180
Bilateral,21_10_2016 level15_700_Robin 9_16 Bilateral_T8,56,0,1571.146,1,8,-90,700,1021,4.5,2,1577.872,0,736624.40504,Aud,2016-10-21 09:16:00,8.2,7.2,1509,90,-1.5707963267948966,L,R,0,180
Bilateral,21_10_2016 level15_700_Robin 9_16 Bilateral_T8,56,0,1571.146,1,8,-90,700,1021,4.5,2,1577.872,0,736624.40504,Aud,2016-10-21 09:16:00,8.2,7.2,1509,90,-1.5707963267948966,L,R,0,180
Bilateral,19_10_2016 level15_700_Robin 9_56 Bilateral14_t15-54,40,0,1003.139,0,8,-90,700,1121,9.0,8,1004.128,1,736622.425828,Aud,2016-10-19 09:56:00,,,1509,-90,-1.5707963267948966,L,L,1,0
Bilateral,21_10_2016 level15_700_Robin 9_16 Bilateral_T8,28,0,1221.047,0,8,-90,700,1001,9.0,8,1222.62,1,736624.400928,Aud,2016-10-21 09:16:00,9.0,7.5,1509,-90,-1.5707963267948966,L,L,1,0
Bilateral,21_10_2016 level15_700_Robin 9_16 Bilateral_T8,73,0,1799.599,0,8,-90,700,1141,9.0,8,1800.959,1,736624.407622,Aud,2016-10-21 09:16:00,7.2,7.9,1509,-90,-1.5707963267948966,L,L,1,0
Bilateral,18_10_2016 level15_700_Robin 9_56 Bilateral_T0,36,0,643.366,0,8,-90,700,1201,9.0,6,644.763,0,736621.421807,Aud,2016-10-18 09:56:00,7.5,7.2,1509,-30,-1.5707963267948966,L,L,1,60
Bilateral,21_10_2016 level15_700_Robin 9_16 Bilateral_T8,28,0,1221.047,0,8,-90,700,1001,9.0,8,1222.62,1,736624.400928,Aud,2016-10-21 09:16:00,9.0,7.5,1509,-90,-1.5707963267948966,L,L,1,0
Bilateral,18_10_2016 level15_700_Robin 9_56 Bilateral_T0,36,0,643.366,0,8,-90,700,1201,9.0,6,644.763,0,736621.421807,Aud,2016-10-18 09:56:00,7.5,7.2,1509,-30,-1.5707963267948966,L,L,1,60
Bilateral,13_10_2016 level15_700_Robin 8_40 Bilateral_T25,41,0,1180.093,1,8,-90,700,1141,9.0,2,1192.084,0,736616.374975,Aud,2016-10-13 08:40:00,,,1509,90,-1.5707963267948966,L,R,0,180
Bilateral,13_10_2016 level15_700_Robin 8_40 Bilateral_T25,41,0,1180.093,1,8,-90,700,1141,9.0,2,1192.084,0,736616.374975,Aud,2016-10-13 08:40:00,,,1509,90,-1.5707963267948966,L,R,0,180
Bilateral,18_10_2016 level15_700_Robin 9_56 Bilateral_T0,7,0,228.556,0,8,-90,700,1161,9.0,2,240.585,0,736621.417128,Aud,2016-10-18 09:56:00,11.0,11.0,1509,90,-1.5707963267948966,L,R,0,180
Bilateral,21_10_2016 level15_700_Robin 9_16 Bilateral_T8,61,0,1645.328,0,7,-60,700,1081,0.0,8,1646.699,0,736624.405837,Aud,2016-10-21 09:16:00,8.2,7.2,1509,-90,-1.0471975511965976,L,L,1,30
Bilateral,18_10_2016 level15_700_Robin 9_56 Bilateral_T0,43,0,725.255,0,7,-60,700,1101,0.0,3,729.708,0,736621.422789,Aud,2016-10-18 09:56:00,7.2,6.5,1509,60,-1.0471975511965976,L,R,0,120
Bilateral,18_10_2016 level15_700_Robin 9_56 Bilateral_T0,11,0,296.627,1,7,-60,700,1101,0.0,6,300.89,0,736621.417826,Aud,2016-10-18 09:56:00,7.8,7.8,1509,-30,-1.0471975511965976,L,L,1,30
Bilateral,13_10_2016 level15_700_Robin 8_40 Bilateral_T25,54,0,1501.143,0,7,-60,700,1001,0.0,2,1510.495,0,736616.37866,Aud,2016-10-13 08:40:00,,,1509,90,-1.0471975511965976,L,R,0,150
Bilateral,21_10_2016 level15_700_Robin 9_16 Bilateral_T8,61,0,1645.328,0,7,-60,700,1081,0.0,8,1646.699,0,736624.405837,Aud,2016-10-21 09:16:00,8.2,7.2,1509,-90,-1.0471975511965976,L,L,1,30
Bilateral,13_10_2016 level15_700_Robin 8_40 Bilateral_T25,54,0,1501.143,0,7,-60,700,1001,0.0,2,1510.495,0,736616.37866,Aud,2016-10-13 08:40:00,,,1509,90,-1.0471975511965976,L,R,0,150
Bilateral,18_10_2016 level15_700_Robin 9_56 Bilateral_T0,11,0,296.627,1,7,-60,700,1101,0.0,6,300.89,0,736621.417826,Aud,2016-10-18 09:56:00,7.8,7.8,1509,-30,-1.0471975511965976,L,L,1,30
Bilateral,13_10_2016 level15_700_Robin 8_40 Bilateral_T25,35,0,1028.542,0,7,-60,700,1121,0.0,7,1029.995,1,736616.373099,Aud,2016-10-13 08:40:00,,,1509,-60,-1.0471975511965976,L,L,1,0
Bilateral,21_10_2016 level15_700_Robin 9_16 Bilateral_T8,61,0,1645.328,0,7,-60,700,1081,0.0,8,1646.699,0,736624.405837,Aud,2016-10-21 09:16:00,8.2,7.2,1509,-90,-1.0471975511965976,L,L,1,30
Bilateral,21_10_2016 level15_700_Robin 9_16 Bilateral_T8,29,0,1235.593,0,7,-60,700,1161,4.5,7,1237.409,1,736624.401099,Aud,2016-10-21 09:16:00,9.0,7.5,1509,-60,-1.0471975511965976,L,L,1,0
Bilateral,21_10_2016 level15_700_Robin 9_16 Bilateral_T8,79,0,1916.395,0,7,-60,700,1201,4.5,7,1918.556,1,736624.408984,Aud,2016-10-21 09:16:00,7.2,7.9,1509,-60,-1.0471975511965976,L,L,1,0
Bilateral,18_10_2016 level15_700_Robin 9_56 Bilateral_T0,46,0,819.77,0,7,-60,700,1021,4.5,4,826.291,0,736621.423907,Aud,2016-10-18 09:56:00,7.2,6.5,1509,30,-1.0471975511965976,L,R,0,90
Bilateral,21_10_2016 level15_700_Robin 9_16 Bilateral_T8,79,0,1916.395,0,7,-60,700,1201,4.5,7,1918.556,1,736624.408984,Aud,2016-10-21 09:16:00,7.2,7.9,1509,-60,-1.0471975511965976,L,L,1,0
Bilateral,18_10_2016 level15_700_Robin 9_56 Bilateral_T0,78,0,1352.329,0,7,-60,700,1081,4.5,2,1354.309,0,736621.430018,Aud,2016-10-18 09:56:00,7.7,7.2,1509,90,-1.0471975511965976,L,R,0,150
Bilateral,21_10_2016 level15_700_Robin 9_16 Bilateral_T8,79,0,1916.395,0,7,-60,700,1201,4.5,7,1918.556,1,736624.408984,Aud,2016-10-21 09:16:00,7.2,7.9,1509,-60,-1.0471975511965976,L,L,1,0
Bilateral,21_10_2016 level15_700_Robin 9_16 Bilateral_T8,79,0,1916.395,0,7,-60,700,1201,4.5,7,1918.556,1,736624.408984,Aud,2016-10-21 09:16:00,7.2,7.9,1509,-60,-1.0471975511965976,L,L,1,0
Bilateral,21_10_2016 level15_700_Robin 9_16 Bilateral_T8,29,0,1235.593,0,7,-60,700,1161,4.5,7,1237.409,1,736624.401099,Aud,2016-10-21 09:16:00,9.0,7.5,1509,-60,-1.0471975511965976,L,L,1,0
Bilateral,18_10_2016 level15_700_Robin 9_56 Bilateral_T0,78,0,1352.329,0,7,-60,700,1081,4.5,2,1354.309,0,736621.430018,Aud,2016-10-18 09:56:00,7.7,7.2,1509,90,-1.0471975511965976,L,R,0,150
Bilateral,18_10_2016 level15_700_Robin 9_56 Bilateral_T0,62,0,1007.893,0,7,-60,700,1081,9.0,6,1010.462,0,736621.426039,Aud,2016-10-18 09:56:00,7.2,6.5,1509,-30,-1.0471975511965976,L,L,1,30
Bilateral,18_10_2016 level15_700_Robin 9_56 Bilateral_T0,62,0,1007.893,0,7,-60,700,1081,9.0,6,1010.462,0,736621.426039,Aud,2016-10-18 09:56:00,7.2,6.5,1509,-30,-1.0471975511965976,L,L,1,30
Bilateral,18_10_2016 level15_700_Robin 9_56 Bilateral_T0,26,0,459.039,0,7,-60,700,1201,9.0,8,463.891,0,736621.419713,Aud,2016-10-18 09:56:00,7.8,7.8,1509,-90,-1.0471975511965976,L,L,1,30
Bilateral,18_10_2016 level15_700_Robin 14_33 Bilateral_T0,18,0,1834.247,0,7,-60,700,1021,9.0,3,1837.207,0,736621.62764,Aud,2016-10-18 14:33:00,7.5,7.4,1509,60,-1.0471975511965976,L,R,0,120
Bilateral,18_10_2016 level15_700_Robin 14_33 Bilateral_T0,18,0,1834.247,0,7,-60,700,1021,9.0,3,1837.207,0,736621.62764,Aud,2016-10-18 14:33:00,7.5,7.4,1509,60,-1.0471975511965976,L,R,0,120
Bilateral,19_10_2016 level15_700_Robin 9_56 Bilateral14_t15-54,42,0,1032.293,0,7,-60,700,1021,9.0,6,1033.695,0,736622.42617,Aud,2016-10-19 09:56:00,,,1509,-30,-1.0471975511965976,L,L,1,30
Bilateral,18_10_2016 level15_700_Robin 14_33 Bilateral_T0,18,0,1834.247,0,7,-60,700,1021,9.0,3,1837.207,0,736621.62764,Aud,2016-10-18 14:33:00,7.5,7.4,1509,60,-1.0471975511965976,L,R,0,120
Bilateral,19_10_2016 level15_700_Robin 9_56 Bilateral14_t15-54,42,0,1032.293,0,7,-60,700,1021,9.0,6,1033.695,0,736622.42617,Aud,2016-10-19 09:56:00,,,1509,-30,-1.0471975511965976,L,L,1,30
Bilateral,18_10_2016 level15_700_Robin 9_56 Bilateral_T0,26,0,459.039,0,7,-60,700,1201,9.0,8,463.891,0,736621.419713,Aud,2016-10-18 09:56:00,7.8,7.8,1509,-90,-1.0471975511965976,L,L,1,30
Bilateral,13_10_2016 level15_700_Robin 8_40 Bilateral_T25,43,0,1219.753,0,6,-30,700,1161,0.0,8,1230.751,0,736616.375423,Aud,2016-10-13 08:40:00,,,1509,-90,-0.5235987755982988,L,L,1,60
Bilateral,19_10_2016 level15_700_Robin 14_57 Bilateral6-14_Control14-end,10,0,2036.374,0,6,-30,700,1181,0.0,8,2046.652,0,736622.647023,Aud,2016-10-19 14:57:00,10.1,6.2,1509,-90,-0.5235987755982988,L,L,1,60
Bilateral,18_10_2016 level15_700_Robin 9_56 Bilateral_T0,30,0,533.069,0,6,-30,700,1161,0.0,3,540.19,0,736621.420596,Aud,2016-10-18 09:56:00,7.5,7.2,1509,60,-0.5235987755982988,L,R,0,90
Bilateral,19_10_2016 level15_700_Robin 14_57 Bilateral6-14_Control14-end,10,0,2036.374,0,6,-30,700,1181,0.0,8,2046.652,0,736622.647023,Aud,2016-10-19 14:57:00,10.1,6.2,1509,-90,-0.5235987755982988,L,L,1,60
Bilateral,13_10_2016 level15_700_Robin 8_40 Bilateral_T25,25,0,884.878,0,6,-30,700,1001,0.0,3,895.423,0,736616.371542,Aud,2016-10-13 08:40:00,8.9,11.0,1509,60,-0.5235987755982988,L,R,0,90
Bilateral,13_10_2016 level15_700_Robin 8_40 Bilateral_T25,25,0,884.878,0,6,-30,700,1001,0.0,3,895.423,0,736616.371542,Aud,2016-10-13 08:40:00,8.9,11.0,1509,60,-0.5235987755982988,L,R,0,90
Bilateral,19_10_2016 level15_700_Robin 14_57 Bilateral6-14_Control14-end,10,0,2036.374,0,6,-30,700,1181,0.0,8,2046.652,0,736622.647023,Aud,2016-10-19 14:57:00,10.1,6.2,1509,-90,-0.5235987755982988,L,L,1,60
Bilateral,19_10_2016 level15_700_Robin 9_56 Bilateral14_t15-54,36,0,930.115,0,6,-30,700,1101,0.0,8,932.912,0,736622.425003,Aud,2016-10-19 09:56:00,12.9,9.2,1509,-90,-0.5235987755982988,L,L,1,60
Bilateral,18_10_2016 level15_700_Robin 9_56 Bilateral_T0,79,0,1370.567,0,6,-30,700,1201,0.0,3,1378.585,0,736621.430299,Aud,2016-10-18 09:56:00,7.7,7.2,1509,60,-0.5235987755982988,L,R,0,90
Bilateral,21_10_2016 level15_700_Robin 9_16 Bilateral_T8,74,0,1816.303,0,6,-30,700,1121,4.5,8,1818.529,0,736624.407826,Aud,2016-10-21 09:16:00,7.2,7.9,1509,-90,-0.5235987755982988,L,L,1,60
Bilateral,21_10_2016 level15_700_Robin 9_16 Bilateral_T8,74,0,1816.303,0,6,-30,700,1121,4.5,8,1818.529,0,736624.407826,Aud,2016-10-21 09:16:00,7.2,7.9,1509,-90,-0.5235987755982988,L,L,1,60
Bilateral,21_10_2016 level15_700_Robin 9_16 Bilateral_T8,16,0,1083.264,0,6,-30,700,1041,4.5,7,1084.723,0,736624.399333,Aud,2016-10-21 09:16:00,9.5,11.0,1509,-60,-0.5235987755982988,L,L,1,30
Bilateral,21_10_2016 level15_700_Robin 9_16 Bilateral_T8,74,0,1816.303,0,6,-30,700,1121,4.5,8,1818.529,0,736624.407826,Aud,2016-10-21 09:16:00,7.2,7.9,1509,-90,-0.5235987755982988,L,L,1,60
Bilateral,21_10_2016 level15_700_Robin 9_16 Bilateral_T8,16,0,1083.264,0,6,-30,700,1041,4.5,7,1084.723,0,736624.399333,Aud,2016-10-21 09:16:00,9.5,11.0,1509,-60,-0.5235987755982988,L,L,1,30
Bilateral,18_10_2016 level15_700_Robin 9_56 Bilateral_T0,51,0,902.134,0,6,-30,700,1141,4.5,6,904.262,1,736621.424809,Aud,2016-10-18 09:56:00,7.2,6.5,1509,-30,-0.5235987755982988,L,L,1,0
Bilateral,18_10_2016 level15_700_Robin 9_56 Bilateral_T0,51,0,902.134,0,6,-30,700,1141,4.5,6,904.262,1,736621.424809,Aud,2016-10-18 09:56:00,7.2,6.5,1509,-30,-0.5235987755982988,L,L,1,0
Bilateral,21_10_2016 level15_700_Robin 9_16 Bilateral_T8,74,0,1816.303,0,6,-30,700,1121,4.5,8,1818.529,0,736624.407826,Aud,2016-10-21 09:16:00,7.2,7.9,1509,-90,-0.5235987755982988,L,L,1,60
Bilateral,21_10_2016 level15_700_Robin 9_16 Bilateral_T8,74,0,1816.303,0,6,-30,700,1121,4.5,8,1818.529,0,736624.407826,Aud,2016-10-21 09:16:00,7.2,7.9,1509,-90,-0.5235987755982988,L,L,1,60
Bilateral,21_10_2016 level15_700_Robin 9_16 Bilateral_T8,43,0,1405.949,1,6,-30,700,1061,9.0,8,1410.82,0,736624.403106,Aud,2016-10-21 09:16:00,9.0,7.5,1509,-90,-0.5235987755982988,L,L,1,60
Bilateral,21_10_2016 level15_700_Robin 9_16 Bilateral_T8,43,0,1405.949,1,6,-30,700,1061,9.0,8,1410.82,0,736624.403106,Aud,2016-10-21 09:16:00,9.0,7.5,1509,-90,-0.5235987755982988,L,L,1,60
Bilateral,18_10_2016 level15_700_Robin 9_56 Bilateral_T0,18,0,388.663,0,6,-30,700,1141,9.0,6,390.352,1,736621.418862,Aud,2016-10-18 09:56:00,7.8,7.8,1509,-30,-0.5235987755982988,L,L,1,0
Bilateral,21_10_2016 level15_700_Robin 9_16 Bilateral_T8,94,0,2098.99,0,6,-30,700,1181,9.0,2,2103.868,0,736624.411128,Aud,2016-10-21 09:16:00,,,1509,90,-0.5235987755982988,L,R,0,120
Bilateral,18_10_2016 level15_700_Robin 9_56 Bilateral_T0,18,0,388.663,0,6,-30,700,1141,9.0,6,390.352,1,736621.418862,Aud,2016-10-18 09:56:00,7.8,7.8,1509,-30,-0.5235987755982988,L,L,1,0
Bilateral,18_10_2016 level15_700_Robin 9_56 Bilateral_T0,50,0,890.614,0,6,-30,700,1161,9.0,6,892.326,1,736621.424671,Aud,2016-10-18 09:56:00,7.2,6.5,1509,-30,-0.5235987755982988,L,L,1,0
Bilateral,18_10_2016 level15_700_Robin 14_33 Bilateral_T0,10,0,1473.784,1,6,-30,700,1001,9.0,3,1477.913,0,736621.623481,Aud,2016-10-18 14:33:00,8.5,10.3,1509,60,-0.5235987755982988,L,R,0,90
Bilateral,18_10_2016 level15_700_Robin 14_33 Bilateral_T0,10,0,1473.784,1,6,-30,700,1001,9.0,3,1477.913,0,736621.623481,Aud,2016-10-18 14:33:00,8.5,10.3,1509,60,-0.5235987755982988,L,R,0,90
Bilateral,21_10_2016 level15_700_Robin 9_16 Bilateral_T8,94,0,2098.99,0,6,-30,700,1181,9.0,2,2103.868,0,736624.411128,Aud,2016-10-21 09:16:00,,,1509,90,-0.5235987755982988,L,R,0,120
Bilateral,21_10_2016 level15_700_Robin 9_16 Bilateral_T8,37,0,1339.301,0,4,30,700,1201,0.0,3,1340.846,0,736624.402297,Aud,2016-10-21 09:16:00,9.0,7.5,1509,60,0.5235987755982988,R,R,1,30
Bilateral,19_10_2016 level15_700_Robin 9_56 Bilateral14_t15-54,41,0,1016.807,0,4,30,700,1081,0.0,4,1017.987,1,736622.425988,Aud,2016-10-19 09:56:00,,,1509,30,0.5235987755982988,R,R,1,0
Bilateral,21_10_2016 level15_700_Robin 9_16 Bilateral_T8,37,0,1339.301,0,4,30,700,1201,0.0,3,1340.846,0,736624.402297,Aud,2016-10-21 09:16:00,9.0,7.5,1509,60,0.5235987755982988,R,R,1,30
Bilateral,19_10_2016 level15_700_Robin 9_56 Bilateral14_t15-54,41,0,1016.807,0,4,30,700,1081,0.0,4,1017.987,1,736622.425988,Aud,2016-10-19 09:56:00,,,1509,30,0.5235987755982988,R,R,1,0
Bilateral,21_10_2016 level15_700_Robin 9_16 Bilateral_T8,37,0,1339.301,0,4,30,700,1201,0.0,3,1340.846,0,736624.402297,Aud,2016-10-21 09:16:00,9.0,7.5,1509,60,0.5235987755982988,R,R,1,30
Bilateral,19_10_2016 level15_700_Robin 9_56 Bilateral14_t15-54,41,0,1016.807,0,4,30,700,1081,0.0,4,1017.987,1,736622.425988,Aud,2016-10-19 09:56:00,,,1509,30,0.5235987755982988,R,R,1,0
Bilateral,21_10_2016 level15_700_Robin 9_16 Bilateral_T8,37,0,1339.301,0,4,30,700,1201,0.0,3,1340.846,0,736624.402297,Aud,2016-10-21 09:16:00,9.0,7.5,1509,60,0.5235987755982988,R,R,1,30
Bilateral,18_10_2016 level15_700_Robin 9_56 Bilateral_T0,32,0,593.191,0,4,30,700,1081,0.0,4,595.268,1,736621.421233,Aud,2016-10-18 09:56:00,7.5,7.2,1509,30,0.5235987755982988,R,R,1,0
Bilateral,21_10_2016 level15_700_Robin 9_16 Bilateral_T8,37,0,1339.301,0,4,30,700,1201,0.0,3,1340.846,0,736624.402297,Aud,2016-10-21 09:16:00,9.0,7.5,1509,60,0.5235987755982988,R,R,1,30
Bilateral,18_10_2016 level15_700_Robin 9_56 Bilateral_T0,68,0,1167.596,0,4,30,700,1041,4.5,4,1168.877,1,736621.427873,Aud,2016-10-18 09:56:00,7.2,6.5,1509,30,0.5235987755982988,R,R,1,0
Bilateral,21_10_2016 level15_700_Robin 9_16 Bilateral_T8,34,0,1299.127,0,4,30,700,1041,4.5,4,1300.887,1,736624.401834,Aud,2016-10-21 09:16:00,9.0,7.5,1509,30,0.5235987755982988,R,R,1,0
Bilateral,18_10_2016 level15_700_Robin 9_56 Bilateral_T0,72,0,1222.467,0,4,30,700,1061,4.5,6,1223.887,0,736621.428509,Aud,2016-10-18 09:56:00,7.7,7.2,1509,-30,0.5235987755982988,R,L,0,60
Bilateral,18_10_2016 level15_700_Robin 14_33 Bilateral_T0,21,0,1990.914,0,4,30,700,1121,4.5,2,1996.87,0,736621.629487,Aud,2016-10-18 14:33:00,7.5,7.4,1509,90,0.5235987755982988,R,R,1,60
Bilateral,21_10_2016 level15_700_Robin 9_16 Bilateral_T8,64,0,1704.657,0,4,30,700,1061,4.5,8,1707.04,0,736624.406535,Aud,2016-10-21 09:16:00,8.2,7.2,1509,-90,0.5235987755982988,R,L,0,120
Bilateral,18_10_2016 level15_700_Robin 9_56 Bilateral_T0,49,0,875.816,0,4,30,700,1181,4.5,4,877.058,1,736621.424494,Aud,2016-10-18 09:56:00,7.2,6.5,1509,30,0.5235987755982988,R,R,1,0
Bilateral,18_10_2016 level15_700_Robin 14_33 Bilateral_T0,21,0,1990.914,0,4,30,700,1121,4.5,2,1996.87,0,736621.629487,Aud,2016-10-18 14:33:00,7.5,7.4,1509,90,0.5235987755982988,R,R,1,60
Bilateral,18_10_2016 level15_700_Robin 9_56 Bilateral_T0,68,0,1167.596,0,4,30,700,1041,4.5,4,1168.877,1,736621.427873,Aud,2016-10-18 09:56:00,7.2,6.5,1509,30,0.5235987755982988,R,R,1,0
Bilateral,18_10_2016 level15_700_Robin 9_56 Bilateral_T0,72,0,1222.467,0,4,30,700,1061,4.5,6,1223.887,0,736621.428509,Aud,2016-10-18 09:56:00,7.7,7.2,1509,-30,0.5235987755982988,R,L,0,60
Bilateral,18_10_2016 level15_700_Robin 9_56 Bilateral_T0,55,0,939.993,0,4,30,700,1201,9.0,4,941.235,1,736621.425237,Aud,2016-10-18 09:56:00,7.2,6.5,1509,30,0.5235987755982988,R,R,1,0
Bilateral,21_10_2016 level15_700_Robin 9_16 Bilateral_T8,36,0,1324.299,0,4,30,700,1161,9.0,4,1325.747,1,736624.402122,Aud,2016-10-21 09:16:00,9.0,7.5,1509,30,0.5235987755982988,R,R,1,0
Bilateral,18_10_2016 level15_700_Robin 9_56 Bilateral_T0,4,0,168.626,0,4,30,700,1001,9.0,4,170.797,1,736621.416321,Aud,2016-10-18 09:56:00,11.0,11.0,1509,30,0.5235987755982988,R,R,1,0
Bilateral,18_10_2016 level15_700_Robin 9_56 Bilateral_T0,14,0,333.704,0,4,30,700,1121,9.0,3,338.509,0,736621.418261,Aud,2016-10-18 09:56:00,7.8,7.8,1509,60,0.5235987755982988,R,R,1,30
Bilateral,18_10_2016 level15_700_Robin 9_56 Bilateral_T0,4,0,168.626,0,4,30,700,1001,9.0,4,170.797,1,736621.416321,Aud,2016-10-18 09:56:00,11.0,11.0,1509,30,0.5235987755982988,R,R,1,0
Bilateral,18_10_2016 level15_700_Robin 9_56 Bilateral_T0,4,0,168.626,0,4,30,700,1001,9.0,4,170.797,1,736621.416321,Aud,2016-10-18 09:56:00,11.0,11.0,1509,30,0.5235987755982988,R,R,1,0
Bilateral,13_10_2016 level15_700_Robin 8_40 Bilateral_T25,52,0,1385.953,0,4,30,700,1041,9.0,3,1388.155,0,736616.377245,Aud,2016-10-13 08:40:00,,,1509,60,0.5235987755982988,R,R,1,30
Bilateral,19_10_2016 level15_700_Robin 9_56 Bilateral14_t15-54,34,0,888.696,0,4,30,700,1201,9.0,4,895.834,1,736622.424574,Aud,2016-10-19 09:56:00,12.9,9.2,1509,30,0.5235987755982988,R,R,1,0
Bilateral,21_10_2016 level15_700_Robin 9_16 Bilateral_T8,36,0,1324.299,0,4,30,700,1161,9.0,4,1325.747,1,736624.402122,Aud,2016-10-21 09:16:00,9.0,7.5,1509,30,0.5235987755982988,R,R,1,0
Bilateral,18_10_2016 level15_700_Robin 9_56 Bilateral_T0,23,0,439.354,0,3,60,700,1041,0.0,2,440.788,0,736621.419446,Aud,2016-10-18 09:56:00,7.8,7.8,1509,90,1.0471975511965976,R,R,1,30
Bilateral,18_10_2016 level15_700_Robin 14_33 Bilateral_T0,8,0,1411.944,0,3,60,700,1141,0.0,2,1423.081,0,736621.622846,Aud,2016-10-18 14:33:00,8.5,10.3,1509,90,1.0471975511965976,R,R,1,30
Bilateral,18_10_2016 level15_700_Robin 9_56 Bilateral_T0,23,0,439.354,0,3,60,700,1041,0.0,2,440.788,0,736621.419446,Aud,2016-10-18 09:56:00,7.8,7.8,1509,90,1.0471975511965976,R,R,1,30
Bilateral,18_10_2016 level15_700_Robin 9_56 Bilateral_T0,23,0,439.354,0,3,60,700,1041,0.0,2,440.788,0,736621.419446,Aud,2016-10-18 09:56:00,7.8,7.8,1509,90,1.0471975511965976,R,R,1,30
Bilateral,18_10_2016 level15_700_Robin 9_56 Bilateral_T0,23,0,439.354,0,3,60,700,1041,0.0,2,440.788,0,736621.419446,Aud,2016-10-18 09:56:00,7.8,7.8,1509,90,1.0471975511965976,R,R,1,30
Bilateral,18_10_2016 level15_700_Robin 9_56 Bilateral_T0,65,0,1135.304,0,3,60,700,1001,0.0,4,1136.892,0,736621.427502,Aud,2016-10-18 09:56:00,7.2,6.5,1509,30,1.0471975511965976,R,R,1,30
Bilateral,18_10_2016 level15_700_Robin 9_56 Bilateral_T0,5,0,189.5,0,3,60,700,1061,0.0,4,191.326,0,736621.416558,Aud,2016-10-18 09:56:00,11.0,11.0,1509,30,1.0471975511965976,R,R,1,30
Bilateral,21_10_2016 level15_700_Robin 9_16 Bilateral_T8,48,0,1465.927,0,3,60,700,1121,0.0,4,1467.581,0,736624.403764,Aud,2016-10-21 09:16:00,9.0,7.5,1509,30,1.0471975511965976,R,R,1,30
Bilateral,19_10_2016 level15_700_Robin 9_56 Bilateral14_t15-54,45,0,1070.003,0,3,60,700,1141,0.0,3,1071.332,1,736622.426606,Aud,2016-10-19 09:56:00,,,1509,60,1.0471975511965976,R,R,1,0
Bilateral,13_10_2016 level15_700_Robin 15_5 Bilateral_T10,10,0,907.763,1,3,60,700,1061,4.5,2,916.759,0,736616.671325,Aud,2016-10-13 15:05:00,11.0,11.9,1509,90,1.0471975511965976,R,R,1,30
Bilateral,21_10_2016 level15_700_Robin 9_16 Bilateral_T8,60,0,1635.079,0,3,60,700,1041,4.5,3,1637.842,1,736624.405735,Aud,2016-10-21 09:16:00,8.2,7.2,1509,60,1.0471975511965976,R,R,1,0
Bilateral,18_10_2016 level15_700_Robin 14_33 Bilateral_T0,1,0,1280.288,0,3,60,700,1201,4.5,2,1285.666,0,736621.621256,Aud,2016-10-18 14:33:00,8.5,10.3,1509,90,1.0471975511965976,R,R,1,30
Bilateral,13_10_2016 level15_700_Robin 8_40 Bilateral_T25,36,0,1038.209,0,3,60,700,1181,4.5,4,1040.037,0,736616.373215,Aud,2016-10-13 08:40:00,,,1509,30,1.0471975511965976,R,R,1,30
Bilateral,18_10_2016 level15_700_Robin 9_56 Bilateral_T0,56,0,952.289,0,3,60,700,1041,4.5,3,953.772,1,736621.425383,Aud,2016-10-18 09:56:00,7.2,6.5,1509,60,1.0471975511965976,R,R,1,0
Bilateral,13_10_2016 level15_700_Robin 15_5 Bilateral_T10,10,0,907.763,1,3,60,700,1061,4.5,2,916.759,0,736616.671325,Aud,2016-10-13 15:05:00,11.0,11.9,1509,90,1.0471975511965976,R,R,1,30
Bilateral,18_10_2016 level15_700_Robin 9_56 Bilateral_T0,56,0,952.289,0,3,60,700,1041,4.5,3,953.772,1,736621.425383,Aud,2016-10-18 09:56:00,7.2,6.5,1509,60,1.0471975511965976,R,R,1,0
Bilateral,13_10_2016 level15_700_Robin 15_5 Bilateral_T10,10,0,907.763,1,3,60,700,1061,4.5,2,916.759,0,736616.671325,Aud,2016-10-13 15:05:00,11.0,11.9,1509,90,1.0471975511965976,R,R,1,30
Bilateral,18_10_2016 level15_700_Robin 14_33 Bilateral_T0,1,0,1280.288,0,3,60,700,1201,4.5,2,1285.666,0,736621.621256,Aud,2016-10-18 14:33:00,8.5,10.3,1509,90,1.0471975511965976,R,R,1,30
Bilateral,13_10_2016 level15_700_Robin 8_40 Bilateral_T25,27,0,916.272,0,3,60,700,1101,9.0,4,917.769,0,736616.371801,Aud,2016-10-13 08:40:00,8.9,11.0,1509,30,1.0471975511965976,R,R,1,30
Bilateral,21_10_2016 level15_700_Robin 9_16 Bilateral_T8,35,0,1314.904,0,3,60,700,1081,9.0,3,1316.768,1,736624.402018,Aud,2016-10-21 09:16:00,9.0,7.5,1509,60,1.0471975511965976,R,R,1,0
Bilateral,19_10_2016 level15_700_Robin 14_57 Bilateral6-14_Control14-end,12,0,2071.615,0,3,60,700,1041,9.0,3,2074.0,1,736622.647339,Aud,2016-10-19 14:57:00,10.1,6.2,1509,60,1.0471975511965976,R,R,1,0
Bilateral,21_10_2016 level15_700_Robin 9_16 Bilateral_T8,71,0,1780.29,1,3,60,700,1101,9.0,2,1785.197,0,736624.407439,Aud,2016-10-21 09:16:00,7.2,7.9,1509,90,1.0471975511965976,R,R,1,30
Bilateral,13_10_2016 level15_700_Robin 8_40 Bilateral_T25,27,0,916.272,0,3,60,700,1101,9.0,4,917.769,0,736616.371801,Aud,2016-10-13 08:40:00,8.9,11.0,1509,30,1.0471975511965976,R,R,1,30
Bilateral,21_10_2016 level15_700_Robin 9_16 Bilateral_T8,35,0,1314.904,0,3,60,700,1081,9.0,3,1316.768,1,736624.402018,Aud,2016-10-21 09:16:00,9.0,7.5,1509,60,1.0471975511965976,R,R,1,0
Bilateral,21_10_2016 level15_700_Robin 9_16 Bilateral_T8,35,0,1314.904,0,3,60,700,1081,9.0,3,1316.768,1,736624.402018,Aud,2016-10-21 09:16:00,9.0,7.5,1509,60,1.0471975511965976,R,R,1,0
Bilateral,13_10_2016 level15_700_Robin 8_40 Bilateral_T25,27,0,916.272,0,3,60,700,1101,9.0,4,917.769,0,736616.371801,Aud,2016-10-13 08:40:00,8.9,11.0,1509,30,1.0471975511965976,R,R,1,30
Bilateral,21_10_2016 level15_700_Robin 9_16 Bilateral_T8,35,0,1314.904,0,3,60,700,1081,9.0,3,1316.768,1,736624.402018,Aud,2016-10-21 09:16:00,9.0,7.5,1509,60,1.0471975511965976,R,R,1,0
Bilateral,18_10_2016 level15_700_Robin 9_56 Bilateral_T0,52,0,912.56,0,2,90,700,1121,0.0,3,914.349,0,736621.424926,Aud,2016-10-18 09:56:00,7.2,6.5,1509,60,1.5707963267948966,R,R,1,30
Bilateral,19_10_2016 level15_700_Robin 14_57 Bilateral6-14_Control14-end,13,0,2090.493,0,2,90,700,1101,0.0,3,2092.426,0,736622.647552,Aud,2016-10-19 14:57:00,10.1,6.2,1509,60,1.5707963267948966,R,R,1,30
Bilateral,19_10_2016 level15_700_Robin 9_56 Bilateral14_t15-54,22,0,662.009,0,2,90,700,1121,0.0,3,668.803,0,736622.421946,Aud,2016-10-19 09:56:00,13.6,10.5,1509,60,1.5707963267948966,R,R,1,30
Bilateral,21_10_2016 level15_700_Robin 9_16 Bilateral_T8,47,0,1450.032,0,2,90,700,1021,0.0,2,1454.473,1,736624.403612,Aud,2016-10-21 09:16:00,9.0,7.5,1509,90,1.5707963267948966,R,R,1,0
Bilateral,18_10_2016 level15_700_Robin 9_56 Bilateral_T0,52,0,912.56,0,2,90,700,1121,0.0,3,914.349,0,736621.424926,Aud,2016-10-18 09:56:00,7.2,6.5,1509,60,1.5707963267948966,R,R,1,30
Bilateral,19_10_2016 level15_700_Robin 9_56 Bilateral14_t15-54,22,0,662.009,0,2,90,700,1121,0.0,3,668.803,0,736622.421946,Aud,2016-10-19 09:56:00,13.6,10.5,1509,60,1.5707963267948966,R,R,1,30
Bilateral,19_10_2016 level15_700_Robin 9_56 Bilateral14_t15-54,20,0,530.588,0,2,90,700,1041,0.0,3,533.425,0,736622.42038,Aud,2016-10-19 09:56:00,14.0,11.0,1509,60,1.5707963267948966,R,R,1,30
Bilateral,19_10_2016 level15_700_Robin 9_56 Bilateral14_t15-54,50,0,1197.409,0,2,90,700,1161,0.0,3,1203.115,0,736622.42813,Aud,2016-10-19 09:56:00,,,1509,60,1.5707963267948966,R,R,1,30
Bilateral,19_10_2016 level15_700_Robin 9_56 Bilateral14_t15-54,50,0,1197.409,0,2,90,700,1161,0.0,3,1203.115,0,736622.42813,Aud,2016-10-19 09:56:00,,,1509,60,1.5707963267948966,R,R,1,30
Bilateral,18_10_2016 level15_700_Robin 9_56 Bilateral_T0,33,0,610.284,0,2,90,700,1001,4.5,4,611.641,0,736621.421422,Aud,2016-10-18 09:56:00,7.5,7.2,1509,30,1.5707963267948966,R,R,1,60
Bilateral,13_10_2016 level15_700_Robin 15_5 Bilateral_T10,15,0,1135.897,0,2,90,700,1181,4.5,3,1139.268,0,736616.6739,Aud,2016-10-13 15:05:00,,,1509,60,1.5707963267948966,R,R,1,30
Bilateral,13_10_2016 level15_700_Robin 15_5 Bilateral_T10,15,0,1135.897,0,2,90,700,1181,4.5,3,1139.268,0,736616.6739,Aud,2016-10-13 15:05:00,,,1509,60,1.5707963267948966,R,R,1,30
Bilateral,18_10_2016 level15_700_Robin 9_56 Bilateral_T0,59,0,983.311,0,2,90,700,1161,4.5,4,984.426,0,736621.425737,Aud,2016-10-18 09:56:00,7.2,6.5,1509,30,1.5707963267948966,R,R,1,60
Bilateral,18_10_2016 level15_700_Robin 9_56 Bilateral_T0,59,0,983.311,0,2,90,700,1161,4.5,4,984.426,0,736621.425737,Aud,2016-10-18 09:56:00,7.2,6.5,1509,30,1.5707963267948966,R,R,1,60
Bilateral,18_10_2016 level15_700_Robin 9_56 Bilateral_T0,59,0,983.311,0,2,90,700,1161,4.5,4,984.426,0,736621.425737,Aud,2016-10-18 09:56:00,7.2,6.5,1509,30,1.5707963267948966,R,R,1,60
Bilateral,18_10_2016 level15_700_Robin 9_56 Bilateral_T0,1,0,103.589,0,2,90,700,1201,4.5,3,111.206,0,736621.415631,Aud,2016-10-18 09:56:00,11.0,11.0,1509,60,1.5707963267948966,R,R,1,30
Bilateral,13_10_2016 level15_700_Robin 15_5 Bilateral_T10,15,0,1135.897,0,2,90,700,1181,4.5,3,1139.268,0,736616.6739,Aud,2016-10-13 15:05:00,,,1509,60,1.5707963267948966,R,R,1,30
Bilateral,18_10_2016 level15_700_Robin 9_56 Bilateral_T0,38,0,662.328,0,2,90,700,1141,4.5,3,663.847,0,736621.422026,Aud,2016-10-18 09:56:00,7.5,7.2,1509,60,1.5707963267948966,R,R,1,30
Bilateral,21_10_2016 level15_700_Robin 9_16 Bilateral_T8,25,0,1193.901,0,2,90,700,1061,9.0,3,1195.982,0,736624.40062,Aud,2016-10-21 09:16:00,9.5,11.0,1509,60,1.5707963267948966,R,R,1,30
Bilateral,21_10_2016 level15_700_Robin 9_16 Bilateral_T8,78,0,1899.362,0,2,90,700,1081,9.0,2,1901.829,1,736624.408789,Aud,2016-10-21 09:16:00,7.2,7.9,1509,90,1.5707963267948966,R,R,1,0
Bilateral,21_10_2016 level15_700_Robin 9_16 Bilateral_T8,53,0,1535.934,0,2,90,700,1181,9.0,3,1537.578,0,736624.404574,Aud,2016-10-21 09:16:00,8.2,7.2,1509,60,1.5707963267948966,R,R,1,30
Bilateral,21_10_2016 level15_700_Robin 9_16 Bilateral_T8,78,0,1899.362,0,2,90,700,1081,9.0,2,1901.829,1,736624.408789,Aud,2016-10-21 09:16:00,7.2,7.9,1509,90,1.5707963267948966,R,R,1,0
Bilateral,21_10_2016 level15_700_Robin 9_16 Bilateral_T8,78,0,1899.362,0,2,90,700,1081,9.0,2,1901.829,1,736624.408789,Aud,2016-10-21 09:16:00,7.2,7.9,1509,90,1.5707963267948966,R,R,1,0
Bilateral,18_10_2016 level15_700_Robin 9_56 Bilateral_T0,69,0,1177.882,0,2,90,700,1121,9.0,3,1179.571,0,736621.427997,Aud,2016-10-18 09:56:00,7.2,6.5,1509,60,1.5707963267948966,R,R,1,30
Bilateral,21_10_2016 level15_700_Robin 9_16 Bilateral_T8,78,0,1899.362,0,2,90,700,1081,9.0,2,1901.829,1,736624.408789,Aud,2016-10-21 09:16:00,7.2,7.9,1509,90,1.5707963267948966,R,R,1,0
Bilateral,18_10_2016 level15_700_Robin 9_56 Bilateral_T0,69,0,1177.882,0,2,90,700,1121,9.0,3,1179.571,0,736621.427997,Aud,2016-10-18 09:56:00,7.2,6.5,1509,60,1.5707963267948966,R,R,1,30
Bilateral,21_10_2016 level15_700_Robin 9_16 Bilateral_T8,78,0,1899.362,0,2,90,700,1081,9.0,2,1901.829,1,736624.408789,Aud,2016-10-21 09:16:00,7.2,7.9,1509,90,1.5707963267948966,R,R,1,0
Control,26_8_2016 level15_700_Robin 14_47 log,21,0,408.812,0,8,-90,700,1041,0.0,7,410.334,0,736568.620893,Aud,2016-08-26 14:47:00,,,1509,-60,-1.5707963267948966,L,L,1,30
Control,14_9_2016 level15_700_Robin 16_3 log,40,0,532.34,0,8,-90,700,1041,0.0,8,534.003,1,736587.675039,Aud,2016-09-14 16:03:00,,,1509,-90,-1.5707963267948966,L,L,1,0
Control,17_8_2016 level15_700_Robin 9_8 log,100,0,1336.335,0,8,-90,700,1161,0.0,8,1338.038,1,736559.396433,Aud,2016-08-17 09:08:00,,,1509,-90,-1.5707963267948966,L,L,1,0
Control,26_8_2016 level15_700_Robin 10_10 log,44,0,683.1,0,8,-90,700,1061,0.0,8,684.763,1,736568.431901,Aud,2016-08-26 10:10:00,,,1509,-90,-1.5707963267948966,L,L,1,0
Control,14_9_2016 level15_700_Robin 16_3 log,40,0,532.34,0,8,-90,700,1041,0.0,8,534.003,1,736587.675039,Aud,2016-09-14 16:03:00,,,1509,-90,-1.5707963267948966,L,L,1,0
Control,29_9_2016 level15_700_Robin 9_8 log,28,0,450.198,1,8,-90,700,1101,0.0,7,458.306,0,736602.386017,Aud,2016-09-29 09:08:00,,,1509,-60,-1.5707963267948966,L,L,1,30
Control,26_10_2016 level15_700_Robin 15_2 log,9,0,136.095,0,8,-90,700,1121,0.0,8,137.316,1,736629.628615,Aud,2016-10-26 15:02:00,,,1509,-90,-1.5707963267948966,L,L,1,0
Control,26_8_2016 level15_700_Robin 10_10 log,1,0,28.662,1,8,-90,700,1141,0.0,3,42.257,0,736568.424465,Aud,2016-08-26 10:10:00,,,1509,60,-1.5707963267948966,L,R,0,150
Control,7_9_2016 level15_700_Robin 14_26 log,9,0,407.902,0,8,-90,700,1161,0.0,8,409.61,1,736580.606758,Aud,2016-09-07 14:26:00,,,1509,-90,-1.5707963267948966,L,L,1,0
Control,3_10_2016 level15_700_Robin 8_45 log,48,0,769.56,0,8,-90,700,1181,4.5,7,771.376,0,736606.373943,Aud,2016-10-03 08:45:00,,,1509,-60,-1.5707963267948966,L,L,1,30
Control,25_8_2016 level15_700_Robin 14_57 log,22,0,496.221,1,8,-90,700,1121,4.5,7,501.627,0,736567.629326,Aud,2016-08-25 14:57:00,,,1509,-60,-1.5707963267948966,L,L,1,30
Control,26_9_2016 level15_700 14_10 log,39,0,529.873,1,8,-90,700,1121,4.5,4,543.154,0,736599.59713,Aud,2016-09-26 14:10:00,,,1509,30,-1.5707963267948966,L,R,0,120
Control,10_10_2016 level15_700_Robin 9_12 log,63,0,792.045,0,8,-90,700,1101,4.5,6,793.45,0,736613.393109,Aud,2016-10-10 09:12:00,,,1509,-30,-1.5707963267948966,L,L,1,60
Control,17_10_2016 level15_700_Robin 14_20 log,1,0,90.739,0,8,-90,700,1181,4.5,8,92.198,1,736620.59851,Aud,2016-10-17 14:20:00,,,1509,-90,-1.5707963267948966,L,L,1,0
Control,14_10_2016 level15_700_Robin 15_46 log,27,0,292.541,0,8,-90,700,1201,4.5,6,293.526,0,736617.660784,Aud,2016-10-14 15:46:00,,,1509,-30,-1.5707963267948966,L,L,1,60
Control,26_8_2016 level15_700_Robin 10_10 log,58,0,844.175,0,8,-90,700,1161,4.5,8,845.826,1,736568.433765,Aud,2016-08-26 10:10:00,,,1509,-90,-1.5707963267948966,L,L,1,0
Control,26_9_2016 level15_700_Robin 14_24 log,7,0,118.839,0,8,-90,700,1181,4.5,4,127.012,0,736599.601887,Aud,2016-09-26 14:24:00,,,1509,30,-1.5707963267948966,L,R,0,120
Control,19_8_2016 level15_700_Robin 14_56 log,67,0,1015.641,0,8,-90,700,1201,4.5,8,1016.796,1,736561.634078,Aud,2016-08-19 14:56:00,,,1509,-90,-1.5707963267948966,L,L,1,0
Control,5_10_2016 level15_700_Robin 15_33 log,100,0,1253.41,0,8,-90,700,1181,9.0,6,1254.712,0,736608.662636,Aud,2016-10-05 15:33:00,,,1509,-30,-1.5707963267948966,L,L,1,60
Control,26_10_2016 level15_700_Robin 15_2 log,7,0,109.627,0,8,-90,700,1101,9.0,7,110.823,0,736629.628308,Aud,2016-10-26 15:02:00,,,1509,-60,-1.5707963267948966,L,L,1,30
Control,5_10_2016 level15_700_Robin 15_33 log,41,0,543.057,0,8,-90,700,1041,9.0,6,544.835,0,736608.654421,Aud,2016-10-05 15:33:00,,,1509,-30,-1.5707963267948966,L,L,1,60
Control,15_9_2016 level15_700_Robin 10_38 log,69,0,909.721,0,8,-90,700,1001,9.0,6,911.435,0,736588.454213,Aud,2016-09-15 10:38:00,,,1509,-30,-1.5707963267948966,L,L,1,60
Control,8_9_2016 level15_700_Robin 14_48 log,36,0,684.408,0,8,-90,700,1041,9.0,6,685.93,0,736581.624888,Aud,2016-09-08 14:48:00,,,1509,-30,-1.5707963267948966,L,L,1,60
Control,29_9_2016 level15_700_Robin 9_8 log,16,0,294.3,0,8,-90,700,1181,9.0,8,295.877,1,736602.384137,Aud,2016-09-29 09:08:00,,,1509,-90,-1.5707963267948966,L,L,1,0
Control,16_9_2016 level15_700_Robin 8_34 log,19,0,327.357,0,8,-90,700,1021,9.0,8,329.022,1,736589.360534,Aud,2016-09-16 08:34:00,,,1509,-90,-1.5707963267948966,L,L,1,0
Control,17_8_2016 level15_700_Robin 9_8 log,98,0,1304.671,0,8,-90,700,1061,9.0,7,1306.337,0,736559.396065,Aud,2016-08-17 09:08:00,,,1509,-60,-1.5707963267948966,L,L,1,30
Control,14_10_2016 level15_700_Robin 8_58 log,51,0,635.464,1,8,-90,700,1101,9.0,6,639.677,0,736617.381263,Aud,2016-10-14 08:58:00,,,1509,-30,-1.5707963267948966,L,L,1,60
Control,17_10_2016 level15_700_Robin 14_20 log,3,0,124.946,0,7,-60,700,1081,0.0,7,126.466,1,736620.598907,Aud,2016-10-17 14:20:00,,,1509,-60,-1.0471975511965976,L,L,1,0
Control,5_10_2016 level15_700_Robin 15_33 log,79,0,967.369,0,7,-60,700,1201,0.0,8,969.325,0,736608.659333,Aud,2016-10-05 15:33:00,,,1509,-90,-1.0471975511965976,L,L,1,30
Control,2_9_2016 level15_700_Robin 14_38 log,26,0,331.045,0,7,-60,700,1161,0.0,6,332.545,0,736575.614077,Aud,2016-09-02 14:38:00,,,1509,-30,-1.0471975511965976,L,L,1,30
Control,19_8_2016 level15_700_Robin 14_56 log,24,0,364.498,0,7,-60,700,1001,0.0,8,365.375,0,736561.626539,Aud,2016-08-19 14:56:00,,,1509,-90,-1.0471975511965976,L,L,1,30
Control,10_10_2016 level15_700_Robin 9_12 log,68,0,843.303,0,7,-60,700,1201,0.0,7,844.472,1,736613.393699,Aud,2016-10-10 09:12:00,,,1509,-60,-1.0471975511965976,L,L,1,0
Control,25_10_2016 level15_700_Robin 14_48 log,83,0,1206.658,0,7,-60,700,1181,0.0,6,1207.979,0,736628.63104,Aud,2016-10-25 14:48:00,,,1509,-30,-1.0471975511965976,L,L,1,30
Control,25_10_2016 level15_700_Robin 14_48 log,11,0,376.615,0,7,-60,700,1201,0.0,7,377.904,1,736628.621432,Aud,2016-10-25 14:48:00,,,1509,-60,-1.0471975511965976,L,L,1,0
Control,14_10_2016 level15_700_Robin 15_46 log,6,0,65.88,0,7,-60,700,1101,0.0,6,67.318,0,736617.658166,Aud,2016-10-14 15:46:00,,,1509,-30,-1.0471975511965976,L,L,1,30
Control,3_10_2016 level15_700_Robin 8_45 log,23,0,369.623,0,7,-60,700,1021,0.0,7,370.695,1,736606.369307,Aud,2016-10-03 08:45:00,,,1509,-60,-1.0471975511965976,L,L,1,0
Control,26_8_2016 level15_700_Robin 10_10 log,62,0,905.346,0,7,-60,700,1001,4.5,7,908.221,1,736568.434487,Aud,2016-08-26 10:10:00,,,1509,-60,-1.0471975511965976,L,L,1,0
Control,14_10_2016 level15_700_Robin 15_46 log,41,0,454.27,0,7,-60,700,1021,4.5,7,455.99,1,736617.662664,Aud,2016-10-14 15:46:00,,,1509,-60,-1.0471975511965976,L,L,1,0
Control,20_10_2016 level15_700_Robin 14_46 log,48,0,887.126,0,7,-60,700,1141,4.5,6,889.572,0,736623.626124,Aud,2016-10-20 14:46:00,,,1509,-30,-1.0471975511965976,L,L,1,30
Control,5_10_2016 level15_700_Robin 15_33 log,122,0,1501.296,1,7,-60,700,1021,4.5,7,1505.331,1,736608.665538,Aud,2016-10-05 15:33:00,,,1509,-60,-1.0471975511965976,L,L,1,0
Control,14_10_2016 level15_700_Robin 15_46 log,66,0,763.355,0,7,-60,700,1061,4.5,6,764.778,0,736617.666239,Aud,2016-10-14 15:46:00,,,1509,-30,-1.0471975511965976,L,L,1,30
Control,5_10_2016 level15_700_Robin 15_33 log,73,0,902.269,0,7,-60,700,1041,4.5,6,903.856,0,736608.658576,Aud,2016-10-05 15:33:00,,,1509,-30,-1.0471975511965976,L,L,1,30
Control,26_8_2016 level15_700_Robin 14_47 log,63,0,959.435,0,7,-60,700,1081,4.5,8,961.209,0,736568.627269,Aud,2016-08-26 14:47:00,,,1509,-90,-1.0471975511965976,L,L,1,30
Control,15_9_2016 level15_700_Robin 10_38 log,95,0,1335.899,0,7,-60,700,1201,4.5,3,1336.064,0,736588.459129,Aud,2016-09-15 10:38:00,,,1509,60,-1.0471975511965976,L,R,0,120
Control,29_9_2016 level15_700_Robin 9_8 log,14,0,261.614,0,7,-60,700,1021,4.5,6,263.466,0,736602.383762,Aud,2016-09-29 09:08:00,,,1509,-30,-1.0471975511965976,L,L,1,30
Control,12_10_2016 level15_700_Robin 14_27 log,60,0,661.832,1,7,-60,700,1121,9.0,6,666.299,0,736615.609804,Aud,2016-10-12 14:27:00,,,1509,-30,-1.0471975511965976,L,L,1,30
Control,14_10_2016 level15_700_Robin 15_46 log,64,0,738.585,1,7,-60,700,1201,9.0,7,742.676,1,736617.665983,Aud,2016-10-14 15:46:00,,,1509,-60,-1.0471975511965976,L,L,1,0
Control,2_9_2016 level15_700_Robin 14_38 log,50,0,652.481,0,7,-60,700,1181,9.0,6,654.464,0,736575.617802,Aud,2016-09-02 14:38:00,,,1509,-30,-1.0471975511965976,L,L,1,30
Control,14_10_2016 level15_700_Robin 8_58 log,22,0,307.955,0,7,-60,700,1061,9.0,6,309.673,0,736617.377443,Aud,2016-10-14 08:58:00,,,1509,-30,-1.0471975511965976,L,L,1,30
Control,26_10_2016 level15_700_Robin 15_2 log,30,0,364.278,0,7,-60,700,1141,9.0,8,369.151,0,736629.631297,Aud,2016-10-26 15:02:00,,,1509,-90,-1.0471975511965976,L,L,1,30
Control,2_9_2016 level15_700_Robin 14_38 log,67,0,865.988,0,7,-60,700,1081,9.0,6,867.284,0,736575.620266,Aud,2016-09-02 14:38:00,,,1509,-30,-1.0471975511965976,L,L,1,30
Control,8_9_2016 level15_700_Robin 14_48 log,51,0,870.924,0,7,-60,700,1201,9.0,6,871.922,0,736581.62704,Aud,2016-09-08 14:48:00,,,1509,-30,-1.0471975511965976,L,L,1,30
Control,17_10_2016 level15_700_Robin 9_25 log,31,0,420.71,0,7,-60,700,1061,9.0,3,422.858,0,736620.397828,Aud,2016-10-17 09:25:00,,,1509,60,-1.0471975511965976,L,R,0,120
Control,26_8_2016 level15_700_Robin 14_47 log,34,0,613.166,0,7,-60,700,1021,9.0,7,614.435,1,736568.623255,Aud,2016-08-26 14:47:00,,,1509,-60,-1.0471975511965976,L,L,1,0
Control,14_10_2016 level15_700_Robin 8_58 log,27,0,349.732,0,6,-30,700,1001,0.0,8,351.358,0,736617.377926,Aud,2016-10-14 08:58:00,,,1509,-90,-0.5235987755982988,L,L,1,60
Control,17_10_2016 level15_700_Robin 14_20 log,40,0,734.758,0,6,-30,700,1081,0.0,6,735.88,1,736620.60596,Aud,2016-10-17 14:20:00,,,1509,-30,-0.5235987755982988,L,L,1,0
Control,25_10_2016 level15_700_Robin 14_48 log,41,0,761.088,0,6,-30,700,1141,0.0,6,762.521,1,736628.625884,Aud,2016-10-25 14:48:00,,,1509,-30,-0.5235987755982988,L,L,1,0
Control,7_10_2016 level15_700_Robin 14_11 log,19,0,253.054,0,6,-30,700,1081,0.0,6,254.946,1,736610.594448,Aud,2016-10-07 14:11:00,,,1509,-30,-0.5235987755982988,L,L,1,0
Control,17_8_2016 level15_700_Robin 14_34 log,8,0,155.792,0,6,-30,700,1121,0.0,6,157.17,1,736559.608783,Aud,2016-08-17 14:34:00,,,1509,-30,-0.5235987755982988,L,L,1,0
Control,25_10_2016 level15_700_Robin 14_48 log,81,0,1180.684,0,6,-30,700,1161,0.0,6,1181.97,1,736628.630738,Aud,2016-10-25 14:48:00,,,1509,-30,-0.5235987755982988,L,L,1,0
Control,14_10_2016 level15_700_Robin 15_46 log,61,0,698.742,0,6,-30,700,1101,0.0,6,699.881,1,736617.665488,Aud,2016-10-14 15:46:00,,,1509,-30,-0.5235987755982988,L,L,1,0
Control,5_10_2016 level15_700_Robin 15_33 log,86,0,1077.268,0,6,-30,700,1161,0.0,6,1078.531,1,736608.660598,Aud,2016-10-05 15:33:00,,,1509,-30,-0.5235987755982988,L,L,1,0
Control,17_8_2016 level15_700_Robin 9_8 log,36,0,575.22,1,6,-30,700,1101,0.0,7,581.733,0,736559.38768,Aud,2016-08-17 09:08:00,,,1509,-60,-0.5235987755982988,L,L,1,30
Control,5_10_2016 level15_700_Robin 15_33 log,1,0,117.638,0,6,-30,700,1081,4.5,4,119.511,0,736608.649497,Aud,2016-10-05 15:33:00,,,1509,30,-0.5235987755982988,L,R,0,60
Control,7_9_2016 level15_700_Robin 9_31 log,32,0,596.115,0,6,-30,700,1141,4.5,4,600.977,0,736580.403678,Aud,2016-09-07 09:31:00,,,1509,30,-0.5235987755982988,L,R,0,60
Control,7_10_2016 level15_700_Robin 14_11 log,45,0,579.971,0,6,-30,700,1081,4.5,6,581.213,1,736610.598224,Aud,2016-10-07 14:11:00,,,1509,-30,-0.5235987755982988,L,L,1,0
Control,19_10_2016 level15_700_Robin 14_57 Bilateral6-14_Control14-end,51,0,4599.477,0,6,-30,700,1201,4.5,6,4600.897,1,736622.676585,Aud,2016-10-19 14:57:00,37.0,37.0,1509,-30,-0.5235987755982988,L,L,1,0
Control,17_10_2016 level15_700_Robin 14_20 log,14,0,275.679,0,6,-30,700,1181,4.5,7,277.301,0,736620.600652,Aud,2016-10-17 14:20:00,,,1509,-60,-0.5235987755982988,L,L,1,30
Control,5_10_2016 level15_700_Robin 15_33 log,1,0,117.638,0,6,-30,700,1081,4.5,4,119.511,0,736608.649497,Aud,2016-10-05 15:33:00,,,1509,30,-0.5235987755982988,L,R,0,60
Control,26_9_2016 level15_700 14_10 log,14,0,254.427,0,6,-30,700,1161,4.5,7,256.062,0,736599.593807,Aud,2016-09-26 14:10:00,,,1509,-60,-0.5235987755982988,L,L,1,30
Control,14_10_2016 level15_700_Robin 8_58 log,35,0,451.254,0,6,-30,700,1121,4.5,4,462.221,0,736617.379209,Aud,2016-10-14 08:58:00,,,1509,30,-0.5235987755982988,L,R,0,60
Control,8_9_2016 level15_700_Robin 14_48 log,32,0,647.756,0,6,-30,700,1181,4.5,6,649.161,1,736581.624463,Aud,2016-09-08 14:48:00,,,1509,-30,-0.5235987755982988,L,L,1,0
Control,10_10_2016 level15_700_Robin 9_12 log,2,0,57.047,0,6,-30,700,1081,9.0,7,58.941,0,736613.384607,Aud,2016-10-10 09:12:00,,,1509,-60,-0.5235987755982988,L,L,1,30
Control,7_9_2016 level15_700_Robin 9_31 log,6,0,202.367,0,6,-30,700,1141,9.0,3,204.048,0,736580.399084,Aud,2016-09-07 09:31:00,,,1509,60,-0.5235987755982988,L,R,0,90
Control,10_10_2016 level15_700_Robin 9_12 log,61,0,753.374,0,6,-30,700,1061,9.0,6,754.917,1,736613.392663,Aud,2016-10-10 09:12:00,,,1509,-30,-0.5235987755982988,L,L,1,0
Control,7_10_2016 level15_700_Robin 14_11 log,32,0,414.413,0,6,-30,700,1041,9.0,3,415.708,0,736610.596309,Aud,2016-10-07 14:11:00,,,1509,60,-0.5235987755982988,L,R,0,90
Control,12_10_2016 level15_700_Robin 14_27 log,38,0,402.471,0,6,-30,700,1141,9.0,6,403.805,1,736615.606766,Aud,2016-10-12 14:27:00,,,1509,-30,-0.5235987755982988,L,L,1,0
Control,18_8_2016 level15_700_Robin 15_15 log,24,0,372.934,0,6,-30,700,1161,9.0,2,374.276,0,736560.63996,Aud,2016-08-18 15:15:00,,,1509,90,-0.5235987755982988,L,R,0,120
Control,25_10_2016 level15_700_Robin 14_48 log,1,0,232.283,0,6,-30,700,1061,9.0,8,233.89,0,736628.619765,Aud,2016-10-25 14:48:00,,,1509,-90,-0.5235987755982988,L,L,1,60
Control,2_9_2016 level15_700_Robin 14_38 log,25,0,321.344,0,6,-30,700,1021,9.0,6,322.678,1,736575.613963,Aud,2016-09-02 14:38:00,,,1509,-30,-0.5235987755982988,L,L,1,0
Control,10_10_2016 level15_700_Robin 9_12 log,2,0,57.047,0,6,-30,700,1081,9.0,7,58.941,0,736613.384607,Aud,2016-10-10 09:12:00,,,1509,-60,-0.5235987755982988,L,L,1,30
Control,31_8_2016 level15_700_Robin 9_20 log,37,0,616.1,0,4,30,700,1101,0.0,6,617.643,0,736573.396067,Aud,2016-08-31 09:20:00,,,1509,-30,0.5235987755982988,R,L,0,60
Control,8_9_2016 level15_700_Robin 9_44 log,96,0,1337.357,0,4,30,700,1041,0.0,7,1338.621,0,736581.421132,Aud,2016-09-08 09:44:00,,,1509,-60,0.5235987755982988,R,L,0,90
Control,19_8_2016 level15_700_Robin 10_1 log,4,0,78.311,1,4,30,700,1081,0.0,4,80.144,1,736561.418359,Aud,2016-08-19 10:01:00,,,1509,30,0.5235987755982988,R,R,1,0
Control,26_8_2016 level15_700_Robin 10_10 log,89,0,1252.29,0,4,30,700,1101,0.0,3,1253.569,0,736568.438485,Aud,2016-08-26 10:10:00,,,1509,60,0.5235987755982988,R,R,1,30
Control,14_10_2016 level15_700_Robin 8_58 log,15,0,224.931,0,4,30,700,1141,0.0,6,225.998,0,736617.376476,Aud,2016-10-14 08:58:00,,,1509,-30,0.5235987755982988,R,L,0,60
Control,26_9_2016 level15_700 14_10 log,7,0,141.127,0,4,30,700,1061,0.0,3,142.739,0,736599.592495,Aud,2016-09-26 14:10:00,,,1509,60,0.5235987755982988,R,R,1,30
Control,26_8_2016 level15_700_Robin 10_10 log,124,0,1795.568,0,4,30,700,1121,0.0,2,1798.363,0,736568.444789,Aud,2016-08-26 10:10:00,,,1509,90,0.5235987755982988,R,R,1,60
Control,26_8_2016 level15_700_Robin 10_10 log,89,0,1252.29,0,4,30,700,1101,0.0,3,1253.569,0,736568.438485,Aud,2016-08-26 10:10:00,,,1509,60,0.5235987755982988,R,R,1,30
Control,2_9_2016 level15_700_Robin 14_38 log,64,0,839.901,0,4,30,700,1161,0.0,3,841.482,0,736575.619967,Aud,2016-09-02 14:38:00,,,1509,60,0.5235987755982988,R,R,1,30
Control,14_10_2016 level15_700_Robin 15_46 log,45,0,517.082,0,4,30,700,1041,4.5,4,518.139,1,736617.663384,Aud,2016-10-14 15:46:00,,,1509,30,0.5235987755982988,R,R,1,0
Control,31_8_2016 level15_700_Robin 9_20 log,52,0,795.495,0,4,30,700,1001,4.5,4,797.351,1,736573.398146,Aud,2016-08-31 09:20:00,,,1509,30,0.5235987755982988,R,R,1,0
Control,2_9_2016 level15_700_Robin 14_38 log,17,0,229.107,0,4,30,700,1101,4.5,6,230.779,0,736575.612898,Aud,2016-09-02 14:38:00,,,1509,-30,0.5235987755982988,R,L,0,60
Control,19_8_2016 level15_700_Robin 14_56 log,11,0,180.587,0,4,30,700,1061,4.5,4,182.106,1,736561.624418,Aud,2016-08-19 14:56:00,,,1509,30,0.5235987755982988,R,R,1,0
Control,17_10_2016 level15_700_Robin 9_25 log,39,0,524.542,0,4,30,700,1121,4.5,4,525.757,1,736620.399019,Aud,2016-10-17 09:25:00,,,1509,30,0.5235987755982988,R,R,1,0
Control,16_9_2016 level15_700_Robin 14_14 log,61,0,812.149,0,4,30,700,1061,4.5,3,813.393,0,736589.602846,Aud,2016-09-16 14:14:00,,,1509,60,0.5235987755982988,R,R,1,30
Control,26_9_2016 level15_700 9_41 log,1,0,59.301,0,4,30,700,1021,4.5,4,58.28,1,736599.404704,Aud,2016-09-26 09:41:00,,,1509,30,0.5235987755982988,R,R,1,0
Control,15_9_2016 level15_700_Robin 10_38 log,14,0,176.919,0,4,30,700,1001,4.5,7,178.83,0,736588.445735,Aud,2016-09-15 10:38:00,,,1509,-60,0.5235987755982988,R,L,0,90
Control,15_9_2016 level15_700_Robin 10_38 log,68,0,892.19,0,4,30,700,1141,4.5,4,895.931,1,736588.454035,Aud,2016-09-15 10:38:00,,,1509,30,0.5235987755982988,R,R,1,0
Control,29_9_2016 level15_700_Robin 9_8 log,21,0,364.689,0,4,30,700,1061,9.0,8,366.056,0,736602.38495,Aud,2016-09-29 09:08:00,,,1509,-90,0.5235987755982988,R,L,0,120
Control,8_9_2016 level15_700_Robin 9_44 log,34,0,577.267,0,4,30,700,1101,9.0,3,579.669,0,736581.412348,Aud,2016-09-08 09:44:00,,,1509,60,0.5235987755982988,R,R,1,30
Control,7_9_2016 level15_700_Robin 14_26 log,3,0,294.055,0,4,30,700,1121,9.0,3,295.963,0,736580.605442,Aud,2016-09-07 14:26:00,,,1509,60,0.5235987755982988,R,R,1,30
Control,17_10_2016 level15_700_Robin 14_20 log,60,0,969.618,0,4,30,700,1201,9.0,4,970.632,1,736620.608676,Aud,2016-10-17 14:20:00,,,1509,30,0.5235987755982988,R,R,1,0
Control,31_8_2016 level15_700_Robin 9_20 log,12,0,287.187,0,4,30,700,1061,9.0,3,288.563,0,736573.392257,Aud,2016-08-31 09:20:00,,,1509,60,0.5235987755982988,R,R,1,30
Control,5_10_2016 level15_700_Robin 15_33 log,66,0,840.903,0,4,30,700,1121,9.0,3,843.111,0,736608.657873,Aud,2016-10-05 15:33:00,,,1509,60,0.5235987755982988,R,R,1,30
Control,10_10_2016 level15_700_Robin 9_12 log,22,0,323.554,0,4,30,700,1001,9.0,3,326.115,0,736613.3877,Aud,2016-10-10 09:12:00,,,1509,60,0.5235987755982988,R,R,1,30
Control,5_10_2016 level15_700_Robin 15_33 log,55,0,687.734,0,4,30,700,1201,9.0,4,689.147,1,736608.656091,Aud,2016-10-05 15:33:00,,,1509,30,0.5235987755982988,R,R,1,0
Control,31_8_2016 level15_700_Robin 9_20 log,39,0,639.584,0,4,30,700,1021,9.0,4,640.952,1,736573.396336,Aud,2016-08-31 09:20:00,,,1509,30,0.5235987755982988,R,R,1,0
Control,7_9_2016 level15_700_Robin 9_31 log,9,0,254.995,0,3,60,700,1121,0.0,3,256.346,1,736580.399689,Aud,2016-09-07 09:31:00,,,1509,60,1.0471975511965976,R,R,1,0
Control,7_10_2016 level15_700_Robin 14_11 log,56,0,698.495,0,3,60,700,1141,0.0,3,699.973,1,736610.599599,Aud,2016-10-07 14:11:00,,,1509,60,1.0471975511965976,R,R,1,0
Control,3_10_2016 level15_700_Robin 8_45 log,52,0,833.428,0,3,60,700,1001,0.0,3,834.884,1,736606.374679,Aud,2016-10-03 08:45:00,,,1509,60,1.0471975511965976,R,R,1,0
Control,31_8_2016 level15_700_Robin 9_20 log,78,0,1137.082,0,3,60,700,1061,0.0,3,1138.569,1,736573.402096,Aud,2016-08-31 09:20:00,,,1509,60,1.0471975511965976,R,R,1,0
Control,14_9_2016 level15_700_Robin 16_3 log,25,0,345.489,0,3,60,700,1001,0.0,3,347.283,1,736587.672878,Aud,2016-09-14 16:03:00,,,1509,60,1.0471975511965976,R,R,1,0
Control,17_10_2016 level15_700_Robin 9_25 log,30,0,409.916,0,3,60,700,1201,0.0,3,411.424,1,736620.397695,Aud,2016-10-17 09:25:00,,,1509,60,1.0471975511965976,R,R,1,0
Control,14_10_2016 level15_700_Robin 15_46 log,35,0,404.093,0,3,60,700,1061,0.0,3,405.224,1,736617.662077,Aud,2016-10-14 15:46:00,,,1509,60,1.0471975511965976,R,R,1,0
Control,17_10_2016 level15_700_Robin 9_25 log,45,0,596.44,1,3,60,700,1181,0.0,3,597.508,1,736620.399849,Aud,2016-10-17 09:25:00,,,1509,60,1.0471975511965976,R,R,1,0
Control,18_8_2016 level15_700_Robin 15_15 log,16,0,273.515,0,3,60,700,1161,0.0,4,275.045,0,736560.638811,Aud,2016-08-18 15:15:00,,,1509,30,1.0471975511965976,R,R,1,30
Control,7_9_2016 level15_700_Robin 14_26 log,18,0,520.281,0,3,60,700,1021,4.5,4,521.86,0,736580.608057,Aud,2016-09-07 14:26:00,,,1509,30,1.0471975511965976,R,R,1,30
Control,8_9_2016 level15_700_Robin 9_44 log,2,0,129.397,0,3,60,700,1201,4.5,3,130.529,1,736581.407149,Aud,2016-09-08 09:44:00,,,1509,60,1.0471975511965976,R,R,1,0
Control,19_8_2016 level15_700_Robin 14_56 log,50,0,777.341,0,3,60,700,1001,4.5,4,788.184,0,736561.631432,Aud,2016-08-19 14:56:00,,,1509,30,1.0471975511965976,R,R,1,30
Control,17_10_2016 level15_700_Robin 14_20 log,6,0,157.501,0,3,60,700,1161,4.5,3,158.618,1,736620.599278,Aud,2016-10-17 14:20:00,,,1509,60,1.0471975511965976,R,R,1,0
Control,17_8_2016 level15_700_Robin 9_8 log,27,0,442.338,0,3,60,700,1101,4.5,2,443.764,0,736559.386083,Aud,2016-08-17 09:08:00,,,1509,90,1.0471975511965976,R,R,1,30
Control,20_10_2016 level15_700_Robin 14_46 log,20,0,465.226,0,3,60,700,1021,4.5,3,472.719,1,736623.621299,Aud,2016-10-20 14:46:00,,,1509,60,1.0471975511965976,R,R,1,0
Control,31_8_2016 level15_700_Robin 9_20 log,19,0,369.061,0,3,60,700,1021,4.5,2,370.22,0,736573.393202,Aud,2016-08-31 09:20:00,,,1509,90,1.0471975511965976,R,R,1,30
Control,8_9_2016 level15_700_Robin 9_44 log,63,0,904.106,0,3,60,700,1021,4.5,3,905.267,1,736581.416117,Aud,2016-09-08 09:44:00,,,1509,60,1.0471975511965976,R,R,1,0
Control,3_10_2016 level15_700_Robin 8_45 log,21,0,352.232,0,3,60,700,1041,4.5,2,353.534,0,736606.369108,Aud,2016-10-03 08:45:00,,,1509,90,1.0471975511965976,R,R,1,30
Control,26_8_2016 level15_700_Robin 14_47 log,49,0,776.174,0,3,60,700,1001,9.0,2,777.685,0,736568.625145,Aud,2016-08-26 14:47:00,,,1509,90,1.0471975511965976,R,R,1,30
Control,17_8_2016 level15_700_Robin 9_8 log,76,0,1048.434,0,3,60,700,1161,9.0,2,1049.683,0,736559.393095,Aud,2016-08-17 09:08:00,,,1509,90,1.0471975511965976,R,R,1,30
Control,31_8_2016 level15_700_Robin 9_20 log,43,0,691.139,0,3,60,700,1161,9.0,3,692.389,1,736573.396931,Aud,2016-08-31 09:20:00,,,1509,60,1.0471975511965976,R,R,1,0
Control,3_10_2016 level15_700_Robin 8_45 log,38,0,636.042,0,3,60,700,1121,9.0,3,637.231,1,736606.372391,Aud,2016-10-03 08:45:00,,,1509,60,1.0471975511965976,R,R,1,0
Control,5_10_2016 level15_700_Robin 15_33 log,61,0,757.611,0,3,60,700,1081,9.0,3,759.131,1,736608.656901,Aud,2016-10-05 15:33:00,,,1509,60,1.0471975511965976,R,R,1,0
Control,5_10_2016 level15_700_Robin 15_33 log,83,0,1034.151,0,3,60,700,1001,9.0,3,1035.487,1,736608.660099,Aud,2016-10-05 15:33:00,,,1509,60,1.0471975511965976,R,R,1,0
Control,26_8_2016 level15_700_Robin 14_47 log,49,0,776.174,0,3,60,700,1001,9.0,2,777.685,0,736568.625145,Aud,2016-08-26 14:47:00,,,1509,90,1.0471975511965976,R,R,1,30
Control,16_9_2016 level15_700_Robin 8_34 log,70,0,1014.809,0,3,60,700,1201,9.0,2,1016.348,0,736589.368489,Aud,2016-09-16 08:34:00,,,1509,90,1.0471975511965976,R,R,1,30
Control,8_9_2016 level15_700_Robin 9_44 log,92,0,1251.217,0,3,60,700,1181,9.0,2,1254.073,0,736581.420154,Aud,2016-09-08 09:44:00,,,1509,90,1.0471975511965976,R,R,1,30
Control,26_8_2016 level15_700_Robin 10_10 log,72,0,1049.874,1,2,90,700,1101,0.0,2,1056.291,1,736568.436202,Aud,2016-08-26 10:10:00,,,1509,90,1.5707963267948966,R,R,1,0
Control,19_8_2016 level15_700_Robin 10_1 log,86,0,1130.141,0,2,90,700,1121,0.0,3,1131.658,0,736561.43053,Aud,2016-08-19 10:01:00,,,1509,60,1.5707963267948966,R,R,1,30
Control,2_9_2016 level15_700_Robin 14_38 log,49,0,637.531,0,2,90,700,1061,0.0,2,639.326,1,736575.617628,Aud,2016-09-02 14:38:00,,,1509,90,1.5707963267948966,R,R,1,0
Control,19_8_2016 level15_700_Robin 10_1 log,37,0,477.747,0,2,90,700,1061,0.0,2,479.602,1,736561.422983,Aud,2016-08-19 10:01:00,,,1509,90,1.5707963267948966,R,R,1,0
Control,15_9_2016 level15_700_Robin 10_38 log,99,0,1428.248,0,2,90,700,1141,0.0,3,1427.966,0,736588.460197,Aud,2016-09-15 10:38:00,,,1509,60,1.5707963267948966,R,R,1,30
Control,5_10_2016 level15_700_Robin 15_33 log,28,0,404.712,0,2,90,700,1161,0.0,3,406.137,0,736608.652816,Aud,2016-10-05 15:33:00,,,1509,60,1.5707963267948966,R,R,1,30
Control,3_10_2016 level15_700_Robin 8_45 log,56,0,875.453,0,2,90,700,1061,0.0,3,876.932,0,736606.375165,Aud,2016-10-03 08:45:00,,,1509,60,1.5707963267948966,R,R,1,30
Control,14_10_2016 level15_700_Robin 8_58 log,21,0,287.862,1,2,90,700,1181,0.0,2,293.993,1,736617.377263,Aud,2016-10-14 08:58:00,,,1509,90,1.5707963267948966,R,R,1,0
Control,14_10_2016 level15_700_Robin 8_58 log,21,0,287.862,1,2,90,700,1181,0.0,2,293.993,1,736617.377263,Aud,2016-10-14 08:58:00,,,1509,90,1.5707963267948966,R,R,1,0
Control,26_10_2016 level15_700_Robin 15_2 log,3,0,60.165,1,2,90,700,1001,4.5,2,64.632,1,736629.627774,Aud,2016-10-26 15:02:00,,,1509,90,1.5707963267948966,R,R,1,0
Control,26_8_2016 level15_700_Robin 10_10 log,30,0,515.855,0,2,90,700,1001,4.5,2,518.507,1,736568.429977,Aud,2016-08-26 10:10:00,,,1509,90,1.5707963267948966,R,R,1,0
Control,25_10_2016 level15_700_Robin 14_48 log,46,0,816.523,0,2,90,700,1001,4.5,2,818.027,1,736628.626526,Aud,2016-10-25 14:48:00,,,1509,90,1.5707963267948966,R,R,1,0
Control,5_10_2016 level15_700_Robin 15_33 log,87,0,1091.293,0,2,90,700,1081,4.5,3,1093.139,0,736608.660767,Aud,2016-10-05 15:33:00,,,1509,60,1.5707963267948966,R,R,1,30
Control,8_9_2016 level15_700_Robin 14_48 log,8,0,333.76,0,2,90,700,1061,4.5,3,336.268,0,736581.620841,Aud,2016-09-08 14:48:00,,,1509,60,1.5707963267948966,R,R,1,30
Control,2_9_2016 level15_700_Robin 14_38 log,13,0,185.498,0,2,90,700,1181,4.5,3,187.218,0,736575.612395,Aud,2016-09-02 14:38:00,,,1509,60,1.5707963267948966,R,R,1,30
Control,10_10_2016 level15_700_Robin 9_12 log,70,0,871.071,0,2,90,700,1081,4.5,3,872.293,0,736613.39402,Aud,2016-10-10 09:12:00,,,1509,60,1.5707963267948966,R,R,1,30
Control,17_8_2016 level15_700_Robin 14_34 log,53,0,800.538,1,2,90,700,1141,4.5,6,806.437,0,736559.616298,Aud,2016-08-17 14:34:00,,,1509,-30,1.5707963267948966,R,L,0,120
Control,20_10_2016 level15_700_Robin 8_31 log,75,0,857.412,1,2,90,700,1041,4.5,4,861.288,0,736623.364934,Aud,2016-10-20 08:31:00,,,1509,30,1.5707963267948966,R,R,1,60
Control,31_8_2016 level15_700_Robin 9_20 log,45,0,717.521,0,2,90,700,1201,9.0,3,718.914,0,736573.397239,Aud,2016-08-31 09:20:00,,,1509,60,1.5707963267948966,R,R,1,30
Control,5_10_2016 level15_700_Robin 15_33 log,77,0,954.041,0,2,90,700,1161,9.0,3,955.499,0,736608.659173,Aud,2016-10-05 15:33:00,,,1509,60,1.5707963267948966,R,R,1,30
Control,16_9_2016 level15_700_Robin 14_14 log,44,0,610.572,0,2,90,700,1181,9.0,3,612.109,0,736589.600516,Aud,2016-09-16 14:14:00,,,1509,60,1.5707963267948966,R,R,1,30
Control,7_9_2016 level15_700_Robin 14_26 log,5,0,354.111,0,2,90,700,1201,9.0,3,356.203,0,736580.60614,Aud,2016-09-07 14:26:00,,,1509,60,1.5707963267948966,R,R,1,30
Control,16_9_2016 level15_700_Robin 14_14 log,44,0,610.572,0,2,90,700,1181,9.0,3,612.109,0,736589.600516,Aud,2016-09-16 14:14:00,,,1509,60,1.5707963267948966,R,R,1,30
Control,18_8_2016 level15_700_Robin 15_15 log,21,0,337.943,0,2,90,700,1081,9.0,2,339.088,1,736560.639553,Aud,2016-08-18 15:15:00,,,1509,90,1.5707963267948966,R,R,1,0
Control,14_10_2016 level15_700_Robin 8_58 log,5,0,112.124,0,2,90,700,1101,9.0,3,113.345,0,736617.375171,Aud,2016-10-14 08:58:00,,,1509,60,1.5707963267948966,R,R,1,30
Control,16_9_2016 level15_700_Robin 8_34 log,5,0,117.973,0,2,90,700,1141,9.0,3,119.525,0,736589.358109,Aud,2016-09-16 08:34:00,,,1509,60,1.5707963267948966,R,R,1,30
Control,3_10_2016 level15_700_Robin 8_45 log,37,0,618.945,0,2,90,700,1181,9.0,2,620.07,1,736606.372193,Aud,2016-10-03 08:45:00,,,1509,90,1.5707963267948966,R,R,1,0
Left,25_10_2016 level15_700_Robin 8_27 Left_T9,41,0,1142.552,0,8,-90,700,1161,0.0,8,1144.026,1,736628.365499,Aud,2016-10-25 08:27:00,9.6,36.0,1509,-90,-1.5707963267948966,L,L,1,0
Left,12_10_2016 level15_700_Robin 10_3 Left,37,0,942.538,0,8,-90,700,1161,0.0,8,944.758,1,736615.430059,Aud,2016-10-12 10:03:00,8.9,37.0,1509,-90,-1.5707963267948966,L,L,1,0
Left,25_10_2016 level15_700_Robin 8_27 Left_T9,41,0,1142.552,0,8,-90,700,1161,0.0,8,1144.026,1,736628.365499,Aud,2016-10-25 08:27:00,9.6,36.0,1509,-90,-1.5707963267948966,L,L,1,0
Left,23_10_2016 level15_700_Robin 15_57 Left_T7,98,0,2396.605,0,8,-90,700,1181,0.0,8,2401.5,1,736626.692771,Aud,2016-10-23 15:57:00,,,1509,-90,-1.5707963267948966,L,L,1,0
Left,23_10_2016 level15_700_Robin 15_57 Left_T7,98,0,2396.605,0,8,-90,700,1181,0.0,8,2401.5,1,736626.692771,Aud,2016-10-23 15:57:00,,,1509,-90,-1.5707963267948966,L,L,1,0
Left,23_10_2016 level15_700_Robin 15_57 Left_T7,22,0,1385.881,0,8,-90,700,1041,0.0,7,1387.469,0,736626.681034,Aud,2016-10-23 15:57:00,9.0,36.0,1509,-60,-1.5707963267948966,L,L,1,30
Left,23_10_2016 level15_700_Robin 15_57 Left_T7,22,0,1385.881,0,8,-90,700,1041,0.0,7,1387.469,0,736626.681034,Aud,2016-10-23 15:57:00,9.0,36.0,1509,-60,-1.5707963267948966,L,L,1,30
Left,23_10_2016 level15_700_Robin 15_57 Left_T7,22,0,1385.881,0,8,-90,700,1041,0.0,7,1387.469,0,736626.681034,Aud,2016-10-23 15:57:00,9.0,36.0,1509,-60,-1.5707963267948966,L,L,1,30
Left,23_10_2016 level15_700_Robin 15_57 Left_T7,72,0,2010.385,0,8,-90,700,1041,0.0,8,2012.137,1,736626.688263,Aud,2016-10-23 15:57:00,7.9,36.0,1509,-90,-1.5707963267948966,L,L,1,0
Left,26_10_2016 level15_700_Robin 10_22 Left_T23,47,0,1419.918,0,8,-90,700,1161,4.5,8,1421.47,1,736629.44843,Aud,2016-10-26 10:22:00,9.5,36.0,1509,-90,-1.5707963267948966,L,L,1,0
Left,25_10_2016 level15_700_Robin 8_27 Left_T9,98,0,1801.349,0,8,-90,700,1041,4.5,3,1806.976,0,736628.373171,Aud,2016-10-25 08:27:00,9.2,36.0,1509,60,-1.5707963267948966,L,R,0,150
Left,26_10_2016 level15_700_Robin 10_22 Left_T23,62,0,1677.072,0,8,-90,700,1021,4.5,4,1667.842,0,736629.45139,Aud,2016-10-26 10:22:00,10.2,36.0,1509,30,-1.5707963267948966,L,R,0,120
Left,25_10_2016 level15_700_Robin 8_27 Left_T9,98,0,1801.349,0,8,-90,700,1041,4.5,3,1806.976,0,736628.373171,Aud,2016-10-25 08:27:00,9.2,36.0,1509,60,-1.5707963267948966,L,R,0,150
Left,26_10_2016 level15_700_Robin 10_22 Left_T23,47,0,1419.918,0,8,-90,700,1161,4.5,8,1421.47,1,736629.44843,Aud,2016-10-26 10:22:00,9.5,36.0,1509,-90,-1.5707963267948966,L,L,1,0
Left,26_10_2016 level15_700_Robin 10_22 Left_T23,47,0,1419.918,0,8,-90,700,1161,4.5,8,1421.47,1,736629.44843,Aud,2016-10-26 10:22:00,9.5,36.0,1509,-90,-1.5707963267948966,L,L,1,0
Left,26_10_2016 level15_700_Robin 10_22 Left_T23,62,0,1677.072,0,8,-90,700,1021,4.5,4,1667.842,0,736629.45139,Aud,2016-10-26 10:22:00,10.2,36.0,1509,30,-1.5707963267948966,L,R,0,120
Left,25_10_2016 level15_700_Robin 8_27 Left_T9,61,0,1396.857,0,8,-90,700,1201,4.5,8,1399.086,1,736628.36845,Aud,2016-10-25 08:27:00,9.2,36.0,1509,-90,-1.5707963267948966,L,L,1,0
Left,25_10_2016 level15_700_Robin 8_27 Left_T9,98,0,1801.349,0,8,-90,700,1041,4.5,3,1806.976,0,736628.373171,Aud,2016-10-25 08:27:00,9.2,36.0,1509,60,-1.5707963267948966,L,R,0,150
Left,26_10_2016 level15_700_Robin 10_22 Left_T23,68,0,1790.411,0,8,-90,700,1081,9.0,7,1791.874,0,736629.452717,Aud,2016-10-26 10:22:00,10.2,36.0,1509,-60,-1.5707963267948966,L,L,1,30
Left,26_10_2016 level15_700_Robin 10_22 Left_T23,68,0,1790.411,0,8,-90,700,1081,9.0,7,1791.874,0,736629.452717,Aud,2016-10-26 10:22:00,10.2,36.0,1509,-60,-1.5707963267948966,L,L,1,30
Left,23_10_2016 level15_700_Robin 15_57 Left_T7,46,0,1654.149,0,8,-90,700,1161,9.0,8,1655.625,1,736626.684137,Aud,2016-10-23 15:57:00,8.0,36.0,1509,-90,-1.5707963267948966,L,L,1,0
Left,23_10_2016 level15_700_Robin 15_57 Left_T7,46,0,1654.149,0,8,-90,700,1161,9.0,8,1655.625,1,736626.684137,Aud,2016-10-23 15:57:00,8.0,36.0,1509,-90,-1.5707963267948966,L,L,1,0
Left,23_10_2016 level15_700_Robin 15_57 Left_T7,46,0,1654.149,0,8,-90,700,1161,9.0,8,1655.625,1,736626.684137,Aud,2016-10-23 15:57:00,8.0,36.0,1509,-90,-1.5707963267948966,L,L,1,0
Left,26_10_2016 level15_700_Robin 10_22 Left_T23,68,0,1790.411,0,8,-90,700,1081,9.0,7,1791.874,0,736629.452717,Aud,2016-10-26 10:22:00,10.2,36.0,1509,-60,-1.5707963267948966,L,L,1,30
Left,23_10_2016 level15_700_Robin 15_57 Left_T7,46,0,1654.149,0,8,-90,700,1161,9.0,8,1655.625,1,736626.684137,Aud,2016-10-23 15:57:00,8.0,36.0,1509,-90,-1.5707963267948966,L,L,1,0
Left,26_10_2016 level15_700_Robin 10_22 Left_T23,68,0,1790.411,0,8,-90,700,1081,9.0,7,1791.874,0,736629.452717,Aud,2016-10-26 10:22:00,10.2,36.0,1509,-60,-1.5707963267948966,L,L,1,30
Left,23_10_2016 level15_700_Robin 15_57 Left_T7,46,0,1654.149,0,8,-90,700,1161,9.0,8,1655.625,1,736626.684137,Aud,2016-10-23 15:57:00,8.0,36.0,1509,-90,-1.5707963267948966,L,L,1,0
Left,23_10_2016 level15_700_Robin 15_57 Left_T7,47,0,1666.296,0,7,-60,700,1001,0.0,7,1667.808,1,736626.684278,Aud,2016-10-23 15:57:00,8.0,36.0,1509,-60,-1.0471975511965976,L,L,1,0
Left,25_10_2016 level15_700_Robin 8_27 Left_T9,58,0,1354.999,0,7,-60,700,1141,0.0,7,1356.408,1,736628.367957,Aud,2016-10-25 08:27:00,9.2,36.0,1509,-60,-1.0471975511965976,L,L,1,0
Left,23_10_2016 level15_700_Robin 15_57 Left_T7,47,0,1666.296,0,7,-60,700,1001,0.0,7,1667.808,1,736626.684278,Aud,2016-10-23 15:57:00,8.0,36.0,1509,-60,-1.0471975511965976,L,L,1,0
Left,26_10_2016 level15_700_Robin 10_22 Left_T23,53,0,1514.189,0,7,-60,700,1141,0.0,8,1515.594,0,736629.44952,Aud,2016-10-26 10:22:00,9.4,36.0,1509,-90,-1.0471975511965976,L,L,1,30
Left,23_10_2016 level15_700_Robin 15_57 Left_T7,47,0,1666.296,0,7,-60,700,1001,0.0,7,1667.808,1,736626.684278,Aud,2016-10-23 15:57:00,8.0,36.0,1509,-60,-1.0471975511965976,L,L,1,0
Left,25_10_2016 level15_700_Robin 8_27 Left_T9,100,0,1834.48,0,7,-60,700,1141,0.0,8,1836.034,0,736628.373508,Aud,2016-10-25 08:27:00,,,1509,-90,-1.0471975511965976,L,L,1,30
Left,25_10_2016 level15_700_Robin 8_27 Left_T9,58,0,1354.999,0,7,-60,700,1141,0.0,7,1356.408,1,736628.367957,Aud,2016-10-25 08:27:00,9.2,36.0,1509,-60,-1.0471975511965976,L,L,1,0
Left,23_10_2016 level15_700_Robin 15_57 Left_T7,36,0,1562.616,0,7,-60,700,1201,0.0,8,1564.689,0,736626.683085,Aud,2016-10-23 15:57:00,8.4,36.0,1509,-90,-1.0471975511965976,L,L,1,30
Left,23_10_2016 level15_700_Robin 15_57 Left_T7,47,0,1666.296,0,7,-60,700,1001,0.0,7,1667.808,1,736626.684278,Aud,2016-10-23 15:57:00,8.0,36.0,1509,-60,-1.0471975511965976,L,L,1,0
Left,23_10_2016 level15_700_Robin 15_57 Left_T7,83,0,2148.959,0,7,-60,700,1021,4.5,8,2150.032,0,736626.689859,Aud,2016-10-23 15:57:00,7.9,36.0,1509,-90,-1.0471975511965976,L,L,1,30
Left,26_10_2016 level15_700_Robin 10_22 Left_T23,70,0,1810.018,0,7,-60,700,1041,4.5,8,1811.873,0,736629.452949,Aud,2016-10-26 10:22:00,10.2,36.0,1509,-90,-1.0471975511965976,L,L,1,30
Left,26_10_2016 level15_700_Robin 10_22 Left_T23,98,0,2204.965,0,7,-60,700,1061,4.5,8,2206.682,0,736629.457518,Aud,2016-10-26 10:22:00,,,1509,-90,-1.0471975511965976,L,L,1,30
Left,26_10_2016 level15_700_Robin 10_22 Left_T23,98,0,2204.965,0,7,-60,700,1061,4.5,8,2206.682,0,736629.457518,Aud,2016-10-26 10:22:00,,,1509,-90,-1.0471975511965976,L,L,1,30
Left,12_10_2016 level15_700_Robin 10_3 Left,6,0,322.956,0,7,-60,700,1041,4.5,2,331.49,0,736615.422961,Aud,2016-10-12 10:03:00,11.0,37.0,1509,90,-1.0471975511965976,L,R,0,150
Left,23_10_2016 level15_700_Robin 15_57 Left_T7,14,0,1202.678,0,7,-60,700,1081,4.5,4,1204.322,0,736626.678915,Aud,2016-10-23 15:57:00,9.3,36.0,1509,30,-1.0471975511965976,L,R,0,90
Left,23_10_2016 level15_700_Robin 15_57 Left_T7,83,0,2148.959,0,7,-60,700,1021,4.5,8,2150.032,0,736626.689859,Aud,2016-10-23 15:57:00,7.9,36.0,1509,-90,-1.0471975511965976,L,L,1,30
Left,23_10_2016 level15_700_Robin 15_57 Left_T7,14,0,1202.678,0,7,-60,700,1081,4.5,4,1204.322,0,736626.678915,Aud,2016-10-23 15:57:00,9.3,36.0,1509,30,-1.0471975511965976,L,R,0,90
Left,25_10_2016 level15_700_Robin 8_27 Left_T9,55,0,1324.836,0,7,-60,700,1081,4.5,8,1326.596,0,736628.367612,Aud,2016-10-25 08:27:00,9.2,36.0,1509,-90,-1.0471975511965976,L,L,1,30
Left,25_10_2016 level15_700_Robin 8_27 Left_T9,30,0,1014.382,0,7,-60,700,1121,9.0,4,1019.053,0,736628.364052,Aud,2016-10-25 08:27:00,8.1,36.0,1509,30,-1.0471975511965976,L,R,0,90
Left,12_10_2016 level15_700_Robin 10_3 Left,38,0,956.715,0,7,-60,700,1001,9.0,8,960.772,0,736615.430245,Aud,2016-10-12 10:03:00,8.9,37.0,1509,-90,-1.0471975511965976,L,L,1,30
Left,12_10_2016 level15_700_Robin 10_3 Left,38,0,956.715,0,7,-60,700,1001,9.0,8,960.772,0,736615.430245,Aud,2016-10-12 10:03:00,8.9,37.0,1509,-90,-1.0471975511965976,L,L,1,30
Left,25_10_2016 level15_700_Robin 8_27 Left_T9,30,0,1014.382,0,7,-60,700,1121,9.0,4,1019.053,0,736628.364052,Aud,2016-10-25 08:27:00,8.1,36.0,1509,30,-1.0471975511965976,L,R,0,90
Left,23_10_2016 level15_700_Robin 15_57 Left_T7,48,0,1678.286,0,7,-60,700,1121,9.0,4,1681.845,0,736626.68444,Aud,2016-10-23 15:57:00,8.0,36.0,1509,30,-1.0471975511965976,L,R,0,90
Left,12_10_2016 level15_700_Robin 10_3 Left,38,0,956.715,0,7,-60,700,1001,9.0,8,960.772,0,736615.430245,Aud,2016-10-12 10:03:00,8.9,37.0,1509,-90,-1.0471975511965976,L,L,1,30
Left,25_10_2016 level15_700_Robin 8_27 Left_T9,59,0,1365.843,0,7,-60,700,1181,9.0,7,1367.33,1,736628.368083,Aud,2016-10-25 08:27:00,9.2,36.0,1509,-60,-1.0471975511965976,L,L,1,0
Left,23_10_2016 level15_700_Robin 15_57 Left_T7,48,0,1678.286,0,7,-60,700,1121,9.0,4,1681.845,0,736626.68444,Aud,2016-10-23 15:57:00,8.0,36.0,1509,30,-1.0471975511965976,L,R,0,90
Left,12_10_2016 level15_700_Robin 10_3 Left,26,0,709.009,0,7,-60,700,1101,9.0,7,710.834,1,736615.427351,Aud,2016-10-12 10:03:00,9.5,37.0,1509,-60,-1.0471975511965976,L,L,1,0
Left,23_10_2016 level15_700_Robin 15_57 Left_T7,60,0,1793.6,0,6,-30,700,1021,0.0,7,1795.203,0,736626.685752,Aud,2016-10-23 15:57:00,8.0,36.0,1509,-60,-0.5235987755982988,L,L,1,30
Left,25_10_2016 level15_700_Robin 8_27 Left_T9,16,0,838.148,0,6,-30,700,1101,0.0,7,840.204,0,736628.361983,Aud,2016-10-25 08:27:00,11.0,36.0,1509,-60,-0.5235987755982988,L,L,1,30
Left,25_10_2016 level15_700_Robin 8_27 Left_T9,34,0,1063.689,0,6,-30,700,1101,0.0,7,1065.209,0,736628.364587,Aud,2016-10-25 08:27:00,8.1,36.0,1509,-60,-0.5235987755982988,L,L,1,30
Left,25_10_2016 level15_700_Robin 8_27 Left_T9,34,0,1063.689,0,6,-30,700,1101,0.0,7,1065.209,0,736628.364587,Aud,2016-10-25 08:27:00,8.1,36.0,1509,-60,-0.5235987755982988,L,L,1,30
Left,23_10_2016 level15_700_Robin 15_57 Left_T7,60,0,1793.6,0,6,-30,700,1021,0.0,7,1795.203,0,736626.685752,Aud,2016-10-23 15:57:00,8.0,36.0,1509,-60,-0.5235987755982988,L,L,1,30
Left,23_10_2016 level15_700_Robin 15_57 Left_T7,60,0,1793.6,0,6,-30,700,1021,0.0,7,1795.203,0,736626.685752,Aud,2016-10-23 15:57:00,8.0,36.0,1509,-60,-0.5235987755982988,L,L,1,30
Left,23_10_2016 level15_700_Robin 15_57 Left_T7,60,0,1793.6,0,6,-30,700,1021,0.0,7,1795.203,0,736626.685752,Aud,2016-10-23 15:57:00,8.0,36.0,1509,-60,-0.5235987755982988,L,L,1,30
Left,25_10_2016 level15_700_Robin 8_27 Left_T9,16,0,838.148,0,6,-30,700,1101,0.0,7,840.204,0,736628.361983,Aud,2016-10-25 08:27:00,11.0,36.0,1509,-60,-0.5235987755982988,L,L,1,30
Left,23_10_2016 level15_700_Robin 15_57 Left_T7,60,0,1793.6,0,6,-30,700,1021,0.0,7,1795.203,0,736626.685752,Aud,2016-10-23 15:57:00,8.0,36.0,1509,-60,-0.5235987755982988,L,L,1,30
Left,26_10_2016 level15_700_Robin 10_22 Left_T23,41,0,1319.327,0,6,-30,700,1181,4.5,7,1320.78,0,736629.447265,Aud,2016-10-26 10:22:00,9.5,36.0,1509,-60,-0.5235987755982988,L,L,1,30
Left,12_10_2016 level15_700_Robin 10_3 Left,10,0,432.958,0,6,-30,700,1201,4.5,7,434.694,0,736615.424156,Aud,2016-10-12 10:03:00,11.0,37.0,1509,-60,-0.5235987755982988,L,L,1,30
Left,12_10_2016 level15_700_Robin 10_3 Left,10,0,432.958,0,6,-30,700,1201,4.5,7,434.694,0,736615.424156,Aud,2016-10-12 10:03:00,11.0,37.0,1509,-60,-0.5235987755982988,L,L,1,30
Left,26_10_2016 level15_700_Robin 10_22 Left_T23,109,0,2363.444,0,6,-30,700,1021,4.5,2,2377.671,0,736629.459497,Aud,2016-10-26 10:22:00,,,1509,90,-0.5235987755982988,L,R,0,120
Left,26_10_2016 level15_700_Robin 10_22 Left_T23,41,0,1319.327,0,6,-30,700,1181,4.5,7,1320.78,0,736629.447265,Aud,2016-10-26 10:22:00,9.5,36.0,1509,-60,-0.5235987755982988,L,L,1,30
Left,12_10_2016 level15_700_Robin 10_3 Left,10,0,432.958,0,6,-30,700,1201,4.5,7,434.694,0,736615.424156,Aud,2016-10-12 10:03:00,11.0,37.0,1509,-60,-0.5235987755982988,L,L,1,30
Left,25_10_2016 level15_700_Robin 8_27 Left_T9,85,0,1620.175,0,6,-30,700,1161,4.5,7,1621.797,0,736628.371028,Aud,2016-10-25 08:27:00,9.2,36.0,1509,-60,-0.5235987755982988,L,L,1,30
Left,12_10_2016 level15_700_Robin 10_3 Left,10,0,432.958,0,6,-30,700,1201,4.5,7,434.694,0,736615.424156,Aud,2016-10-12 10:03:00,11.0,37.0,1509,-60,-0.5235987755982988,L,L,1,30
Left,25_10_2016 level15_700_Robin 8_27 Left_T9,85,0,1620.175,0,6,-30,700,1161,4.5,7,1621.797,0,736628.371028,Aud,2016-10-25 08:27:00,9.2,36.0,1509,-60,-0.5235987755982988,L,L,1,30
Left,23_10_2016 level15_700_Robin 15_57 Left_T7,24,0,1414.393,0,6,-30,700,1061,9.0,7,1416.051,0,736626.681365,Aud,2016-10-23 15:57:00,9.0,36.0,1509,-60,-0.5235987755982988,L,L,1,30
Left,26_10_2016 level15_700_Robin 10_22 Left_T23,74,0,1864.172,0,6,-30,700,1081,9.0,8,1873.549,0,736629.453662,Aud,2016-10-26 10:22:00,10.0,36.0,1509,-90,-0.5235987755982988,L,L,1,60
Left,12_10_2016 level15_700_Robin 10_3 Left,13,0,475.411,0,6,-30,700,1101,9.0,2,482.777,0,736615.424712,Aud,2016-10-12 10:03:00,11.0,37.0,1509,90,-0.5235987755982988,L,R,0,120
Left,26_10_2016 level15_700_Robin 10_22 Left_T23,78,0,1925.822,0,6,-30,700,1141,9.0,7,1927.348,0,736629.454285,Aud,2016-10-26 10:22:00,10.0,36.0,1509,-60,-0.5235987755982988,L,L,1,30
Left,23_10_2016 level15_700_Robin 15_57 Left_T7,24,0,1414.393,0,6,-30,700,1061,9.0,7,1416.051,0,736626.681365,Aud,2016-10-23 15:57:00,9.0,36.0,1509,-60,-0.5235987755982988,L,L,1,30
Left,23_10_2016 level15_700_Robin 15_57 Left_T7,28,0,1473.269,1,6,-30,700,1161,9.0,3,1480.516,0,736626.682111,Aud,2016-10-23 15:57:00,9.0,36.0,1509,60,-0.5235987755982988,L,R,0,90
Left,12_10_2016 level15_700_Robin 10_3 Left,13,0,475.411,0,6,-30,700,1101,9.0,2,482.777,0,736615.424712,Aud,2016-10-12 10:03:00,11.0,37.0,1509,90,-0.5235987755982988,L,R,0,120
Left,12_10_2016 level15_700_Robin 10_3 Left,13,0,475.411,0,6,-30,700,1101,9.0,2,482.777,0,736615.424712,Aud,2016-10-12 10:03:00,11.0,37.0,1509,90,-0.5235987755982988,L,R,0,120
Left,26_10_2016 level15_700_Robin 10_22 Left_T23,78,0,1925.822,0,6,-30,700,1141,9.0,7,1927.348,0,736629.454285,Aud,2016-10-26 10:22:00,10.0,36.0,1509,-60,-0.5235987755982988,L,L,1,30
Left,26_10_2016 level15_700_Robin 10_22 Left_T23,28,0,1115.481,1,4,30,700,1201,0.0,3,1122.489,0,736629.44497,Aud,2016-10-26 10:22:00,11.0,36.0,1509,60,0.5235987755982988,R,R,1,30
Left,12_10_2016 level15_700_Robin 10_3 Left,20,0,598.603,0,4,30,700,1061,0.0,3,606.245,0,736615.426141,Aud,2016-10-12 10:03:00,9.5,37.0,1509,60,0.5235987755982988,R,R,1,30
Left,23_10_2016 level15_700_Robin 15_57 Left_T7,82,0,2137.146,0,4,30,700,1201,0.0,4,2138.365,1,736626.689725,Aud,2016-10-23 15:57:00,7.9,36.0,1509,30,0.5235987755982988,R,R,1,0
Left,12_10_2016 level15_700_Robin 10_3 Left,20,0,598.603,0,4,30,700,1061,0.0,3,606.245,0,736615.426141,Aud,2016-10-12 10:03:00,9.5,37.0,1509,60,0.5235987755982988,R,R,1,30
Left,23_10_2016 level15_700_Robin 15_57 Left_T7,87,0,2199.012,1,4,30,700,1061,0.0,6,2202.972,0,736626.690473,Aud,2016-10-23 15:57:00,7.9,36.0,1509,-30,0.5235987755982988,R,L,0,60
Left,23_10_2016 level15_700_Robin 15_57 Left_T7,87,0,2199.012,1,4,30,700,1061,0.0,6,2202.972,0,736626.690473,Aud,2016-10-23 15:57:00,7.9,36.0,1509,-30,0.5235987755982988,R,L,0,60
Left,26_10_2016 level15_700_Robin 10_22 Left_T23,88,0,2056.336,0,4,30,700,1121,0.0,4,2058.28,1,736629.455801,Aud,2016-10-26 10:22:00,,,1509,30,0.5235987755982988,R,R,1,0
Left,26_10_2016 level15_700_Robin 10_22 Left_T23,28,0,1115.481,1,4,30,700,1201,0.0,3,1122.489,0,736629.44497,Aud,2016-10-26 10:22:00,11.0,36.0,1509,60,0.5235987755982988,R,R,1,30
Left,12_10_2016 level15_700_Robin 10_3 Left,20,0,598.603,0,4,30,700,1061,0.0,3,606.245,0,736615.426141,Aud,2016-10-12 10:03:00,9.5,37.0,1509,60,0.5235987755982988,R,R,1,30
Left,25_10_2016 level15_700_Robin 8_27 Left_T9,28,0,968.885,0,4,30,700,1061,4.5,2,970.868,0,736628.363494,Aud,2016-10-25 08:27:00,8.1,36.0,1509,90,0.5235987755982988,R,R,1,60
Left,26_10_2016 level15_700_Robin 10_22 Left_T23,94,0,2129.6,0,4,30,700,1041,4.5,3,2131.28,0,736629.456646,Aud,2016-10-26 10:22:00,,,1509,60,0.5235987755982988,R,R,1,30
Left,25_10_2016 level15_700_Robin 8_27 Left_T9,67,0,1449.281,0,4,30,700,1001,4.5,2,1451.365,0,736628.369056,Aud,2016-10-25 08:27:00,9.2,36.0,1509,90,0.5235987755982988,R,R,1,60
Left,26_10_2016 level15_700_Robin 10_22 Left_T23,94,0,2129.6,0,4,30,700,1041,4.5,3,2131.28,0,736629.456646,Aud,2016-10-26 10:22:00,,,1509,60,0.5235987755982988,R,R,1,30
Left,26_10_2016 level15_700_Robin 10_22 Left_T23,94,0,2129.6,0,4,30,700,1041,4.5,3,2131.28,0,736629.456646,Aud,2016-10-26 10:22:00,,,1509,60,0.5235987755982988,R,R,1,30
Left,26_10_2016 level15_700_Robin 10_22 Left_T23,94,0,2129.6,0,4,30,700,1041,4.5,3,2131.28,0,736629.456646,Aud,2016-10-26 10:22:00,,,1509,60,0.5235987755982988,R,R,1,30
Left,25_10_2016 level15_700_Robin 8_27 Left_T9,67,0,1449.281,0,4,30,700,1001,4.5,2,1451.365,0,736628.369056,Aud,2016-10-25 08:27:00,9.2,36.0,1509,90,0.5235987755982988,R,R,1,60
Left,25_10_2016 level15_700_Robin 8_27 Left_T9,28,0,968.885,0,4,30,700,1061,4.5,2,970.868,0,736628.363494,Aud,2016-10-25 08:27:00,8.1,36.0,1509,90,0.5235987755982988,R,R,1,60
Left,25_10_2016 level15_700_Robin 8_27 Left_T9,67,0,1449.281,0,4,30,700,1001,4.5,2,1451.365,0,736628.369056,Aud,2016-10-25 08:27:00,9.2,36.0,1509,90,0.5235987755982988,R,R,1,60
Left,25_10_2016 level15_700_Robin 8_27 Left_T9,60,0,1382.239,0,4,30,700,1041,9.0,4,1383.996,1,736628.368277,Aud,2016-10-25 08:27:00,9.2,36.0,1509,30,0.5235987755982988,R,R,1,0
Left,23_10_2016 level15_700_Robin 15_57 Left_T7,12,0,1176.847,0,4,30,700,1141,9.0,4,1178.244,1,736626.678613,Aud,2016-10-23 15:57:00,9.3,36.0,1509,30,0.5235987755982988,R,R,1,0
Left,25_10_2016 level15_700_Robin 8_27 Left_T9,42,0,1154.547,0,4,30,700,1141,9.0,4,1155.995,1,736628.365638,Aud,2016-10-25 08:27:00,9.6,36.0,1509,30,0.5235987755982988,R,R,1,0
Left,25_10_2016 level15_700_Robin 8_27 Left_T9,60,0,1382.239,0,4,30,700,1041,9.0,4,1383.996,1,736628.368277,Aud,2016-10-25 08:27:00,9.2,36.0,1509,30,0.5235987755982988,R,R,1,0
Left,26_10_2016 level15_700_Robin 10_22 Left_T23,61,0,1665.913,0,4,30,700,1001,9.0,4,1667.842,1,736629.451282,Aud,2016-10-26 10:22:00,10.2,36.0,1509,30,0.5235987755982988,R,R,1,0
Left,26_10_2016 level15_700_Robin 10_22 Left_T23,61,0,1665.913,0,4,30,700,1001,9.0,4,1667.842,1,736629.451282,Aud,2016-10-26 10:22:00,10.2,36.0,1509,30,0.5235987755982988,R,R,1,0
Left,25_10_2016 level15_700_Robin 8_27 Left_T9,104,0,1982.931,0,4,30,700,1081,9.0,8,1987.08,0,736628.375256,Aud,2016-10-25 08:27:00,,,1509,-90,0.5235987755982988,R,L,0,120
Left,25_10_2016 level15_700_Robin 8_27 Left_T9,40,0,1124.637,0,4,30,700,1201,9.0,4,1126.279,1,736628.365293,Aud,2016-10-25 08:27:00,10.4,36.0,1509,30,0.5235987755982988,R,R,1,0
Left,26_10_2016 level15_700_Robin 10_22 Left_T23,61,0,1665.913,0,4,30,700,1001,9.0,4,1667.842,1,736629.451282,Aud,2016-10-26 10:22:00,10.2,36.0,1509,30,0.5235987755982988,R,R,1,0
Left,23_10_2016 level15_700_Robin 15_57 Left_T7,90,0,2238.277,0,3,60,700,1081,0.0,2,2240.205,0,736626.690903,Aud,2016-10-23 15:57:00,7.9,36.0,1509,90,1.0471975511965976,R,R,1,30
Left,23_10_2016 level15_700_Robin 15_57 Left_T7,90,0,2238.277,0,3,60,700,1081,0.0,2,2240.205,0,736626.690903,Aud,2016-10-23 15:57:00,7.9,36.0,1509,90,1.0471975511965976,R,R,1,30
Left,25_10_2016 level15_700_Robin 8_27 Left_T9,52,0,1285.509,0,3,60,700,1021,0.0,6,1287.359,0,736628.367158,Aud,2016-10-25 08:27:00,9.2,36.0,1509,-30,1.0471975511965976,R,L,0,90
Left,25_10_2016 level15_700_Robin 8_27 Left_T9,22,0,898.784,0,3,60,700,1041,0.0,2,906.248,0,736628.362747,Aud,2016-10-25 08:27:00,8.5,36.0,1509,90,1.0471975511965976,R,R,1,30
Left,26_10_2016 level15_700_Robin 10_22 Left_T23,72,0,1836.759,0,3,60,700,1201,0.0,3,1838.141,1,736629.453252,Aud,2016-10-26 10:22:00,10.0,36.0,1509,60,1.0471975511965976,R,R,1,0
Left,26_10_2016 level15_700_Robin 10_22 Left_T23,72,0,1836.759,0,3,60,700,1201,0.0,3,1838.141,1,736629.453252,Aud,2016-10-26 10:22:00,10.0,36.0,1509,60,1.0471975511965976,R,R,1,0
Left,23_10_2016 level15_700_Robin 15_57 Left_T7,40,0,1597.515,0,3,60,700,1041,0.0,4,1598.827,0,736626.68348,Aud,2016-10-23 15:57:00,8.4,36.0,1509,30,1.0471975511965976,R,R,1,30
Left,12_10_2016 level15_700_Robin 10_3 Left,22,0,647.451,0,3,60,700,1141,0.0,4,649.771,0,736615.426645,Aud,2016-10-12 10:03:00,9.5,37.0,1509,30,1.0471975511965976,R,R,1,30
Left,12_10_2016 level15_700_Robin 10_3 Left,22,0,647.451,0,3,60,700,1141,0.0,4,649.771,0,736615.426645,Aud,2016-10-12 10:03:00,9.5,37.0,1509,30,1.0471975511965976,R,R,1,30
Left,23_10_2016 level15_700_Robin 15_57 Left_T7,9,0,1119.049,0,3,60,700,1201,4.5,2,1125.304,0,736626.677999,Aud,2016-10-23 15:57:00,11.0,36.0,1509,90,1.0471975511965976,R,R,1,30
Left,12_10_2016 level15_700_Robin 10_3 Left,27,0,719.364,0,3,60,700,1121,4.5,4,720.956,0,736615.427469,Aud,2016-10-12 10:03:00,9.5,37.0,1509,30,1.0471975511965976,R,R,1,30
Left,26_10_2016 level15_700_Robin 10_22 Left_T23,57,0,1599.621,0,3,60,700,1061,4.5,2,1605.449,0,736629.45056,Aud,2016-10-26 10:22:00,9.4,36.0,1509,90,1.0471975511965976,R,R,1,30
Left,12_10_2016 level15_700_Robin 10_3 Left,27,0,719.364,0,3,60,700,1121,4.5,4,720.956,0,736615.427469,Aud,2016-10-12 10:03:00,9.5,37.0,1509,30,1.0471975511965976,R,R,1,30
Left,12_10_2016 level15_700_Robin 10_3 Left,27,0,719.364,0,3,60,700,1121,4.5,4,720.956,0,736615.427469,Aud,2016-10-12 10:03:00,9.5,37.0,1509,30,1.0471975511965976,R,R,1,30
Left,23_10_2016 level15_700_Robin 15_57 Left_T7,89,0,2227.932,0,3,60,700,1101,4.5,3,2229.22,1,736626.690776,Aud,2016-10-23 15:57:00,7.9,36.0,1509,60,1.0471975511965976,R,R,1,0
Left,23_10_2016 level15_700_Robin 15_57 Left_T7,9,0,1119.049,0,3,60,700,1201,4.5,2,1125.304,0,736626.677999,Aud,2016-10-23 15:57:00,11.0,36.0,1509,90,1.0471975511965976,R,R,1,30
Left,12_10_2016 level15_700_Robin 10_3 Left,27,0,719.364,0,3,60,700,1121,4.5,4,720.956,0,736615.427469,Aud,2016-10-12 10:03:00,9.5,37.0,1509,30,1.0471975511965976,R,R,1,30
Left,24_10_2016 level15_700_Robin 15_53 Left_T16-20,17,0,1620.241,0,3,60,700,1041,4.5,2,1621.865,0,736627.681034,Aud,2016-10-24 15:53:00,,,1509,90,1.0471975511965976,R,R,1,30
Left,26_10_2016 level15_700_Robin 10_22 Left_T23,89,0,2067.147,0,3,60,700,1101,9.0,2,2069.523,0,736629.45593,Aud,2016-10-26 10:22:00,,,1509,90,1.0471975511965976,R,R,1,30
Left,25_10_2016 level15_700_Robin 8_27 Left_T9,62,0,1409.684,0,3,60,700,1101,9.0,6,1411.245,0,736628.368592,Aud,2016-10-25 08:27:00,9.2,36.0,1509,-30,1.0471975511965976,R,L,0,90
Left,25_10_2016 level15_700_Robin 8_27 Left_T9,62,0,1409.684,0,3,60,700,1101,9.0,6,1411.245,0,736628.368592,Aud,2016-10-25 08:27:00,9.2,36.0,1509,-30,1.0471975511965976,R,L,0,90
Left,26_10_2016 level15_700_Robin 10_22 Left_T23,89,0,2067.147,0,3,60,700,1101,9.0,2,2069.523,0,736629.45593,Aud,2016-10-26 10:22:00,,,1509,90,1.0471975511965976,R,R,1,30
Left,23_10_2016 level15_700_Robin 15_57 Left_T7,7,0,1064.455,0,3,60,700,1021,9.0,2,1072.85,0,736626.677392,Aud,2016-10-23 15:57:00,11.0,36.0,1509,90,1.0471975511965976,R,R,1,30
Left,25_10_2016 level15_700_Robin 8_27 Left_T9,62,0,1409.684,0,3,60,700,1101,9.0,6,1411.245,0,736628.368592,Aud,2016-10-25 08:27:00,9.2,36.0,1509,-30,1.0471975511965976,R,L,0,90
Left,26_10_2016 level15_700_Robin 10_22 Left_T23,106,0,2302.617,0,3,60,700,1181,9.0,8,2303.839,0,736629.458643,Aud,2016-10-26 10:22:00,,,1509,-90,1.0471975511965976,R,L,0,150
Left,25_10_2016 level15_700_Robin 8_27 Left_T9,62,0,1409.684,0,3,60,700,1101,9.0,6,1411.245,0,736628.368592,Aud,2016-10-25 08:27:00,9.2,36.0,1509,-30,1.0471975511965976,R,L,0,90
Left,25_10_2016 level15_700_Robin 8_27 Left_T9,62,0,1409.684,0,3,60,700,1101,9.0,6,1411.245,0,736628.368592,Aud,2016-10-25 08:27:00,9.2,36.0,1509,-30,1.0471975511965976,R,L,0,90
Left,25_10_2016 level15_700_Robin 8_27 Left_T9,93,0,1723.536,0,2,90,700,1061,0.0,6,1724.997,0,736628.372222,Aud,2016-10-25 08:27:00,9.2,36.0,1509,-30,1.5707963267948966,R,L,0,120
Left,26_10_2016 level15_700_Robin 10_22 Left_T23,104,0,2285.269,0,2,90,700,1161,0.0,3,2287.071,0,736629.458449,Aud,2016-10-26 10:22:00,,,1509,60,1.5707963267948966,R,R,1,30
Left,26_10_2016 level15_700_Robin 10_22 Left_T23,104,0,2285.269,0,2,90,700,1161,0.0,3,2287.071,0,736629.458449,Aud,2016-10-26 10:22:00,,,1509,60,1.5707963267948966,R,R,1,30
Left,25_10_2016 level15_700_Robin 8_27 Left_T9,93,0,1723.536,0,2,90,700,1061,0.0,6,1724.997,0,736628.372222,Aud,2016-10-25 08:27:00,9.2,36.0,1509,-30,1.5707963267948966,R,L,0,120
Left,26_10_2016 level15_700_Robin 10_22 Left_T23,66,0,1769.707,0,2,90,700,1101,0.0,3,1771.516,0,736629.452481,Aud,2016-10-26 10:22:00,10.2,36.0,1509,60,1.5707963267948966,R,R,1,30
Left,26_10_2016 level15_700_Robin 10_22 Left_T23,104,0,2285.269,0,2,90,700,1161,0.0,3,2287.071,0,736629.458449,Aud,2016-10-26 10:22:00,,,1509,60,1.5707963267948966,R,R,1,30
Left,12_10_2016 level15_700_Robin 10_3 Left,34,0,811.714,0,2,90,700,1181,0.0,3,813.835,0,736615.428543,Aud,2016-10-12 10:03:00,8.9,37.0,1509,60,1.5707963267948966,R,R,1,30
Left,26_10_2016 level15_700_Robin 10_22 Left_T23,104,0,2285.269,0,2,90,700,1161,0.0,3,2287.071,0,736629.458449,Aud,2016-10-26 10:22:00,,,1509,60,1.5707963267948966,R,R,1,30
Left,12_10_2016 level15_700_Robin 10_3 Left,34,0,811.714,0,2,90,700,1181,0.0,3,813.835,0,736615.428543,Aud,2016-10-12 10:03:00,8.9,37.0,1509,60,1.5707963267948966,R,R,1,30
Left,23_10_2016 level15_700_Robin 15_57 Left_T7,94,0,2290.828,0,2,90,700,1161,4.5,3,2292.787,0,736626.691512,Aud,2016-10-23 15:57:00,,,1509,60,1.5707963267948966,R,R,1,30
Left,23_10_2016 level15_700_Robin 15_57 Left_T7,94,0,2290.828,0,2,90,700,1161,4.5,3,2292.787,0,736626.691512,Aud,2016-10-23 15:57:00,,,1509,60,1.5707963267948966,R,R,1,30
Left,25_10_2016 level15_700_Robin 8_27 Left_T9,90,0,1689.596,0,2,90,700,1121,4.5,8,1694.851,0,736628.371874,Aud,2016-10-25 08:27:00,9.2,36.0,1509,-90,1.5707963267948966,R,L,0,180
Left,23_10_2016 level15_700_Robin 15_57 Left_T7,32,0,1515.36,1,2,90,700,1101,4.5,2,1520.162,1,736626.68257,Aud,2016-10-23 15:57:00,9.0,36.0,1509,90,1.5707963267948966,R,R,1,0
Left,23_10_2016 level15_700_Robin 15_57 Left_T7,33,0,1531.995,0,2,90,700,1081,4.5,4,1533.315,0,736626.682722,Aud,2016-10-23 15:57:00,9.0,36.0,1509,30,1.5707963267948966,R,R,1,60
Left,23_10_2016 level15_700_Robin 15_57 Left_T7,32,0,1515.36,1,2,90,700,1101,4.5,2,1520.162,1,736626.68257,Aud,2016-10-23 15:57:00,9.0,36.0,1509,90,1.5707963267948966,R,R,1,0
Left,25_10_2016 level15_700_Robin 8_27 Left_T9,90,0,1689.596,0,2,90,700,1121,4.5,8,1694.851,0,736628.371874,Aud,2016-10-25 08:27:00,9.2,36.0,1509,-90,1.5707963267948966,R,L,0,180
Left,23_10_2016 level15_700_Robin 15_57 Left_T7,32,0,1515.36,1,2,90,700,1101,4.5,2,1520.162,1,736626.68257,Aud,2016-10-23 15:57:00,9.0,36.0,1509,90,1.5707963267948966,R,R,1,0
Left,23_10_2016 level15_700_Robin 15_57 Left_T7,33,0,1531.995,0,2,90,700,1081,4.5,4,1533.315,0,736626.682722,Aud,2016-10-23 15:57:00,9.0,36.0,1509,30,1.5707963267948966,R,R,1,60
Left,25_10_2016 level15_700_Robin 8_27 Left_T9,9,0,766.011,0,2,90,700,1001,9.0,3,767.783,0,736628.361144,Aud,2016-10-25 08:27:00,11.0,36.0,1509,60,1.5707963267948966,R,R,1,30
Left,25_10_2016 level15_700_Robin 8_27 Left_T9,49,0,1256.281,0,2,90,700,1061,9.0,4,1258.22,0,736628.366821,Aud,2016-10-25 08:27:00,9.4,36.0,1509,30,1.5707963267948966,R,R,1,60
Left,23_10_2016 level15_700_Robin 15_57 Left_T7,73,0,2024.773,0,2,90,700,1141,9.0,4,2026.191,0,736626.688427,Aud,2016-10-23 15:57:00,7.9,36.0,1509,30,1.5707963267948966,R,R,1,60
Left,25_10_2016 level15_700_Robin 8_27 Left_T9,9,0,766.011,0,2,90,700,1001,9.0,3,767.783,0,736628.361144,Aud,2016-10-25 08:27:00,11.0,36.0,1509,60,1.5707963267948966,R,R,1,30
Left,25_10_2016 level15_700_Robin 8_27 Left_T9,9,0,766.011,0,2,90,700,1001,9.0,3,767.783,0,736628.361144,Aud,2016-10-25 08:27:00,11.0,36.0,1509,60,1.5707963267948966,R,R,1,30
Left,23_10_2016 level15_700_Robin 15_57 Left_T7,70,0,1990.183,0,2,90,700,1181,9.0,3,1991.592,0,736626.688026,Aud,2016-10-23 15:57:00,8.0,36.0,1509,60,1.5707963267948966,R,R,1,30
Left,25_10_2016 level15_700_Robin 8_27 Left_T9,9,0,766.011,0,2,90,700,1001,9.0,3,767.783,0,736628.361144,Aud,2016-10-25 08:27:00,11.0,36.0,1509,60,1.5707963267948966,R,R,1,30
Left,25_10_2016 level15_700_Robin 8_27 Left_T9,49,0,1256.281,0,2,90,700,1061,9.0,4,1258.22,0,736628.366821,Aud,2016-10-25 08:27:00,9.4,36.0,1509,30,1.5707963267948966,R,R,1,60
Left,25_10_2016 level15_700_Robin 8_27 Left_T9,46,0,1218.549,0,2,90,700,1181,9.0,4,1221.777,0,736628.366398,Aud,2016-10-25 08:27:00,9.4,36.0,1509,30,1.5707963267948966,R,R,1,60
Right,11_10_2016 level15_700_Robin 8_32 RCool01,5,0,214.694,0,8,-90,700,1001,0.0,7,216.775,0,736614.358413,Aud,2016-10-11 08:32:00,37.0,8.0,1509,-60,-1.5707963267948966,L,L,1,30
Right,3_10_2016 level15_700_Robin 13_48 RCool_30,50,0,1814.609,1,8,-90,700,1081,0.0,3,1818.72,0,736606.596585,Aud,2016-10-03 13:48:00,,,1509,60,-1.5707963267948966,L,R,0,150
Right,3_10_2016 level15_700_Robin 13_48 RCool_30,50,0,1814.609,1,8,-90,700,1081,0.0,3,1818.72,0,736606.596585,Aud,2016-10-03 13:48:00,,,1509,60,-1.5707963267948966,L,R,0,150
Right,10_10_2016 level15_700_Robin 16_5 RCool04,62,0,1763.638,0,8,-90,700,1161,0.0,6,1765.354,0,736613.691217,Aud,2016-10-10 16:05:00,37.0,8.5,1509,-30,-1.5707963267948966,L,L,1,60
Right,11_10_2016 level15_700_Robin 8_32 RCool01,111,0,1473.478,1,8,-90,700,1201,0.0,7,1478.634,0,736614.373018,Aud,2016-10-11 08:32:00,37.0,7.3,1509,-60,-1.5707963267948966,L,L,1,30
Right,5_10_2016 level15_700_Robin 10_17 RCool_0,30,0,618.435,1,8,-90,700,1081,0.0,3,627.004,0,736608.436304,Aud,2016-10-05 10:17:00,37.0,8.0,1509,60,-1.5707963267948966,L,R,0,150
Right,10_10_2016 level15_700_Robin 16_5 RCool04,41,0,1432.769,0,8,-90,700,1061,0.0,4,1436.796,0,736613.687414,Aud,2016-10-10 16:05:00,37.0,8.5,1509,30,-1.5707963267948966,L,R,0,120
Right,10_10_2016 level15_700_Robin 16_5 RCool04,23,0,1204.289,0,8,-90,700,1181,0.0,7,1205.669,0,736613.684739,Aud,2016-10-10 16:05:00,37.0,10.0,1509,-60,-1.5707963267948966,L,L,1,30
Right,4_10_2016 level15_700_Robin 9_25 RCool_10,84,0,1317.615,0,8,-90,700,1041,0.0,8,1319.795,1,736607.408043,Aud,2016-10-04 09:25:00,37.0,9.4,1509,-90,-1.5707963267948966,L,L,1,0
Right,10_10_2016 level15_700_Robin 16_5 RCool04,114,0,2343.491,0,8,-90,700,1201,4.5,6,2345.336,0,736613.697929,Aud,2016-10-10 16:05:00,37.0,8.2,1509,-30,-1.5707963267948966,L,L,1,60
Right,11_10_2016 level15_700_Robin 8_32 RCool01,57,0,868.855,1,8,-90,700,1201,4.5,2,874.652,0,736614.366027,Aud,2016-10-11 08:32:00,37.0,7.7,1509,90,-1.5707963267948966,L,R,0,180
Right,10_10_2016 level15_700_Robin 16_5 RCool04,80,0,1954.601,0,8,-90,700,1121,4.5,6,1956.512,0,736613.693429,Aud,2016-10-10 16:05:00,37.0,8.2,1509,-30,-1.5707963267948966,L,L,1,60
Right,6_10_2016 level15_700_Robin 14_52 RCool04,32,0,1491.887,0,8,-90,700,1201,4.5,6,1493.719,0,736609.636976,Aud,2016-10-06 14:52:00,37.0,8.8,1509,-30,-1.5707963267948966,L,L,1,60
Right,5_10_2016 level15_700_Robin 10_17 RCool_0,66,0,1072.243,0,8,-90,700,1021,4.5,6,1073.956,0,736608.441477,Aud,2016-10-05 10:17:00,37.0,7.8,1509,-30,-1.5707963267948966,L,L,1,60
Right,10_10_2016 level15_700_Robin 16_5 RCool04,80,0,1954.601,0,8,-90,700,1121,4.5,6,1956.512,0,736613.693429,Aud,2016-10-10 16:05:00,37.0,8.2,1509,-30,-1.5707963267948966,L,L,1,60
Right,6_10_2016 level15_700_Robin 14_52 RCool04,54,0,1755.702,0,8,-90,700,1001,4.5,6,1757.166,0,736609.640026,Aud,2016-10-06 14:52:00,37.0,8.8,1509,-30,-1.5707963267948966,L,L,1,60
Right,6_10_2016 level15_700_Robin 14_52 RCool04,5,0,1111.704,0,8,-90,700,1121,4.5,6,1115.001,0,736609.632593,Aud,2016-10-06 14:52:00,37.0,10.9,1509,-30,-1.5707963267948966,L,L,1,60
Right,5_10_2016 level15_700_Robin 10_17 RCool_0,22,0,534.689,1,8,-90,700,1141,4.5,4,547.354,0,736608.435382,Aud,2016-10-05 10:17:00,37.0,8.0,1509,30,-1.5707963267948966,L,R,0,120
Right,11_10_2016 level15_700_Robin 8_32 RCool01,64,0,956.031,0,8,-90,700,1121,9.0,7,957.487,0,736614.366985,Aud,2016-10-11 08:32:00,37.0,7.7,1509,-60,-1.5707963267948966,L,L,1,30
Right,4_10_2016 level15_700_Robin 15_3 RCool30,69,0,1445.772,0,8,-90,700,1201,9.0,7,1448.278,0,736607.644368,Aud,2016-10-04 15:03:00,,,1509,-60,-1.5707963267948966,L,L,1,30
Right,4_10_2016 level15_700_Robin 9_25 RCool_10,57,0,961.217,0,8,-90,700,1001,9.0,7,964.596,0,736607.403931,Aud,2016-10-04 09:25:00,37.0,9.4,1509,-60,-1.5707963267948966,L,L,1,30
Right,4_10_2016 level15_700_Robin 15_3 RCool30,33,0,1011.826,0,8,-90,700,1201,9.0,3,1013.874,0,736607.63934,Aud,2016-10-04 15:03:00,37.0,11.0,1509,60,-1.5707963267948966,L,R,0,150
Right,5_10_2016 level15_700_Robin 10_17 RCool_0,117,0,1672.69,1,8,-90,700,1161,9.0,4,1683.738,0,736608.448535,Aud,2016-10-05 10:17:00,37.0,7.4,1509,30,-1.5707963267948966,L,R,0,120
Right,4_10_2016 level15_700_Robin 9_25 RCool_10,13,0,396.4,0,8,-90,700,1181,9.0,8,398.867,1,736607.397384,Aud,2016-10-04 09:25:00,37.0,9.4,1509,-90,-1.5707963267948966,L,L,1,0
Right,4_10_2016 level15_700_Robin 15_3 RCool30,33,0,1011.826,0,8,-90,700,1201,9.0,3,1013.874,0,736607.63934,Aud,2016-10-04 15:03:00,37.0,11.0,1509,60,-1.5707963267948966,L,R,0,150
Right,6_10_2016 level15_700_Robin 14_52 RCool04,34,0,1517.973,1,8,-90,700,1141,9.0,3,1522.207,0,736609.637306,Aud,2016-10-06 14:52:00,37.0,8.8,1509,60,-1.5707963267948966,L,R,0,150
Right,10_10_2016 level15_700_Robin 16_5 RCool04,31,0,1274.691,0,8,-90,700,1161,9.0,7,1276.349,0,736613.685558,Aud,2016-10-10 16:05:00,37.0,10.0,1509,-60,-1.5707963267948966,L,L,1,30
Right,3_10_2016 level15_700_Robin 13_48 RCool_30,44,0,1686.689,0,7,-60,700,1041,0.0,7,1689.664,1,736606.595092,Aud,2016-10-03 13:48:00,,,1509,-60,-1.0471975511965976,L,L,1,0
Right,11_10_2016 level15_700_Robin 8_32 RCool01,116,0,1540.746,0,7,-60,700,1161,0.0,6,1542.535,0,736614.373757,Aud,2016-10-11 08:32:00,37.0,7.3,1509,-30,-1.0471975511965976,L,L,1,30
Right,5_10_2016 level15_700_Robin 10_17 RCool_0,24,0,559.342,0,7,-60,700,1161,0.0,4,561.317,0,736608.435544,Aud,2016-10-05 10:17:00,37.0,8.0,1509,30,-1.0471975511965976,L,R,0,90
Right,5_10_2016 level15_700_Robin 10_17 RCool_0,91,0,1401.67,0,7,-60,700,1081,0.0,6,1403.692,0,736608.445294,Aud,2016-10-05 10:17:00,37.0,7.4,1509,-30,-1.0471975511965976,L,L,1,30
Right,6_10_2016 level15_700_Robin 14_52 RCool04,28,0,1438.797,0,7,-60,700,1081,0.0,6,1440.357,0,736609.636359,Aud,2016-10-06 14:52:00,37.0,10.7,1509,-30,-1.0471975511965976,L,L,1,30
Right,11_10_2016 level15_700_Robin 8_32 RCool01,92,0,1266.139,0,7,-60,700,1161,0.0,7,1267.454,1,736614.370573,Aud,2016-10-11 08:32:00,37.0,7.4,1509,-60,-1.0471975511965976,L,L,1,0
Right,5_10_2016 level15_700_Robin 10_17 RCool_0,24,0,559.342,0,7,-60,700,1161,0.0,4,561.317,0,736608.435544,Aud,2016-10-05 10:17:00,37.0,8.0,1509,30,-1.0471975511965976,L,R,0,90
Right,5_10_2016 level15_700_Robin 10_17 RCool_0,24,0,559.342,0,7,-60,700,1161,0.0,4,561.317,0,736608.435544,Aud,2016-10-05 10:17:00,37.0,8.0,1509,30,-1.0471975511965976,L,R,0,90
Right,5_10_2016 level15_700_Robin 10_17 RCool_0,24,0,559.342,0,7,-60,700,1161,0.0,4,561.317,0,736608.435544,Aud,2016-10-05 10:17:00,37.0,8.0,1509,30,-1.0471975511965976,L,R,0,90
Right,4_10_2016 level15_700_Robin 9_25 RCool_10,24,0,571.607,0,7,-60,700,1061,4.5,6,573.541,0,736607.399406,Aud,2016-10-04 09:25:00,37.0,9.4,1509,-30,-1.0471975511965976,L,L,1,30
Right,4_10_2016 level15_700_Robin 9_25 RCool_10,65,0,1055.885,0,7,-60,700,1081,4.5,6,1057.599,0,736607.405008,Aud,2016-10-04 09:25:00,37.0,9.4,1509,-30,-1.0471975511965976,L,L,1,30
Right,5_10_2016 level15_700_Robin 10_17 RCool_0,49,0,845.325,0,7,-60,700,1081,4.5,3,848.232,0,736608.438864,Aud,2016-10-05 10:17:00,37.0,7.5,1509,60,-1.0471975511965976,L,R,0,120
Right,5_10_2016 level15_700_Robin 10_17 RCool_0,43,0,777.416,1,7,-60,700,1141,4.5,3,786.548,0,736608.43815,Aud,2016-10-05 10:17:00,37.0,7.5,1509,60,-1.0471975511965976,L,R,0,120
Right,5_10_2016 level15_700_Robin 10_17 RCool_0,120,0,1719.663,0,7,-60,700,1001,4.5,6,1721.736,0,736608.448974,Aud,2016-10-05 10:17:00,37.0,6.9,1509,-30,-1.0471975511965976,L,L,1,30
Right,4_10_2016 level15_700_Robin 9_25 RCool_10,65,0,1055.885,0,7,-60,700,1081,4.5,6,1057.599,0,736607.405008,Aud,2016-10-04 09:25:00,37.0,9.4,1509,-30,-1.0471975511965976,L,L,1,30
Right,10_10_2016 level15_700_Robin 16_5 RCool04,11,0,1064.168,0,7,-60,700,1001,4.5,7,1066.441,1,736613.683128,Aud,2016-10-10 16:05:00,37.0,10.0,1509,-60,-1.0471975511965976,L,L,1,0
Right,5_10_2016 level15_700_Robin 10_17 RCool_0,2,0,243.196,0,7,-60,700,1181,4.5,2,255.18,0,736608.432001,Aud,2016-10-05 10:17:00,37.0,11.0,1509,90,-1.0471975511965976,L,R,0,150
Right,4_10_2016 level15_700_Robin 9_25 RCool_10,95,0,1452.494,0,7,-60,700,1081,4.5,2,1459.211,0,736607.409657,Aud,2016-10-04 09:25:00,,,1509,90,-1.0471975511965976,L,R,0,150
Right,11_10_2016 level15_700_Robin 8_32 RCool01,25,0,483.678,0,7,-60,700,1021,9.0,7,486.774,1,736614.361538,Aud,2016-10-11 08:32:00,37.0,8.3,1509,-60,-1.0471975511965976,L,L,1,0
Right,5_10_2016 level15_700_Robin 10_17 RCool_0,71,0,1156.059,0,7,-60,700,1001,9.0,6,1157.73,0,736608.442447,Aud,2016-10-05 10:17:00,37.0,7.4,1509,-30,-1.0471975511965976,L,L,1,30
Right,5_10_2016 level15_700_Robin 10_17 RCool_0,71,0,1156.059,0,7,-60,700,1001,9.0,6,1157.73,0,736608.442447,Aud,2016-10-05 10:17:00,37.0,7.4,1509,-30,-1.0471975511965976,L,L,1,30
Right,11_10_2016 level15_700_Robin 8_32 RCool01,45,0,736.448,1,7,-60,700,1101,9.0,3,741.454,0,736614.364485,Aud,2016-10-11 08:32:00,37.0,7.7,1509,60,-1.0471975511965976,L,R,0,120
Right,10_10_2016 level15_700_Robin 16_5 RCool04,20,0,1164.456,0,7,-60,700,1121,9.0,3,1166.02,0,736613.68428,Aud,2016-10-10 16:05:00,37.0,10.0,1509,60,-1.0471975511965976,L,R,0,120
Right,4_10_2016 level15_700_Robin 15_3 RCool30,56,0,1255.369,0,7,-60,700,1101,9.0,2,1260.561,0,736607.642195,Aud,2016-10-04 15:03:00,,,1509,90,-1.0471975511965976,L,R,0,150
Right,4_10_2016 level15_700_Robin 15_3 RCool30,56,0,1255.369,0,7,-60,700,1101,9.0,2,1260.561,0,736607.642195,Aud,2016-10-04 15:03:00,,,1509,90,-1.0471975511965976,L,R,0,150
Right,10_10_2016 level15_700_Robin 16_5 RCool04,84,0,1990.319,0,7,-60,700,1001,9.0,6,1992.54,0,736613.693846,Aud,2016-10-10 16:05:00,37.0,8.2,1509,-30,-1.0471975511965976,L,L,1,30
Right,10_10_2016 level15_700_Robin 16_5 RCool04,84,0,1990.319,0,7,-60,700,1001,9.0,6,1992.54,0,736613.693846,Aud,2016-10-10 16:05:00,37.0,8.2,1509,-30,-1.0471975511965976,L,L,1,30
Right,4_10_2016 level15_700_Robin 9_25 RCool_10,18,0,480.136,0,6,-30,700,1041,0.0,4,487.618,0,736607.398412,Aud,2016-10-04 09:25:00,37.0,9.4,1509,30,-0.5235987755982988,L,R,0,60
Right,5_10_2016 level15_700_Robin 10_17 RCool_0,20,0,509.748,0,6,-30,700,1201,0.0,7,512.227,0,736608.434975,Aud,2016-10-05 10:17:00,37.0,9.0,1509,-60,-0.5235987755982988,L,L,1,30
Right,7_10_2016 level15_700_Robin 8_44 RCool01,32,0,1038.071,0,6,-30,700,1201,0.0,4,1040.167,0,736610.376581,Aud,2016-10-07 08:44:00,37.0,9.9,1509,30,-0.5235987755982988,L,R,0,60
Right,6_10_2016 level15_700_Robin 14_52 RCool04,63,0,1844.17,1,6,-30,700,1081,0.0,3,1850.628,0,736609.641107,Aud,2016-10-06 14:52:00,37.0,8.8,1509,60,-0.5235987755982988,L,R,0,90
Right,4_10_2016 level15_700_Robin 9_25 RCool_10,68,0,1087.83,0,6,-30,700,1041,0.0,4,1089.687,0,736607.40538,Aud,2016-10-04 09:25:00,37.0,9.4,1509,30,-0.5235987755982988,L,R,0,60
Right,10_10_2016 level15_700_Robin 16_5 RCool04,12,0,1070.883,0,6,-30,700,1061,0.0,3,1073.092,0,736613.683205,Aud,2016-10-10 16:05:00,37.0,10.0,1509,60,-0.5235987755982988,L,R,0,90
Right,11_10_2016 level15_700_Robin 8_32 RCool01,101,0,1352.705,0,6,-30,700,1041,0.0,6,1359.466,1,736614.371638,Aud,2016-10-11 08:32:00,37.0,7.4,1509,-30,-0.5235987755982988,L,L,1,0
Right,6_10_2016 level15_700_Robin 14_52 RCool04,50,0,1709.902,0,6,-30,700,1161,0.0,6,1711.612,1,736609.639498,Aud,2016-10-06 14:52:00,37.0,8.8,1509,-30,-0.5235987755982988,L,L,1,0
Right,7_10_2016 level15_700_Robin 8_44 RCool01,32,0,1038.071,0,6,-30,700,1201,0.0,4,1040.167,0,736610.376581,Aud,2016-10-07 08:44:00,37.0,9.9,1509,30,-0.5235987755982988,L,R,0,60
Right,5_10_2016 level15_700_Robin 10_17 RCool_0,127,0,1805.169,0,6,-30,700,1101,4.5,7,1808.597,0,736608.44998,Aud,2016-10-05 10:17:00,37.0,7.3,1509,-60,-0.5235987755982988,L,L,1,30
Right,7_10_2016 level15_700_Robin 8_44 RCool01,49,0,1480.639,0,6,-30,700,1141,4.5,4,1481.854,0,736610.381693,Aud,2016-10-07 08:44:00,37.0,10.0,1509,30,-0.5235987755982988,L,R,0,60
Right,5_10_2016 level15_700_Robin 10_17 RCool_0,4,0,277.195,0,6,-30,700,1121,4.5,3,287.304,0,736608.432373,Aud,2016-10-05 10:17:00,37.0,11.0,1509,60,-0.5235987755982988,L,R,0,90
Right,11_10_2016 level15_700_Robin 8_32 RCool01,28,0,534.995,0,6,-30,700,1161,4.5,8,536.783,0,736614.362116,Aud,2016-10-11 08:32:00,37.0,8.3,1509,-90,-0.5235987755982988,L,L,1,60
Right,10_10_2016 level15_700_Robin 16_5 RCool04,71,0,1867.973,0,6,-30,700,1001,4.5,6,1869.565,1,736613.692423,Aud,2016-10-10 16:05:00,37.0,8.5,1509,-30,-0.5235987755982988,L,L,1,0
Right,11_10_2016 level15_700_Robin 8_32 RCool01,66,0,979.69,1,6,-30,700,1161,4.5,7,985.254,0,736614.367307,Aud,2016-10-11 08:32:00,37.0,7.7,1509,-60,-0.5235987755982988,L,L,1,30
Right,4_10_2016 level15_700_Robin 9_25 RCool_10,35,0,718.72,0,6,-30,700,1101,4.5,4,721.707,0,736607.40112,Aud,2016-10-04 09:25:00,37.0,9.4,1509,30,-0.5235987755982988,L,R,0,60
Right,6_10_2016 level15_700_Robin 14_52 RCool04,56,0,1781.412,0,6,-30,700,1141,4.5,4,1783.232,0,736609.640327,Aud,2016-10-06 14:52:00,37.0,8.8,1509,30,-0.5235987755982988,L,R,0,60
Right,6_10_2016 level15_700_Robin 14_52 RCool04,56,0,1781.412,0,6,-30,700,1141,4.5,4,1783.232,0,736609.640327,Aud,2016-10-06 14:52:00,37.0,8.8,1509,30,-0.5235987755982988,L,R,0,60
Right,4_10_2016 level15_700_Robin 9_25 RCool_10,92,0,1416.481,0,6,-30,700,1121,9.0,7,1419.048,0,736607.409192,Aud,2016-10-04 09:25:00,,,1509,-60,-0.5235987755982988,L,L,1,30
Right,10_10_2016 level15_700_Robin 16_5 RCool04,38,0,1398.49,0,6,-30,700,1001,9.0,6,1401.425,1,736613.687005,Aud,2016-10-10 16:05:00,37.0,8.5,1509,-30,-0.5235987755982988,L,L,1,0
Right,4_10_2016 level15_700_Robin 9_25 RCool_10,40,0,759.961,0,6,-30,700,1061,9.0,2,763.19,0,736607.401601,Aud,2016-10-04 09:25:00,37.0,9.4,1509,90,-0.5235987755982988,L,R,0,120
