Condition,originalFile,Trial,CorrectionTrial,StartTime,CenterReward,SpkrIdx,SpkrPos,duration,HoldTime,Atten,Response,RespTime,Correct,ComputerTime,Modality,SessionDate,LeftTemperature,RightTemperature,fNum,ResponseAngle,Spkr_Rad,spkr_hemifield,resp_hemifield,LatCorrect,Error
Bilateral,21_10_2016 level15_700_Robin 9_16 Bilateral_T8,22,0,1154.347,1,8,-90,700,1101,0.0,3,1160.23,0,736624.400207,Aud,2016-10-21 09:16:00,9.5,11.0,1509,60,-1.5707963267948966,L,R,0,150
Bilateral,19_10_2016 level15_700_Robin 14_57 Bilateral6-14_Control14-end,6,0,1961.303,0,8,-90,700,1081,0.0,8,1964.678,1,736622.646074,Aud,2016-10-19 14:57:00,10.9,6.6,1509,-90,-1.5707963267948966,L,L,1,0
Bilateral,19_10_2016 level15_700_Robin 14_57 Bilateral6-14_Control14-end,6,0,1961.303,0,8,-90,700,1081,0.0,8,1964.678,1,736622.646074,Aud,2016-10-19 14:57:00,10.9,6.6,1509,-90,-1.5707963267948966,L,L,1,0
Bilateral,13_10_2016 level15_700_Robin 8_40 Bilateral_T25,39,0,1102.335,0,8,-90,700,1201,0.0,3,1108.224,0,736616.374004,Aud,2016-10-13 08:40:00,,,1509,60,-1.5707963267948966,L,R,0,150
Bilateral,18_10_2016 level15_700_Robin 9_56 Bilateral_T0,17,0,374.348,0,8,-90,700,1081,0.0,8,376.035,1,736621.418696,Aud,2016-10-18 09:56:00,7.8,7.8,1509,-90,-1.5707963267948966,L,L,1,0
Bilateral,18_10_2016 level15_700_Robin 9_56 Bilateral_T0,57,0,961.845,0,8,-90,700,1181,0.0,7,963.232,0,736621.425492,Aud,2016-10-18 09:56:00,7.2,6.5,1509,-60,-1.5707963267948966,L,L,1,30
Bilateral,18_10_2016 level15_700_Robin 9_56 Bilateral_T0,35,0,625.565,1,8,-90,700,1081,0.0,8,630.475,1,736621.421641,Aud,2016-10-18 09:56:00,7.5,7.2,1509,-90,-1.5707963267948966,L,L,1,0
Bilateral,18_10_2016 level15_700_Robin 9_56 Bilateral_T0,57,0,961.845,0,8,-90,700,1181,0.0,7,963.232,0,736621.425492,Aud,2016-10-18 09:56:00,7.2,6.5,1509,-60,-1.5707963267948966,L,L,1,30
Bilateral,19_10_2016 level15_700_Robin 14_57 Bilateral6-14_Control14-end,6,0,1961.303,0,8,-90,700,1081,0.0,8,1964.678,1,736622.646074,Aud,2016-10-19 14:57:00,10.9,6.6,1509,-90,-1.5707963267948966,L,L,1,0
Bilateral,21_10_2016 level15_700_Robin 9_16 Bilateral_T8,22,0,1154.347,1,8,-90,700,1101,0.0,3,1160.23,0,736624.400207,Aud,2016-10-21 09:16:00,9.5,11.0,1509,60,-1.5707963267948966,L,R,0,150
Bilateral,18_10_2016 level15_700_Robin 9_56 Bilateral_T0,35,0,625.565,1,8,-90,700,1081,0.0,8,630.475,1,736621.421641,Aud,2016-10-18 09:56:00,7.5,7.2,1509,-90,-1.5707963267948966,L,L,1,0
Bilateral,13_10_2016 level15_700_Robin 8_40 Bilateral_T25,39,0,1102.335,0,8,-90,700,1201,0.0,3,1108.224,0,736616.374004,Aud,2016-10-13 08:40:00,,,1509,60,-1.5707963267948966,L,R,0,150
Bilateral,18_10_2016 level15_700_Robin 9_56 Bilateral_T0,17,0,374.348,0,8,-90,700,1081,0.0,8,376.035,1,736621.418696,Aud,2016-10-18 09:56:00,7.8,7.8,1509,-90,-1.5707963267948966,L,L,1,0
Bilateral,19_10_2016 level15_700_Robin 14_57 Bilateral6-14_Control14-end,6,0,1961.303,0,8,-90,700,1081,0.0,8,1964.678,1,736622.646074,Aud,2016-10-19 14:57:00,10.9,6.6,1509,-90,-1.5707963267948966,L,L,1,0
Bilateral,13_10_2016 level15_700_Robin 8_40 Bilateral_T25,39,0,1102.335,0,8,-90,700,1201,0.0,3,1108.224,0,736616.374004,Aud,2016-10-13 08:40:00,,,1509,60,-1.5707963267948966,L,R,0,150
Bilateral,18_10_2016 level15_700_Robin 9_56 Bilateral_T0,35,0,625.565,1,8,-90,700,1081,0.0,8,630.475,1,736621.421641,Aud,2016-10-18 09:56:00,7.5,7.2,1509,-90,-1.5707963267948966,L,L,1,0
Bilateral,18_10_2016 level15_700_Robin 9_56 Bilateral_T0,57,0,961.845,0,8,-90,700,1181,0.0,7,963.232,0,736621.425492,Aud,2016-10-18 09:56:00,7.2,6.5,1509,-60,-1.5707963267948966,L,L,1,30
Bilateral,13_10_2016 level15_700_Robin 8_40 Bilateral_T25,39,0,1102.335,0,8,-90,700,1201,0.0,3,1108.224,0,736616.374004,Aud,2016-10-13 08:40:00,,,1509,60,-1.5707963267948966,L,R,0,150
Bilateral,13_10_2016 level15_700_Robin 8_40 Bilateral_T25,39,0,1102.335,0,8,-90,700,1201,0.0,3,1108.224,0,736616.374004,Aud,2016-10-13 08:40:00,,,1509,60,-1.5707963267948966,L,R,0,150
Bilateral,19_10_2016 level15_700_Robin 14_57 Bilateral6-14_Control14-end,6,0,1961.303,0,8,-90,700,1081,0.0,8,1964.678,1,736622.646074,Aud,2016-10-19 14:57:00,10.9,6.6,1509,-90,-1.5707963267948966,L,L,1,0
Bilateral,19_10_2016 level15_700_Robin 14_57 Bilateral6-14_Control14-end,6,0,1961.303,0,8,-90,700,1081,0.0,8,1964.678,1,736622.646074,Aud,2016-10-19 14:57:00,10.9,6.6,1509,-90,-1.5707963267948966,L,L,1,0
Bilateral,18_10_2016 level15_700_Robin 9_56 Bilateral_T0,35,0,625.565,1,8,-90,700,1081,0.0,8,630.475,1,736621.421641,Aud,2016-10-18 09:56:00,7.5,7.2,1509,-90,-1.5707963267948966,L,L,1,0
Bilateral,19_10_2016 level15_700_Robin 9_56 Bilateral14_t15-54,49,0,1109.132,0,8,-90,700,1041,0.0,8,1110.478,1,736622.427058,Aud,2016-10-19 09:56:00,,,1509,-90,-1.5707963267948966,L,L,1,0
Bilateral,19_10_2016 level15_700_Robin 14_57 Bilateral6-14_Control14-end,6,0,1961.303,0,8,-90,700,1081,0.0,8,1964.678,1,736622.646074,Aud,2016-10-19 14:57:00,10.9,6.6,1509,-90,-1.5707963267948966,L,L,1,0
Bilateral,19_10_2016 level15_700_Robin 14_57 Bilateral6-14_Control14-end,6,0,1961.303,0,8,-90,700,1081,0.0,8,1964.678,1,736622.646074,Aud,2016-10-19 14:57:00,10.9,6.6,1509,-90,-1.5707963267948966,L,L,1,0
Bilateral,21_10_2016 level15_700_Robin 9_16 Bilateral_T8,22,0,1154.347,1,8,-90,700,1101,0.0,3,1160.23,0,736624.400207,Aud,2016-10-21 09:16:00,9.5,11.0,1509,60,-1.5707963267948966,L,R,0,150
Bilateral,21_10_2016 level15_700_Robin 9_16 Bilateral_T8,22,0,1154.347,1,8,-90,700,1101,0.0,3,1160.23,0,736624.400207,Aud,2016-10-21 09:16:00,9.5,11.0,1509,60,-1.5707963267948966,L,R,0,150
Bilateral,18_10_2016 level15_700_Robin 9_56 Bilateral_T0,57,0,961.845,0,8,-90,700,1181,0.0,7,963.232,0,736621.425492,Aud,2016-10-18 09:56:00,7.2,6.5,1509,-60,-1.5707963267948966,L,L,1,30
Bilateral,21_10_2016 level15_700_Robin 9_16 Bilateral_T8,22,0,1154.347,1,8,-90,700,1101,0.0,3,1160.23,0,736624.400207,Aud,2016-10-21 09:16:00,9.5,11.0,1509,60,-1.5707963267948966,L,R,0,150
Bilateral,19_10_2016 level15_700_Robin 9_56 Bilateral14_t15-54,35,0,915.423,0,8,-90,700,1001,4.5,8,917.386,1,736622.424823,Aud,2016-10-19 09:56:00,12.9,9.2,1509,-90,-1.5707963267948966,L,L,1,0
Bilateral,21_10_2016 level15_700_Robin 9_16 Bilateral_T8,56,0,1571.146,1,8,-90,700,1021,4.5,2,1577.872,0,736624.40504,Aud,2016-10-21 09:16:00,8.2,7.2,1509,90,-1.5707963267948966,L,R,0,180
Bilateral,21_10_2016 level15_700_Robin 9_16 Bilateral_T8,77,0,1881.489,0,8,-90,700,1001,4.5,8,1885.059,1,736624.408596,Aud,2016-10-21 09:16:00,7.2,7.9,1509,-90,-1.5707963267948966,L,L,1,0
Bilateral,19_10_2016 level15_700_Robin 9_56 Bilateral14_t15-54,28,0,785.456,0,8,-90,700,1061,4.5,3,791.831,0,736622.42337,Aud,2016-10-19 09:56:00,13.6,10.5,1509,60,-1.5707963267948966,L,R,0,150
Bilateral,18_10_2016 level15_700_Robin 9_56 Bilateral_T0,67,0,1157.727,0,8,-90,700,1061,4.5,8,1159.189,1,736621.42776,Aud,2016-10-18 09:56:00,7.2,6.5,1509,-90,-1.5707963267948966,L,L,1,0
Bilateral,21_10_2016 level15_700_Robin 9_16 Bilateral_T8,77,0,1881.489,0,8,-90,700,1001,4.5,8,1885.059,1,736624.408596,Aud,2016-10-21 09:16:00,7.2,7.9,1509,-90,-1.5707963267948966,L,L,1,0
Bilateral,19_10_2016 level15_700_Robin 9_56 Bilateral14_t15-54,28,0,785.456,0,8,-90,700,1061,4.5,3,791.831,0,736622.42337,Aud,2016-10-19 09:56:00,13.6,10.5,1509,60,-1.5707963267948966,L,R,0,150
Bilateral,19_10_2016 level15_700_Robin 9_56 Bilateral14_t15-54,35,0,915.423,0,8,-90,700,1001,4.5,8,917.386,1,736622.424823,Aud,2016-10-19 09:56:00,12.9,9.2,1509,-90,-1.5707963267948966,L,L,1,0
Bilateral,21_10_2016 level15_700_Robin 9_16 Bilateral_T8,41,0,1386.087,0,8,-90,700,1101,4.5,7,1387.951,0,736624.402842,Aud,2016-10-21 09:16:00,9.0,7.5,1509,-60,-1.5707963267948966,L,L,1,30
Bilateral,21_10_2016 level15_700_Robin 9_16 Bilateral_T8,56,0,1571.146,1,8,-90,700,1021,4.5,2,1577.872,0,736624.40504,Aud,2016-10-21 09:16:00,8.2,7.2,1509,90,-1.5707963267948966,L,R,0,180
Bilateral,21_10_2016 level15_700_Robin 9_16 Bilateral_T8,77,0,1881.489,0,8,-90,700,1001,4.5,8,1885.059,1,736624.408596,Aud,2016-10-21 09:16:00,7.2,7.9,1509,-90,-1.5707963267948966,L,L,1,0
Bilateral,21_10_2016 level15_700_Robin 9_16 Bilateral_T8,56,0,1571.146,1,8,-90,700,1021,4.5,2,1577.872,0,736624.40504,Aud,2016-10-21 09:16:00,8.2,7.2,1509,90,-1.5707963267948966,L,R,0,180
Bilateral,21_10_2016 level15_700_Robin 9_16 Bilateral_T8,56,0,1571.146,1,8,-90,700,1021,4.5,2,1577.872,0,736624.40504,Aud,2016-10-21 09:16:00,8.2,7.2,1509,90,-1.5707963267948966,L,R,0,180
Bilateral,18_10_2016 level15_700_Robin 9_56 Bilateral_T0,67,0,1157.727,0,8,-90,700,1061,4.5,8,1159.189,1,736621.42776,Aud,2016-10-18 09:56:00,7.2,6.5,1509,-90,-1.5707963267948966,L,L,1,0
Bilateral,21_10_2016 level15_700_Robin 9_16 Bilateral_T8,41,0,1386.087,0,8,-90,700,1101,4.5,7,1387.951,0,736624.402842,Aud,2016-10-21 09:16:00,9.0,7.5,1509,-60,-1.5707963267948966,L,L,1,30
Bilateral,21_10_2016 level15_700_Robin 9_16 Bilateral_T8,56,0,1571.146,1,8,-90,700,1021,4.5,2,1577.872,0,736624.40504,Aud,2016-10-21 09:16:00,8.2,7.2,1509,90,-1.5707963267948966,L,R,0,180
Bilateral,19_10_2016 level15_700_Robin 9_56 Bilateral14_t15-54,28,0,785.456,0,8,-90,700,1061,4.5,3,791.831,0,736622.42337,Aud,2016-10-19 09:56:00,13.6,10.5,1509,60,-1.5707963267948966,L,R,0,150
Bilateral,19_10_2016 level15_700_Robin 9_56 Bilateral14_t15-54,35,0,915.423,0,8,-90,700,1001,4.5,8,917.386,1,736622.424823,Aud,2016-10-19 09:56:00,12.9,9.2,1509,-90,-1.5707963267948966,L,L,1,0
Bilateral,19_10_2016 level15_700_Robin 9_56 Bilateral14_t15-54,28,0,785.456,0,8,-90,700,1061,4.5,3,791.831,0,736622.42337,Aud,2016-10-19 09:56:00,13.6,10.5,1509,60,-1.5707963267948966,L,R,0,150
Bilateral,21_10_2016 level15_700_Robin 9_16 Bilateral_T8,77,0,1881.489,0,8,-90,700,1001,4.5,8,1885.059,1,736624.408596,Aud,2016-10-21 09:16:00,7.2,7.9,1509,-90,-1.5707963267948966,L,L,1,0
Bilateral,18_10_2016 level15_700_Robin 9_56 Bilateral_T0,67,0,1157.727,0,8,-90,700,1061,4.5,8,1159.189,1,736621.42776,Aud,2016-10-18 09:56:00,7.2,6.5,1509,-90,-1.5707963267948966,L,L,1,0
Bilateral,19_10_2016 level15_700_Robin 9_56 Bilateral14_t15-54,28,0,785.456,0,8,-90,700,1061,4.5,3,791.831,0,736622.42337,Aud,2016-10-19 09:56:00,13.6,10.5,1509,60,-1.5707963267948966,L,R,0,150
Bilateral,21_10_2016 level15_700_Robin 9_16 Bilateral_T8,56,0,1571.146,1,8,-90,700,1021,4.5,2,1577.872,0,736624.40504,Aud,2016-10-21 09:16:00,8.2,7.2,1509,90,-1.5707963267948966,L,R,0,180
Bilateral,19_10_2016 level15_700_Robin 9_56 Bilateral14_t15-54,35,0,915.423,0,8,-90,700,1001,4.5,8,917.386,1,736622.424823,Aud,2016-10-19 09:56:00,12.9,9.2,1509,-90,-1.5707963267948966,L,L,1,0
Bilateral,19_10_2016 level15_700_Robin 9_56 Bilateral14_t15-54,35,0,915.423,0,8,-90,700,1001,4.5,8,917.386,1,736622.424823,Aud,2016-10-19 09:56:00,12.9,9.2,1509,-90,-1.5707963267948966,L,L,1,0
Bilateral,21_10_2016 level15_700_Robin 9_16 Bilateral_T8,77,0,1881.489,0,8,-90,700,1001,4.5,8,1885.059,1,736624.408596,Aud,2016-10-21 09:16:00,7.2,7.9,1509,-90,-1.5707963267948966,L,L,1,0
Bilateral,18_10_2016 level15_700_Robin 9_56 Bilateral_T0,67,0,1157.727,0,8,-90,700,1061,4.5,8,1159.189,1,736621.42776,Aud,2016-10-18 09:56:00,7.2,6.5,1509,-90,-1.5707963267948966,L,L,1,0
Bilateral,21_10_2016 level15_700_Robin 9_16 Bilateral_T8,41,0,1386.087,0,8,-90,700,1101,4.5,7,1387.951,0,736624.402842,Aud,2016-10-21 09:16:00,9.0,7.5,1509,-60,-1.5707963267948966,L,L,1,30
Bilateral,21_10_2016 level15_700_Robin 9_16 Bilateral_T8,41,0,1386.087,0,8,-90,700,1101,4.5,7,1387.951,0,736624.402842,Aud,2016-10-21 09:16:00,9.0,7.5,1509,-60,-1.5707963267948966,L,L,1,30
Bilateral,21_10_2016 level15_700_Robin 9_16 Bilateral_T8,28,0,1221.047,0,8,-90,700,1001,9.0,8,1222.62,1,736624.400928,Aud,2016-10-21 09:16:00,9.0,7.5,1509,-90,-1.5707963267948966,L,L,1,0
Bilateral,13_10_2016 level15_700_Robin 8_40 Bilateral_T25,41,0,1180.093,1,8,-90,700,1141,9.0,2,1192.084,0,736616.374975,Aud,2016-10-13 08:40:00,,,1509,90,-1.5707963267948966,L,R,0,180
Bilateral,13_10_2016 level15_700_Robin 8_40 Bilateral_T25,41,0,1180.093,1,8,-90,700,1141,9.0,2,1192.084,0,736616.374975,Aud,2016-10-13 08:40:00,,,1509,90,-1.5707963267948966,L,R,0,180
Bilateral,21_10_2016 level15_700_Robin 9_16 Bilateral_T8,28,0,1221.047,0,8,-90,700,1001,9.0,8,1222.62,1,736624.400928,Aud,2016-10-21 09:16:00,9.0,7.5,1509,-90,-1.5707963267948966,L,L,1,0
Bilateral,18_10_2016 level15_700_Robin 9_56 Bilateral_T0,36,0,643.366,0,8,-90,700,1201,9.0,6,644.763,0,736621.421807,Aud,2016-10-18 09:56:00,7.5,7.2,1509,-30,-1.5707963267948966,L,L,1,60
Bilateral,18_10_2016 level15_700_Robin 9_56 Bilateral_T0,7,0,228.556,0,8,-90,700,1161,9.0,2,240.585,0,736621.417128,Aud,2016-10-18 09:56:00,11.0,11.0,1509,90,-1.5707963267948966,L,R,0,180
Bilateral,18_10_2016 level15_700_Robin 9_56 Bilateral_T0,7,0,228.556,0,8,-90,700,1161,9.0,2,240.585,0,736621.417128,Aud,2016-10-18 09:56:00,11.0,11.0,1509,90,-1.5707963267948966,L,R,0,180
Bilateral,13_10_2016 level15_700_Robin 8_40 Bilateral_T25,41,0,1180.093,1,8,-90,700,1141,9.0,2,1192.084,0,736616.374975,Aud,2016-10-13 08:40:00,,,1509,90,-1.5707963267948966,L,R,0,180
Bilateral,21_10_2016 level15_700_Robin 9_16 Bilateral_T8,28,0,1221.047,0,8,-90,700,1001,9.0,8,1222.62,1,736624.400928,Aud,2016-10-21 09:16:00,9.0,7.5,1509,-90,-1.5707963267948966,L,L,1,0
Bilateral,13_10_2016 level15_700_Robin 8_40 Bilateral_T25,41,0,1180.093,1,8,-90,700,1141,9.0,2,1192.084,0,736616.374975,Aud,2016-10-13 08:40:00,,,1509,90,-1.5707963267948966,L,R,0,180
Bilateral,18_10_2016 level15_700_Robin 9_56 Bilateral_T0,36,0,643.366,0,8,-90,700,1201,9.0,6,644.763,0,736621.421807,Aud,2016-10-18 09:56:00,7.5,7.2,1509,-30,-1.5707963267948966,L,L,1,60
Bilateral,13_10_2016 level15_700_Robin 8_40 Bilateral_T25,41,0,1180.093,1,8,-90,700,1141,9.0,2,1192.084,0,736616.374975,Aud,2016-10-13 08:40:00,,,1509,90,-1.5707963267948966,L,R,0,180
Bilateral,18_10_2016 level15_700_Robin 9_56 Bilateral_T0,7,0,228.556,0,8,-90,700,1161,9.0,2,240.585,0,736621.417128,Aud,2016-10-18 09:56:00,11.0,11.0,1509,90,-1.5707963267948966,L,R,0,180
Bilateral,19_10_2016 level15_700_Robin 9_56 Bilateral14_t15-54,40,0,1003.139,0,8,-90,700,1121,9.0,8,1004.128,1,736622.425828,Aud,2016-10-19 09:56:00,,,1509,-90,-1.5707963267948966,L,L,1,0
Bilateral,21_10_2016 level15_700_Robin 9_16 Bilateral_T8,28,0,1221.047,0,8,-90,700,1001,9.0,8,1222.62,1,736624.400928,Aud,2016-10-21 09:16:00,9.0,7.5,1509,-90,-1.5707963267948966,L,L,1,0
Bilateral,18_10_2016 level15_700_Robin 9_56 Bilateral_T0,36,0,643.366,0,8,-90,700,1201,9.0,6,644.763,0,736621.421807,Aud,2016-10-18 09:56:00,7.5,7.2,1509,-30,-1.5707963267948966,L,L,1,60
Bilateral,18_10_2016 level15_700_Robin 9_56 Bilateral_T0,36,0,643.366,0,8,-90,700,1201,9.0,6,644.763,0,736621.421807,Aud,2016-10-18 09:56:00,7.5,7.2,1509,-30,-1.5707963267948966,L,L,1,60
Bilateral,21_10_2016 level15_700_Robin 9_16 Bilateral_T8,73,0,1799.599,0,8,-90,700,1141,9.0,8,1800.959,1,736624.407622,Aud,2016-10-21 09:16:00,7.2,7.9,1509,-90,-1.5707963267948966,L,L,1,0
Bilateral,21_10_2016 level15_700_Robin 9_16 Bilateral_T8,73,0,1799.599,0,8,-90,700,1141,9.0,8,1800.959,1,736624.407622,Aud,2016-10-21 09:16:00,7.2,7.9,1509,-90,-1.5707963267948966,L,L,1,0
Bilateral,21_10_2016 level15_700_Robin 9_16 Bilateral_T8,73,0,1799.599,0,8,-90,700,1141,9.0,8,1800.959,1,736624.407622,Aud,2016-10-21 09:16:00,7.2,7.9,1509,-90,-1.5707963267948966,L,L,1,0
Bilateral,19_10_2016 level15_700_Robin 9_56 Bilateral14_t15-54,40,0,1003.139,0,8,-90,700,1121,9.0,8,1004.128,1,736622.425828,Aud,2016-10-19 09:56:00,,,1509,-90,-1.5707963267948966,L,L,1,0
Bilateral,21_10_2016 level15_700_Robin 9_16 Bilateral_T8,73,0,1799.599,0,8,-90,700,1141,9.0,8,1800.959,1,736624.407622,Aud,2016-10-21 09:16:00,7.2,7.9,1509,-90,-1.5707963267948966,L,L,1,0
Bilateral,18_10_2016 level15_700_Robin 9_56 Bilateral_T0,36,0,643.366,0,8,-90,700,1201,9.0,6,644.763,0,736621.421807,Aud,2016-10-18 09:56:00,7.5,7.2,1509,-30,-1.5707963267948966,L,L,1,60
Bilateral,18_10_2016 level15_700_Robin 9_56 Bilateral_T0,7,0,228.556,0,8,-90,700,1161,9.0,2,240.585,0,736621.417128,Aud,2016-10-18 09:56:00,11.0,11.0,1509,90,-1.5707963267948966,L,R,0,180
Bilateral,19_10_2016 level15_700_Robin 9_56 Bilateral14_t15-54,40,0,1003.139,0,8,-90,700,1121,9.0,8,1004.128,1,736622.425828,Aud,2016-10-19 09:56:00,,,1509,-90,-1.5707963267948966,L,L,1,0
Bilateral,13_10_2016 level15_700_Robin 8_40 Bilateral_T25,41,0,1180.093,1,8,-90,700,1141,9.0,2,1192.084,0,736616.374975,Aud,2016-10-13 08:40:00,,,1509,90,-1.5707963267948966,L,R,0,180
Bilateral,13_10_2016 level15_700_Robin 8_40 Bilateral_T25,41,0,1180.093,1,8,-90,700,1141,9.0,2,1192.084,0,736616.374975,Aud,2016-10-13 08:40:00,,,1509,90,-1.5707963267948966,L,R,0,180
Bilateral,19_10_2016 level15_700_Robin 9_56 Bilateral14_t15-54,40,0,1003.139,0,8,-90,700,1121,9.0,8,1004.128,1,736622.425828,Aud,2016-10-19 09:56:00,,,1509,-90,-1.5707963267948966,L,L,1,0
Bilateral,21_10_2016 level15_700_Robin 9_16 Bilateral_T8,73,0,1799.599,0,8,-90,700,1141,9.0,8,1800.959,1,736624.407622,Aud,2016-10-21 09:16:00,7.2,7.9,1509,-90,-1.5707963267948966,L,L,1,0
Bilateral,21_10_2016 level15_700_Robin 9_16 Bilateral_T8,61,0,1645.328,0,7,-60,700,1081,0.0,8,1646.699,0,736624.405837,Aud,2016-10-21 09:16:00,8.2,7.2,1509,-90,-1.0471975511965976,L,L,1,30
Bilateral,21_10_2016 level15_700_Robin 9_16 Bilateral_T8,80,0,1925.547,0,7,-60,700,1061,0.0,7,1927.271,1,736624.409083,Aud,2016-10-21 09:16:00,7.2,7.9,1509,-60,-1.0471975511965976,L,L,1,0
Bilateral,21_10_2016 level15_700_Robin 9_16 Bilateral_T8,80,0,1925.547,0,7,-60,700,1061,0.0,7,1927.271,1,736624.409083,Aud,2016-10-21 09:16:00,7.2,7.9,1509,-60,-1.0471975511965976,L,L,1,0
Bilateral,18_10_2016 level15_700_Robin 9_56 Bilateral_T0,11,0,296.627,1,7,-60,700,1101,0.0,6,300.89,0,736621.417826,Aud,2016-10-18 09:56:00,7.8,7.8,1509,-30,-1.0471975511965976,L,L,1,30
Bilateral,21_10_2016 level15_700_Robin 9_16 Bilateral_T8,80,0,1925.547,0,7,-60,700,1061,0.0,7,1927.271,1,736624.409083,Aud,2016-10-21 09:16:00,7.2,7.9,1509,-60,-1.0471975511965976,L,L,1,0
Bilateral,13_10_2016 level15_700_Robin 8_40 Bilateral_T25,54,0,1501.143,0,7,-60,700,1001,0.0,2,1510.495,0,736616.37866,Aud,2016-10-13 08:40:00,,,1509,90,-1.0471975511965976,L,R,0,150
Bilateral,13_10_2016 level15_700_Robin 8_40 Bilateral_T25,35,0,1028.542,0,7,-60,700,1121,0.0,7,1029.995,1,736616.373099,Aud,2016-10-13 08:40:00,,,1509,-60,-1.0471975511965976,L,L,1,0
Bilateral,21_10_2016 level15_700_Robin 9_16 Bilateral_T8,40,0,1369.309,1,7,-60,700,1001,0.0,7,1374.429,1,736624.402686,Aud,2016-10-21 09:16:00,9.0,7.5,1509,-60,-1.0471975511965976,L,L,1,0
Bilateral,21_10_2016 level15_700_Robin 9_16 Bilateral_T8,61,0,1645.328,0,7,-60,700,1081,0.0,8,1646.699,0,736624.405837,Aud,2016-10-21 09:16:00,8.2,7.2,1509,-90,-1.0471975511965976,L,L,1,30
Bilateral,21_10_2016 level15_700_Robin 9_16 Bilateral_T8,61,0,1645.328,0,7,-60,700,1081,0.0,8,1646.699,0,736624.405837,Aud,2016-10-21 09:16:00,8.2,7.2,1509,-90,-1.0471975511965976,L,L,1,30
Bilateral,21_10_2016 level15_700_Robin 9_16 Bilateral_T8,40,0,1369.309,1,7,-60,700,1001,0.0,7,1374.429,1,736624.402686,Aud,2016-10-21 09:16:00,9.0,7.5,1509,-60,-1.0471975511965976,L,L,1,0
Bilateral,13_10_2016 level15_700_Robin 8_40 Bilateral_T25,54,0,1501.143,0,7,-60,700,1001,0.0,2,1510.495,0,736616.37866,Aud,2016-10-13 08:40:00,,,1509,90,-1.0471975511965976,L,R,0,150
Bilateral,21_10_2016 level15_700_Robin 9_16 Bilateral_T8,40,0,1369.309,1,7,-60,700,1001,0.0,7,1374.429,1,736624.402686,Aud,2016-10-21 09:16:00,9.0,7.5,1509,-60,-1.0471975511965976,L,L,1,0
Bilateral,21_10_2016 level15_700_Robin 9_16 Bilateral_T8,40,0,1369.309,1,7,-60,700,1001,0.0,7,1374.429,1,736624.402686,Aud,2016-10-21 09:16:00,9.0,7.5,1509,-60,-1.0471975511965976,L,L,1,0
Bilateral,18_10_2016 level15_700_Robin 9_56 Bilateral_T0,11,0,296.627,1,7,-60,700,1101,0.0,6,300.89,0,736621.417826,Aud,2016-10-18 09:56:00,7.8,7.8,1509,-30,-1.0471975511965976,L,L,1,30
Bilateral,21_10_2016 level15_700_Robin 9_16 Bilateral_T8,40,0,1369.309,1,7,-60,700,1001,0.0,7,1374.429,1,736624.402686,Aud,2016-10-21 09:16:00,9.0,7.5,1509,-60,-1.0471975511965976,L,L,1,0
Bilateral,18_10_2016 level15_700_Robin 9_56 Bilateral_T0,11,0,296.627,1,7,-60,700,1101,0.0,6,300.89,0,736621.417826,Aud,2016-10-18 09:56:00,7.8,7.8,1509,-30,-1.0471975511965976,L,L,1,30
Bilateral,21_10_2016 level15_700_Robin 9_16 Bilateral_T8,61,0,1645.328,0,7,-60,700,1081,0.0,8,1646.699,0,736624.405837,Aud,2016-10-21 09:16:00,8.2,7.2,1509,-90,-1.0471975511965976,L,L,1,30
Bilateral,21_10_2016 level15_700_Robin 9_16 Bilateral_T8,80,0,1925.547,0,7,-60,700,1061,0.0,7,1927.271,1,736624.409083,Aud,2016-10-21 09:16:00,7.2,7.9,1509,-60,-1.0471975511965976,L,L,1,0
Bilateral,13_10_2016 level15_700_Robin 8_40 Bilateral_T25,54,0,1501.143,0,7,-60,700,1001,0.0,2,1510.495,0,736616.37866,Aud,2016-10-13 08:40:00,,,1509,90,-1.0471975511965976,L,R,0,150
Bilateral,21_10_2016 level15_700_Robin 9_16 Bilateral_T8,61,0,1645.328,0,7,-60,700,1081,0.0,8,1646.699,0,736624.405837,Aud,2016-10-21 09:16:00,8.2,7.2,1509,-90,-1.0471975511965976,L,L,1,30
Bilateral,21_10_2016 level15_700_Robin 9_16 Bilateral_T8,61,0,1645.328,0,7,-60,700,1081,0.0,8,1646.699,0,736624.405837,Aud,2016-10-21 09:16:00,8.2,7.2,1509,-90,-1.0471975511965976,L,L,1,30
Bilateral,21_10_2016 level15_700_Robin 9_16 Bilateral_T8,80,0,1925.547,0,7,-60,700,1061,0.0,7,1927.271,1,736624.409083,Aud,2016-10-21 09:16:00,7.2,7.9,1509,-60,-1.0471975511965976,L,L,1,0
Bilateral,21_10_2016 level15_700_Robin 9_16 Bilateral_T8,61,0,1645.328,0,7,-60,700,1081,0.0,8,1646.699,0,736624.405837,Aud,2016-10-21 09:16:00,8.2,7.2,1509,-90,-1.0471975511965976,L,L,1,30
Bilateral,13_10_2016 level15_700_Robin 8_40 Bilateral_T25,54,0,1501.143,0,7,-60,700,1001,0.0,2,1510.495,0,736616.37866,Aud,2016-10-13 08:40:00,,,1509,90,-1.0471975511965976,L,R,0,150
Bilateral,21_10_2016 level15_700_Robin 9_16 Bilateral_T8,80,0,1925.547,0,7,-60,700,1061,0.0,7,1927.271,1,736624.409083,Aud,2016-10-21 09:16:00,7.2,7.9,1509,-60,-1.0471975511965976,L,L,1,0
Bilateral,21_10_2016 level15_700_Robin 9_16 Bilateral_T8,61,0,1645.328,0,7,-60,700,1081,0.0,8,1646.699,0,736624.405837,Aud,2016-10-21 09:16:00,8.2,7.2,1509,-90,-1.0471975511965976,L,L,1,30
Bilateral,21_10_2016 level15_700_Robin 9_16 Bilateral_T8,61,0,1645.328,0,7,-60,700,1081,0.0,8,1646.699,0,736624.405837,Aud,2016-10-21 09:16:00,8.2,7.2,1509,-90,-1.0471975511965976,L,L,1,30
Bilateral,21_10_2016 level15_700_Robin 9_16 Bilateral_T8,80,0,1925.547,0,7,-60,700,1061,0.0,7,1927.271,1,736624.409083,Aud,2016-10-21 09:16:00,7.2,7.9,1509,-60,-1.0471975511965976,L,L,1,0
Bilateral,21_10_2016 level15_700_Robin 9_16 Bilateral_T8,29,0,1235.593,0,7,-60,700,1161,4.5,7,1237.409,1,736624.401099,Aud,2016-10-21 09:16:00,9.0,7.5,1509,-60,-1.0471975511965976,L,L,1,0
Bilateral,18_10_2016 level15_700_Robin 9_56 Bilateral_T0,46,0,819.77,0,7,-60,700,1021,4.5,4,826.291,0,736621.423907,Aud,2016-10-18 09:56:00,7.2,6.5,1509,30,-1.0471975511965976,L,R,0,90
Bilateral,19_10_2016 level15_700_Robin 14_57 Bilateral6-14_Control14-end,7,0,1985.37,0,7,-60,700,1141,4.5,3,1987.534,0,736622.646339,Aud,2016-10-19 14:57:00,10.9,6.6,1509,60,-1.0471975511965976,L,R,0,120
Bilateral,21_10_2016 level15_700_Robin 9_16 Bilateral_T8,29,0,1235.593,0,7,-60,700,1161,4.5,7,1237.409,1,736624.401099,Aud,2016-10-21 09:16:00,9.0,7.5,1509,-60,-1.0471975511965976,L,L,1,0
Bilateral,18_10_2016 level15_700_Robin 9_56 Bilateral_T0,46,0,819.77,0,7,-60,700,1021,4.5,4,826.291,0,736621.423907,Aud,2016-10-18 09:56:00,7.2,6.5,1509,30,-1.0471975511965976,L,R,0,90
Bilateral,18_10_2016 level15_700_Robin 9_56 Bilateral_T0,78,0,1352.329,0,7,-60,700,1081,4.5,2,1354.309,0,736621.430018,Aud,2016-10-18 09:56:00,7.7,7.2,1509,90,-1.0471975511965976,L,R,0,150
Bilateral,18_10_2016 level15_700_Robin 9_56 Bilateral_T0,46,0,819.77,0,7,-60,700,1021,4.5,4,826.291,0,736621.423907,Aud,2016-10-18 09:56:00,7.2,6.5,1509,30,-1.0471975511965976,L,R,0,90
Bilateral,18_10_2016 level15_700_Robin 9_56 Bilateral_T0,78,0,1352.329,0,7,-60,700,1081,4.5,2,1354.309,0,736621.430018,Aud,2016-10-18 09:56:00,7.7,7.2,1509,90,-1.0471975511965976,L,R,0,150
Bilateral,18_10_2016 level15_700_Robin 9_56 Bilateral_T0,78,0,1352.329,0,7,-60,700,1081,4.5,2,1354.309,0,736621.430018,Aud,2016-10-18 09:56:00,7.7,7.2,1509,90,-1.0471975511965976,L,R,0,150
Bilateral,18_10_2016 level15_700_Robin 9_56 Bilateral_T0,78,0,1352.329,0,7,-60,700,1081,4.5,2,1354.309,0,736621.430018,Aud,2016-10-18 09:56:00,7.7,7.2,1509,90,-1.0471975511965976,L,R,0,150
Bilateral,18_10_2016 level15_700_Robin 9_56 Bilateral_T0,78,0,1352.329,0,7,-60,700,1081,4.5,2,1354.309,0,736621.430018,Aud,2016-10-18 09:56:00,7.7,7.2,1509,90,-1.0471975511965976,L,R,0,150
Bilateral,18_10_2016 level15_700_Robin 9_56 Bilateral_T0,78,0,1352.329,0,7,-60,700,1081,4.5,2,1354.309,0,736621.430018,Aud,2016-10-18 09:56:00,7.7,7.2,1509,90,-1.0471975511965976,L,R,0,150
Bilateral,18_10_2016 level15_700_Robin 9_56 Bilateral_T0,78,0,1352.329,0,7,-60,700,1081,4.5,2,1354.309,0,736621.430018,Aud,2016-10-18 09:56:00,7.7,7.2,1509,90,-1.0471975511965976,L,R,0,150
Bilateral,21_10_2016 level15_700_Robin 9_16 Bilateral_T8,79,0,1916.395,0,7,-60,700,1201,4.5,7,1918.556,1,736624.408984,Aud,2016-10-21 09:16:00,7.2,7.9,1509,-60,-1.0471975511965976,L,L,1,0
Bilateral,21_10_2016 level15_700_Robin 9_16 Bilateral_T8,29,0,1235.593,0,7,-60,700,1161,4.5,7,1237.409,1,736624.401099,Aud,2016-10-21 09:16:00,9.0,7.5,1509,-60,-1.0471975511965976,L,L,1,0
Bilateral,18_10_2016 level15_700_Robin 9_56 Bilateral_T0,46,0,819.77,0,7,-60,700,1021,4.5,4,826.291,0,736621.423907,Aud,2016-10-18 09:56:00,7.2,6.5,1509,30,-1.0471975511965976,L,R,0,90
Bilateral,18_10_2016 level15_700_Robin 9_56 Bilateral_T0,46,0,819.77,0,7,-60,700,1021,4.5,4,826.291,0,736621.423907,Aud,2016-10-18 09:56:00,7.2,6.5,1509,30,-1.0471975511965976,L,R,0,90
Bilateral,21_10_2016 level15_700_Robin 9_16 Bilateral_T8,79,0,1916.395,0,7,-60,700,1201,4.5,7,1918.556,1,736624.408984,Aud,2016-10-21 09:16:00,7.2,7.9,1509,-60,-1.0471975511965976,L,L,1,0
Bilateral,21_10_2016 level15_700_Robin 9_16 Bilateral_T8,79,0,1916.395,0,7,-60,700,1201,4.5,7,1918.556,1,736624.408984,Aud,2016-10-21 09:16:00,7.2,7.9,1509,-60,-1.0471975511965976,L,L,1,0
Bilateral,21_10_2016 level15_700_Robin 9_16 Bilateral_T8,79,0,1916.395,0,7,-60,700,1201,4.5,7,1918.556,1,736624.408984,Aud,2016-10-21 09:16:00,7.2,7.9,1509,-60,-1.0471975511965976,L,L,1,0
Bilateral,21_10_2016 level15_700_Robin 9_16 Bilateral_T8,29,0,1235.593,0,7,-60,700,1161,4.5,7,1237.409,1,736624.401099,Aud,2016-10-21 09:16:00,9.0,7.5,1509,-60,-1.0471975511965976,L,L,1,0
Bilateral,18_10_2016 level15_700_Robin 9_56 Bilateral_T0,78,0,1352.329,0,7,-60,700,1081,4.5,2,1354.309,0,736621.430018,Aud,2016-10-18 09:56:00,7.7,7.2,1509,90,-1.0471975511965976,L,R,0,150
Bilateral,18_10_2016 level15_700_Robin 9_56 Bilateral_T0,78,0,1352.329,0,7,-60,700,1081,4.5,2,1354.309,0,736621.430018,Aud,2016-10-18 09:56:00,7.7,7.2,1509,90,-1.0471975511965976,L,R,0,150
Bilateral,21_10_2016 level15_700_Robin 9_16 Bilateral_T8,79,0,1916.395,0,7,-60,700,1201,4.5,7,1918.556,1,736624.408984,Aud,2016-10-21 09:16:00,7.2,7.9,1509,-60,-1.0471975511965976,L,L,1,0
Bilateral,21_10_2016 level15_700_Robin 9_16 Bilateral_T8,29,0,1235.593,0,7,-60,700,1161,4.5,7,1237.409,1,736624.401099,Aud,2016-10-21 09:16:00,9.0,7.5,1509,-60,-1.0471975511965976,L,L,1,0
Bilateral,18_10_2016 level15_700_Robin 9_56 Bilateral_T0,78,0,1352.329,0,7,-60,700,1081,4.5,2,1354.309,0,736621.430018,Aud,2016-10-18 09:56:00,7.7,7.2,1509,90,-1.0471975511965976,L,R,0,150
Bilateral,21_10_2016 level15_700_Robin 9_16 Bilateral_T8,29,0,1235.593,0,7,-60,700,1161,4.5,7,1237.409,1,736624.401099,Aud,2016-10-21 09:16:00,9.0,7.5,1509,-60,-1.0471975511965976,L,L,1,0
Bilateral,18_10_2016 level15_700_Robin 9_56 Bilateral_T0,46,0,819.77,0,7,-60,700,1021,4.5,4,826.291,0,736621.423907,Aud,2016-10-18 09:56:00,7.2,6.5,1509,30,-1.0471975511965976,L,R,0,90
Bilateral,18_10_2016 level15_700_Robin 9_56 Bilateral_T0,78,0,1352.329,0,7,-60,700,1081,4.5,2,1354.309,0,736621.430018,Aud,2016-10-18 09:56:00,7.7,7.2,1509,90,-1.0471975511965976,L,R,0,150
Bilateral,19_10_2016 level15_700_Robin 9_56 Bilateral14_t15-54,42,0,1032.293,0,7,-60,700,1021,9.0,6,1033.695,0,736622.42617,Aud,2016-10-19 09:56:00,,,1509,-30,-1.0471975511965976,L,L,1,30
Bilateral,13_10_2016 level15_700_Robin 8_40 Bilateral_T25,29,0,944.407,0,7,-60,700,1041,9.0,7,946.226,1,736616.37213,Aud,2016-10-13 08:40:00,9.1,11.5,1509,-60,-1.0471975511965976,L,L,1,0
Bilateral,13_10_2016 level15_700_Robin 8_40 Bilateral_T25,29,0,944.407,0,7,-60,700,1041,9.0,7,946.226,1,736616.37213,Aud,2016-10-13 08:40:00,9.1,11.5,1509,-60,-1.0471975511965976,L,L,1,0
Bilateral,19_10_2016 level15_700_Robin 9_56 Bilateral14_t15-54,42,0,1032.293,0,7,-60,700,1021,9.0,6,1033.695,0,736622.42617,Aud,2016-10-19 09:56:00,,,1509,-30,-1.0471975511965976,L,L,1,30
Bilateral,13_10_2016 level15_700_Robin 8_40 Bilateral_T25,29,0,944.407,0,7,-60,700,1041,9.0,7,946.226,1,736616.37213,Aud,2016-10-13 08:40:00,9.1,11.5,1509,-60,-1.0471975511965976,L,L,1,0
Bilateral,19_10_2016 level15_700_Robin 9_56 Bilateral14_t15-54,42,0,1032.293,0,7,-60,700,1021,9.0,6,1033.695,0,736622.42617,Aud,2016-10-19 09:56:00,,,1509,-30,-1.0471975511965976,L,L,1,30
Bilateral,18_10_2016 level15_700_Robin 9_56 Bilateral_T0,26,0,459.039,0,7,-60,700,1201,9.0,8,463.891,0,736621.419713,Aud,2016-10-18 09:56:00,7.8,7.8,1509,-90,-1.0471975511965976,L,L,1,30
Bilateral,18_10_2016 level15_700_Robin 14_33 Bilateral_T0,18,0,1834.247,0,7,-60,700,1021,9.0,3,1837.207,0,736621.62764,Aud,2016-10-18 14:33:00,7.5,7.4,1509,60,-1.0471975511965976,L,R,0,120
Bilateral,21_10_2016 level15_700_Robin 9_16 Bilateral_T8,32,0,1268.061,0,7,-60,700,1141,9.0,6,1269.904,0,736624.401475,Aud,2016-10-21 09:16:00,9.0,7.5,1509,-30,-1.0471975511965976,L,L,1,30
Bilateral,18_10_2016 level15_700_Robin 9_56 Bilateral_T0,26,0,459.039,0,7,-60,700,1201,9.0,8,463.891,0,736621.419713,Aud,2016-10-18 09:56:00,7.8,7.8,1509,-90,-1.0471975511965976,L,L,1,30
Bilateral,18_10_2016 level15_700_Robin 9_56 Bilateral_T0,62,0,1007.893,0,7,-60,700,1081,9.0,6,1010.462,0,736621.426039,Aud,2016-10-18 09:56:00,7.2,6.5,1509,-30,-1.0471975511965976,L,L,1,30
Bilateral,18_10_2016 level15_700_Robin 9_56 Bilateral_T0,62,0,1007.893,0,7,-60,700,1081,9.0,6,1010.462,0,736621.426039,Aud,2016-10-18 09:56:00,7.2,6.5,1509,-30,-1.0471975511965976,L,L,1,30
Bilateral,13_10_2016 level15_700_Robin 8_40 Bilateral_T25,29,0,944.407,0,7,-60,700,1041,9.0,7,946.226,1,736616.37213,Aud,2016-10-13 08:40:00,9.1,11.5,1509,-60,-1.0471975511965976,L,L,1,0
Bilateral,19_10_2016 level15_700_Robin 9_56 Bilateral14_t15-54,42,0,1032.293,0,7,-60,700,1021,9.0,6,1033.695,0,736622.42617,Aud,2016-10-19 09:56:00,,,1509,-30,-1.0471975511965976,L,L,1,30
Bilateral,19_10_2016 level15_700_Robin 9_56 Bilateral14_t15-54,42,0,1032.293,0,7,-60,700,1021,9.0,6,1033.695,0,736622.42617,Aud,2016-10-19 09:56:00,,,1509,-30,-1.0471975511965976,L,L,1,30
Bilateral,19_10_2016 level15_700_Robin 9_56 Bilateral14_t15-54,42,0,1032.293,0,7,-60,700,1021,9.0,6,1033.695,0,736622.42617,Aud,2016-10-19 09:56:00,,,1509,-30,-1.0471975511965976,L,L,1,30
Bilateral,19_10_2016 level15_700_Robin 9_56 Bilateral14_t15-54,42,0,1032.293,0,7,-60,700,1021,9.0,6,1033.695,0,736622.42617,Aud,2016-10-19 09:56:00,,,1509,-30,-1.0471975511965976,L,L,1,30
Bilateral,18_10_2016 level15_700_Robin 14_33 Bilateral_T0,18,0,1834.247,0,7,-60,700,1021,9.0,3,1837.207,0,736621.62764,Aud,2016-10-18 14:33:00,7.5,7.4,1509,60,-1.0471975511965976,L,R,0,120
Bilateral,18_10_2016 level15_700_Robin 9_56 Bilateral_T0,62,0,1007.893,0,7,-60,700,1081,9.0,6,1010.462,0,736621.426039,Aud,2016-10-18 09:56:00,7.2,6.5,1509,-30,-1.0471975511965976,L,L,1,30
Bilateral,18_10_2016 level15_700_Robin 14_33 Bilateral_T0,18,0,1834.247,0,7,-60,700,1021,9.0,3,1837.207,0,736621.62764,Aud,2016-10-18 14:33:00,7.5,7.4,1509,60,-1.0471975511965976,L,R,0,120
Bilateral,13_10_2016 level15_700_Robin 8_40 Bilateral_T25,29,0,944.407,0,7,-60,700,1041,9.0,7,946.226,1,736616.37213,Aud,2016-10-13 08:40:00,9.1,11.5,1509,-60,-1.0471975511965976,L,L,1,0
Bilateral,21_10_2016 level15_700_Robin 9_16 Bilateral_T8,32,0,1268.061,0,7,-60,700,1141,9.0,6,1269.904,0,736624.401475,Aud,2016-10-21 09:16:00,9.0,7.5,1509,-30,-1.0471975511965976,L,L,1,30
Bilateral,21_10_2016 level15_700_Robin 9_16 Bilateral_T8,32,0,1268.061,0,7,-60,700,1141,9.0,6,1269.904,0,736624.401475,Aud,2016-10-21 09:16:00,9.0,7.5,1509,-30,-1.0471975511965976,L,L,1,30
Bilateral,18_10_2016 level15_700_Robin 9_56 Bilateral_T0,26,0,459.039,0,7,-60,700,1201,9.0,8,463.891,0,736621.419713,Aud,2016-10-18 09:56:00,7.8,7.8,1509,-90,-1.0471975511965976,L,L,1,30
Bilateral,19_10_2016 level15_700_Robin 9_56 Bilateral14_t15-54,42,0,1032.293,0,7,-60,700,1021,9.0,6,1033.695,0,736622.42617,Aud,2016-10-19 09:56:00,,,1509,-30,-1.0471975511965976,L,L,1,30
Bilateral,18_10_2016 level15_700_Robin 14_33 Bilateral_T0,18,0,1834.247,0,7,-60,700,1021,9.0,3,1837.207,0,736621.62764,Aud,2016-10-18 14:33:00,7.5,7.4,1509,60,-1.0471975511965976,L,R,0,120
Bilateral,18_10_2016 level15_700_Robin 9_56 Bilateral_T0,62,0,1007.893,0,7,-60,700,1081,9.0,6,1010.462,0,736621.426039,Aud,2016-10-18 09:56:00,7.2,6.5,1509,-30,-1.0471975511965976,L,L,1,30
Bilateral,13_10_2016 level15_700_Robin 8_40 Bilateral_T25,29,0,944.407,0,7,-60,700,1041,9.0,7,946.226,1,736616.37213,Aud,2016-10-13 08:40:00,9.1,11.5,1509,-60,-1.0471975511965976,L,L,1,0
Bilateral,18_10_2016 level15_700_Robin 9_56 Bilateral_T0,62,0,1007.893,0,7,-60,700,1081,9.0,6,1010.462,0,736621.426039,Aud,2016-10-18 09:56:00,7.2,6.5,1509,-30,-1.0471975511965976,L,L,1,30
Bilateral,13_10_2016 level15_700_Robin 8_40 Bilateral_T25,43,0,1219.753,0,6,-30,700,1161,0.0,8,1230.751,0,736616.375423,Aud,2016-10-13 08:40:00,,,1509,-90,-0.5235987755982988,L,L,1,60
Bilateral,18_10_2016 level15_700_Robin 9_56 Bilateral_T0,79,0,1370.567,0,6,-30,700,1201,0.0,3,1378.585,0,736621.430299,Aud,2016-10-18 09:56:00,7.7,7.2,1509,60,-0.5235987755982988,L,R,0,90
Bilateral,19_10_2016 level15_700_Robin 9_56 Bilateral14_t15-54,31,0,833.058,0,6,-30,700,1021,0.0,2,836.071,0,736622.423882,Aud,2016-10-19 09:56:00,13.5,10.0,1509,90,-0.5235987755982988,L,R,0,120
Bilateral,13_10_2016 level15_700_Robin 8_40 Bilateral_T25,43,0,1219.753,0,6,-30,700,1161,0.0,8,1230.751,0,736616.375423,Aud,2016-10-13 08:40:00,,,1509,-90,-0.5235987755982988,L,L,1,60
Bilateral,19_10_2016 level15_700_Robin 9_56 Bilateral14_t15-54,31,0,833.058,0,6,-30,700,1021,0.0,2,836.071,0,736622.423882,Aud,2016-10-19 09:56:00,13.5,10.0,1509,90,-0.5235987755982988,L,R,0,120
Bilateral,19_10_2016 level15_700_Robin 14_57 Bilateral6-14_Control14-end,10,0,2036.374,0,6,-30,700,1181,0.0,8,2046.652,0,736622.647023,Aud,2016-10-19 14:57:00,10.1,6.2,1509,-90,-0.5235987755982988,L,L,1,60
Bilateral,19_10_2016 level15_700_Robin 14_57 Bilateral6-14_Control14-end,10,0,2036.374,0,6,-30,700,1181,0.0,8,2046.652,0,736622.647023,Aud,2016-10-19 14:57:00,10.1,6.2,1509,-90,-0.5235987755982988,L,L,1,60
Bilateral,18_10_2016 level15_700_Robin 9_56 Bilateral_T0,79,0,1370.567,0,6,-30,700,1201,0.0,3,1378.585,0,736621.430299,Aud,2016-10-18 09:56:00,7.7,7.2,1509,60,-0.5235987755982988,L,R,0,90
Bilateral,19_10_2016 level15_700_Robin 9_56 Bilateral14_t15-54,31,0,833.058,0,6,-30,700,1021,0.0,2,836.071,0,736622.423882,Aud,2016-10-19 09:56:00,13.5,10.0,1509,90,-0.5235987755982988,L,R,0,120
Bilateral,19_10_2016 level15_700_Robin 9_56 Bilateral14_t15-54,31,0,833.058,0,6,-30,700,1021,0.0,2,836.071,0,736622.423882,Aud,2016-10-19 09:56:00,13.5,10.0,1509,90,-0.5235987755982988,L,R,0,120
Bilateral,18_10_2016 level15_700_Robin 9_56 Bilateral_T0,79,0,1370.567,0,6,-30,700,1201,0.0,3,1378.585,0,736621.430299,Aud,2016-10-18 09:56:00,7.7,7.2,1509,60,-0.5235987755982988,L,R,0,90
Bilateral,13_10_2016 level15_700_Robin 8_40 Bilateral_T25,43,0,1219.753,0,6,-30,700,1161,0.0,8,1230.751,0,736616.375423,Aud,2016-10-13 08:40:00,,,1509,-90,-0.5235987755982988,L,L,1,60
Bilateral,19_10_2016 level15_700_Robin 9_56 Bilateral14_t15-54,36,0,930.115,0,6,-30,700,1101,0.0,8,932.912,0,736622.425003,Aud,2016-10-19 09:56:00,12.9,9.2,1509,-90,-0.5235987755982988,L,L,1,60
Bilateral,13_10_2016 level15_700_Robin 8_40 Bilateral_T25,43,0,1219.753,0,6,-30,700,1161,0.0,8,1230.751,0,736616.375423,Aud,2016-10-13 08:40:00,,,1509,-90,-0.5235987755982988,L,L,1,60
Bilateral,19_10_2016 level15_700_Robin 9_56 Bilateral14_t15-54,31,0,833.058,0,6,-30,700,1021,0.0,2,836.071,0,736622.423882,Aud,2016-10-19 09:56:00,13.5,10.0,1509,90,-0.5235987755982988,L,R,0,120
Bilateral,21_10_2016 level15_700_Robin 9_16 Bilateral_T8,58,0,1597.671,0,6,-30,700,1201,0.0,7,1601.092,0,736624.405309,Aud,2016-10-21 09:16:00,8.2,7.2,1509,-60,-0.5235987755982988,L,L,1,30
Bilateral,13_10_2016 level15_700_Robin 8_40 Bilateral_T25,43,0,1219.753,0,6,-30,700,1161,0.0,8,1230.751,0,736616.375423,Aud,2016-10-13 08:40:00,,,1509,-90,-0.5235987755982988,L,L,1,60
Bilateral,13_10_2016 level15_700_Robin 8_40 Bilateral_T25,43,0,1219.753,0,6,-30,700,1161,0.0,8,1230.751,0,736616.375423,Aud,2016-10-13 08:40:00,,,1509,-90,-0.5235987755982988,L,L,1,60
Bilateral,21_10_2016 level15_700_Robin 9_16 Bilateral_T8,58,0,1597.671,0,6,-30,700,1201,0.0,7,1601.092,0,736624.405309,Aud,2016-10-21 09:16:00,8.2,7.2,1509,-60,-0.5235987755982988,L,L,1,30
Bilateral,13_10_2016 level15_700_Robin 8_40 Bilateral_T25,43,0,1219.753,0,6,-30,700,1161,0.0,8,1230.751,0,736616.375423,Aud,2016-10-13 08:40:00,,,1509,-90,-0.5235987755982988,L,L,1,60
Bilateral,19_10_2016 level15_700_Robin 9_56 Bilateral14_t15-54,36,0,930.115,0,6,-30,700,1101,0.0,8,932.912,0,736622.425003,Aud,2016-10-19 09:56:00,12.9,9.2,1509,-90,-0.5235987755982988,L,L,1,60
Bilateral,21_10_2016 level15_700_Robin 9_16 Bilateral_T8,58,0,1597.671,0,6,-30,700,1201,0.0,7,1601.092,0,736624.405309,Aud,2016-10-21 09:16:00,8.2,7.2,1509,-60,-0.5235987755982988,L,L,1,30
Bilateral,19_10_2016 level15_700_Robin 9_56 Bilateral14_t15-54,31,0,833.058,0,6,-30,700,1021,0.0,2,836.071,0,736622.423882,Aud,2016-10-19 09:56:00,13.5,10.0,1509,90,-0.5235987755982988,L,R,0,120
Bilateral,19_10_2016 level15_700_Robin 9_56 Bilateral14_t15-54,36,0,930.115,0,6,-30,700,1101,0.0,8,932.912,0,736622.425003,Aud,2016-10-19 09:56:00,12.9,9.2,1509,-90,-0.5235987755982988,L,L,1,60
Bilateral,13_10_2016 level15_700_Robin 8_40 Bilateral_T25,25,0,884.878,0,6,-30,700,1001,0.0,3,895.423,0,736616.371542,Aud,2016-10-13 08:40:00,8.9,11.0,1509,60,-0.5235987755982988,L,R,0,90
Bilateral,19_10_2016 level15_700_Robin 14_57 Bilateral6-14_Control14-end,10,0,2036.374,0,6,-30,700,1181,0.0,8,2046.652,0,736622.647023,Aud,2016-10-19 14:57:00,10.1,6.2,1509,-90,-0.5235987755982988,L,L,1,60
Bilateral,21_10_2016 level15_700_Robin 9_16 Bilateral_T8,58,0,1597.671,0,6,-30,700,1201,0.0,7,1601.092,0,736624.405309,Aud,2016-10-21 09:16:00,8.2,7.2,1509,-60,-0.5235987755982988,L,L,1,30
Bilateral,19_10_2016 level15_700_Robin 9_56 Bilateral14_t15-54,36,0,930.115,0,6,-30,700,1101,0.0,8,932.912,0,736622.425003,Aud,2016-10-19 09:56:00,12.9,9.2,1509,-90,-0.5235987755982988,L,L,1,60
Bilateral,18_10_2016 level15_700_Robin 9_56 Bilateral_T0,30,0,533.069,0,6,-30,700,1161,0.0,3,540.19,0,736621.420596,Aud,2016-10-18 09:56:00,7.5,7.2,1509,60,-0.5235987755982988,L,R,0,90
Bilateral,18_10_2016 level15_700_Robin 9_56 Bilateral_T0,51,0,902.134,0,6,-30,700,1141,4.5,6,904.262,1,736621.424809,Aud,2016-10-18 09:56:00,7.2,6.5,1509,-30,-0.5235987755982988,L,L,1,0
Bilateral,18_10_2016 level15_700_Robin 9_56 Bilateral_T0,51,0,902.134,0,6,-30,700,1141,4.5,6,904.262,1,736621.424809,Aud,2016-10-18 09:56:00,7.2,6.5,1509,-30,-0.5235987755982988,L,L,1,0
Bilateral,18_10_2016 level15_700_Robin 9_56 Bilateral_T0,51,0,902.134,0,6,-30,700,1141,4.5,6,904.262,1,736621.424809,Aud,2016-10-18 09:56:00,7.2,6.5,1509,-30,-0.5235987755982988,L,L,1,0
Bilateral,21_10_2016 level15_700_Robin 9_16 Bilateral_T8,16,0,1083.264,0,6,-30,700,1041,4.5,7,1084.723,0,736624.399333,Aud,2016-10-21 09:16:00,9.5,11.0,1509,-60,-0.5235987755982988,L,L,1,30
Bilateral,21_10_2016 level15_700_Robin 9_16 Bilateral_T8,16,0,1083.264,0,6,-30,700,1041,4.5,7,1084.723,0,736624.399333,Aud,2016-10-21 09:16:00,9.5,11.0,1509,-60,-0.5235987755982988,L,L,1,30
Bilateral,21_10_2016 level15_700_Robin 9_16 Bilateral_T8,74,0,1816.303,0,6,-30,700,1121,4.5,8,1818.529,0,736624.407826,Aud,2016-10-21 09:16:00,7.2,7.9,1509,-90,-0.5235987755982988,L,L,1,60
Bilateral,18_10_2016 level15_700_Robin 9_56 Bilateral_T0,51,0,902.134,0,6,-30,700,1141,4.5,6,904.262,1,736621.424809,Aud,2016-10-18 09:56:00,7.2,6.5,1509,-30,-0.5235987755982988,L,L,1,0
Bilateral,21_10_2016 level15_700_Robin 9_16 Bilateral_T8,16,0,1083.264,0,6,-30,700,1041,4.5,7,1084.723,0,736624.399333,Aud,2016-10-21 09:16:00,9.5,11.0,1509,-60,-0.5235987755982988,L,L,1,30
Bilateral,21_10_2016 level15_700_Robin 9_16 Bilateral_T8,74,0,1816.303,0,6,-30,700,1121,4.5,8,1818.529,0,736624.407826,Aud,2016-10-21 09:16:00,7.2,7.9,1509,-90,-0.5235987755982988,L,L,1,60
Bilateral,18_10_2016 level15_700_Robin 9_56 Bilateral_T0,51,0,902.134,0,6,-30,700,1141,4.5,6,904.262,1,736621.424809,Aud,2016-10-18 09:56:00,7.2,6.5,1509,-30,-0.5235987755982988,L,L,1,0
Bilateral,21_10_2016 level15_700_Robin 9_16 Bilateral_T8,74,0,1816.303,0,6,-30,700,1121,4.5,8,1818.529,0,736624.407826,Aud,2016-10-21 09:16:00,7.2,7.9,1509,-90,-0.5235987755982988,L,L,1,60
Bilateral,21_10_2016 level15_700_Robin 9_16 Bilateral_T8,16,0,1083.264,0,6,-30,700,1041,4.5,7,1084.723,0,736624.399333,Aud,2016-10-21 09:16:00,9.5,11.0,1509,-60,-0.5235987755982988,L,L,1,30
Bilateral,21_10_2016 level15_700_Robin 9_16 Bilateral_T8,16,0,1083.264,0,6,-30,700,1041,4.5,7,1084.723,0,736624.399333,Aud,2016-10-21 09:16:00,9.5,11.0,1509,-60,-0.5235987755982988,L,L,1,30
Bilateral,21_10_2016 level15_700_Robin 9_16 Bilateral_T8,74,0,1816.303,0,6,-30,700,1121,4.5,8,1818.529,0,736624.407826,Aud,2016-10-21 09:16:00,7.2,7.9,1509,-90,-0.5235987755982988,L,L,1,60
Bilateral,21_10_2016 level15_700_Robin 9_16 Bilateral_T8,16,0,1083.264,0,6,-30,700,1041,4.5,7,1084.723,0,736624.399333,Aud,2016-10-21 09:16:00,9.5,11.0,1509,-60,-0.5235987755982988,L,L,1,30
Bilateral,21_10_2016 level15_700_Robin 9_16 Bilateral_T8,16,0,1083.264,0,6,-30,700,1041,4.5,7,1084.723,0,736624.399333,Aud,2016-10-21 09:16:00,9.5,11.0,1509,-60,-0.5235987755982988,L,L,1,30
Bilateral,21_10_2016 level15_700_Robin 9_16 Bilateral_T8,74,0,1816.303,0,6,-30,700,1121,4.5,8,1818.529,0,736624.407826,Aud,2016-10-21 09:16:00,7.2,7.9,1509,-90,-0.5235987755982988,L,L,1,60
Bilateral,21_10_2016 level15_700_Robin 9_16 Bilateral_T8,16,0,1083.264,0,6,-30,700,1041,4.5,7,1084.723,0,736624.399333,Aud,2016-10-21 09:16:00,9.5,11.0,1509,-60,-0.5235987755982988,L,L,1,30
Bilateral,21_10_2016 level15_700_Robin 9_16 Bilateral_T8,16,0,1083.264,0,6,-30,700,1041,4.5,7,1084.723,0,736624.399333,Aud,2016-10-21 09:16:00,9.5,11.0,1509,-60,-0.5235987755982988,L,L,1,30
Bilateral,21_10_2016 level15_700_Robin 9_16 Bilateral_T8,74,0,1816.303,0,6,-30,700,1121,4.5,8,1818.529,0,736624.407826,Aud,2016-10-21 09:16:00,7.2,7.9,1509,-90,-0.5235987755982988,L,L,1,60
Bilateral,21_10_2016 level15_700_Robin 9_16 Bilateral_T8,74,0,1816.303,0,6,-30,700,1121,4.5,8,1818.529,0,736624.407826,Aud,2016-10-21 09:16:00,7.2,7.9,1509,-90,-0.5235987755982988,L,L,1,60
Bilateral,18_10_2016 level15_700_Robin 9_56 Bilateral_T0,51,0,902.134,0,6,-30,700,1141,4.5,6,904.262,1,736621.424809,Aud,2016-10-18 09:56:00,7.2,6.5,1509,-30,-0.5235987755982988,L,L,1,0
Bilateral,18_10_2016 level15_700_Robin 9_56 Bilateral_T0,51,0,902.134,0,6,-30,700,1141,4.5,6,904.262,1,736621.424809,Aud,2016-10-18 09:56:00,7.2,6.5,1509,-30,-0.5235987755982988,L,L,1,0
Bilateral,18_10_2016 level15_700_Robin 9_56 Bilateral_T0,51,0,902.134,0,6,-30,700,1141,4.5,6,904.262,1,736621.424809,Aud,2016-10-18 09:56:00,7.2,6.5,1509,-30,-0.5235987755982988,L,L,1,0
Bilateral,21_10_2016 level15_700_Robin 9_16 Bilateral_T8,74,0,1816.303,0,6,-30,700,1121,4.5,8,1818.529,0,736624.407826,Aud,2016-10-21 09:16:00,7.2,7.9,1509,-90,-0.5235987755982988,L,L,1,60
Bilateral,18_10_2016 level15_700_Robin 9_56 Bilateral_T0,51,0,902.134,0,6,-30,700,1141,4.5,6,904.262,1,736621.424809,Aud,2016-10-18 09:56:00,7.2,6.5,1509,-30,-0.5235987755982988,L,L,1,0
Bilateral,18_10_2016 level15_700_Robin 9_56 Bilateral_T0,51,0,902.134,0,6,-30,700,1141,4.5,6,904.262,1,736621.424809,Aud,2016-10-18 09:56:00,7.2,6.5,1509,-30,-0.5235987755982988,L,L,1,0
Bilateral,18_10_2016 level15_700_Robin 9_56 Bilateral_T0,51,0,902.134,0,6,-30,700,1141,4.5,6,904.262,1,736621.424809,Aud,2016-10-18 09:56:00,7.2,6.5,1509,-30,-0.5235987755982988,L,L,1,0
Bilateral,18_10_2016 level15_700_Robin 9_56 Bilateral_T0,51,0,902.134,0,6,-30,700,1141,4.5,6,904.262,1,736621.424809,Aud,2016-10-18 09:56:00,7.2,6.5,1509,-30,-0.5235987755982988,L,L,1,0
Bilateral,18_10_2016 level15_700_Robin 14_33 Bilateral_T0,10,0,1473.784,1,6,-30,700,1001,9.0,3,1477.913,0,736621.623481,Aud,2016-10-18 14:33:00,8.5,10.3,1509,60,-0.5235987755982988,L,R,0,90
Bilateral,18_10_2016 level15_700_Robin 14_33 Bilateral_T0,10,0,1473.784,1,6,-30,700,1001,9.0,3,1477.913,0,736621.623481,Aud,2016-10-18 14:33:00,8.5,10.3,1509,60,-0.5235987755982988,L,R,0,90
Bilateral,21_10_2016 level15_700_Robin 9_16 Bilateral_T8,94,0,2098.99,0,6,-30,700,1181,9.0,2,2103.868,0,736624.411128,Aud,2016-10-21 09:16:00,,,1509,90,-0.5235987755982988,L,R,0,120
Bilateral,21_10_2016 level15_700_Robin 9_16 Bilateral_T8,94,0,2098.99,0,6,-30,700,1181,9.0,2,2103.868,0,736624.411128,Aud,2016-10-21 09:16:00,,,1509,90,-0.5235987755982988,L,R,0,120
Bilateral,18_10_2016 level15_700_Robin 9_56 Bilateral_T0,18,0,388.663,0,6,-30,700,1141,9.0,6,390.352,1,736621.418862,Aud,2016-10-18 09:56:00,7.8,7.8,1509,-30,-0.5235987755982988,L,L,1,0
Bilateral,18_10_2016 level15_700_Robin 9_56 Bilateral_T0,50,0,890.614,0,6,-30,700,1161,9.0,6,892.326,1,736621.424671,Aud,2016-10-18 09:56:00,7.2,6.5,1509,-30,-0.5235987755982988,L,L,1,0
Bilateral,18_10_2016 level15_700_Robin 9_56 Bilateral_T0,50,0,890.614,0,6,-30,700,1161,9.0,6,892.326,1,736621.424671,Aud,2016-10-18 09:56:00,7.2,6.5,1509,-30,-0.5235987755982988,L,L,1,0
Bilateral,18_10_2016 level15_700_Robin 9_56 Bilateral_T0,50,0,890.614,0,6,-30,700,1161,9.0,6,892.326,1,736621.424671,Aud,2016-10-18 09:56:00,7.2,6.5,1509,-30,-0.5235987755982988,L,L,1,0
Bilateral,18_10_2016 level15_700_Robin 9_56 Bilateral_T0,18,0,388.663,0,6,-30,700,1141,9.0,6,390.352,1,736621.418862,Aud,2016-10-18 09:56:00,7.8,7.8,1509,-30,-0.5235987755982988,L,L,1,0
Bilateral,21_10_2016 level15_700_Robin 9_16 Bilateral_T8,43,0,1405.949,1,6,-30,700,1061,9.0,8,1410.82,0,736624.403106,Aud,2016-10-21 09:16:00,9.0,7.5,1509,-90,-0.5235987755982988,L,L,1,60
Bilateral,18_10_2016 level15_700_Robin 9_56 Bilateral_T0,82,0,1437.089,0,6,-30,700,1161,9.0,4,1436.3,0,736621.430978,Aud,2016-10-18 09:56:00,8.4,8.3,1509,30,-0.5235987755982988,L,R,0,60
Bilateral,18_10_2016 level15_700_Robin 9_56 Bilateral_T0,82,0,1437.089,0,6,-30,700,1161,9.0,4,1436.3,0,736621.430978,Aud,2016-10-18 09:56:00,8.4,8.3,1509,30,-0.5235987755982988,L,R,0,60
Bilateral,18_10_2016 level15_700_Robin 9_56 Bilateral_T0,18,0,388.663,0,6,-30,700,1141,9.0,6,390.352,1,736621.418862,Aud,2016-10-18 09:56:00,7.8,7.8,1509,-30,-0.5235987755982988,L,L,1,0
Bilateral,21_10_2016 level15_700_Robin 9_16 Bilateral_T8,94,0,2098.99,0,6,-30,700,1181,9.0,2,2103.868,0,736624.411128,Aud,2016-10-21 09:16:00,,,1509,90,-0.5235987755982988,L,R,0,120
Bilateral,21_10_2016 level15_700_Robin 9_16 Bilateral_T8,43,0,1405.949,1,6,-30,700,1061,9.0,8,1410.82,0,736624.403106,Aud,2016-10-21 09:16:00,9.0,7.5,1509,-90,-0.5235987755982988,L,L,1,60
Bilateral,18_10_2016 level15_700_Robin 9_56 Bilateral_T0,82,0,1437.089,0,6,-30,700,1161,9.0,4,1436.3,0,736621.430978,Aud,2016-10-18 09:56:00,8.4,8.3,1509,30,-0.5235987755982988,L,R,0,60
Bilateral,18_10_2016 level15_700_Robin 9_56 Bilateral_T0,50,0,890.614,0,6,-30,700,1161,9.0,6,892.326,1,736621.424671,Aud,2016-10-18 09:56:00,7.2,6.5,1509,-30,-0.5235987755982988,L,L,1,0
Bilateral,18_10_2016 level15_700_Robin 9_56 Bilateral_T0,50,0,890.614,0,6,-30,700,1161,9.0,6,892.326,1,736621.424671,Aud,2016-10-18 09:56:00,7.2,6.5,1509,-30,-0.5235987755982988,L,L,1,0
Bilateral,18_10_2016 level15_700_Robin 14_33 Bilateral_T0,10,0,1473.784,1,6,-30,700,1001,9.0,3,1477.913,0,736621.623481,Aud,2016-10-18 14:33:00,8.5,10.3,1509,60,-0.5235987755982988,L,R,0,90
Bilateral,18_10_2016 level15_700_Robin 9_56 Bilateral_T0,82,0,1437.089,0,6,-30,700,1161,9.0,4,1436.3,0,736621.430978,Aud,2016-10-18 09:56:00,8.4,8.3,1509,30,-0.5235987755982988,L,R,0,60
Bilateral,21_10_2016 level15_700_Robin 9_16 Bilateral_T8,43,0,1405.949,1,6,-30,700,1061,9.0,8,1410.82,0,736624.403106,Aud,2016-10-21 09:16:00,9.0,7.5,1509,-90,-0.5235987755982988,L,L,1,60
Bilateral,18_10_2016 level15_700_Robin 9_56 Bilateral_T0,50,0,890.614,0,6,-30,700,1161,9.0,6,892.326,1,736621.424671,Aud,2016-10-18 09:56:00,7.2,6.5,1509,-30,-0.5235987755982988,L,L,1,0
Bilateral,21_10_2016 level15_700_Robin 9_16 Bilateral_T8,94,0,2098.99,0,6,-30,700,1181,9.0,2,2103.868,0,736624.411128,Aud,2016-10-21 09:16:00,,,1509,90,-0.5235987755982988,L,R,0,120
Bilateral,18_10_2016 level15_700_Robin 9_56 Bilateral_T0,18,0,388.663,0,6,-30,700,1141,9.0,6,390.352,1,736621.418862,Aud,2016-10-18 09:56:00,7.8,7.8,1509,-30,-0.5235987755982988,L,L,1,0
Bilateral,21_10_2016 level15_700_Robin 9_16 Bilateral_T8,43,0,1405.949,1,6,-30,700,1061,9.0,8,1410.82,0,736624.403106,Aud,2016-10-21 09:16:00,9.0,7.5,1509,-90,-0.5235987755982988,L,L,1,60
Bilateral,18_10_2016 level15_700_Robin 9_56 Bilateral_T0,82,0,1437.089,0,6,-30,700,1161,9.0,4,1436.3,0,736621.430978,Aud,2016-10-18 09:56:00,8.4,8.3,1509,30,-0.5235987755982988,L,R,0,60
Bilateral,18_10_2016 level15_700_Robin 9_56 Bilateral_T0,50,0,890.614,0,6,-30,700,1161,9.0,6,892.326,1,736621.424671,Aud,2016-10-18 09:56:00,7.2,6.5,1509,-30,-0.5235987755982988,L,L,1,0
Bilateral,18_10_2016 level15_700_Robin 9_56 Bilateral_T0,50,0,890.614,0,6,-30,700,1161,9.0,6,892.326,1,736621.424671,Aud,2016-10-18 09:56:00,7.2,6.5,1509,-30,-0.5235987755982988,L,L,1,0
Bilateral,21_10_2016 level15_700_Robin 9_16 Bilateral_T8,43,0,1405.949,1,6,-30,700,1061,9.0,8,1410.82,0,736624.403106,Aud,2016-10-21 09:16:00,9.0,7.5,1509,-90,-0.5235987755982988,L,L,1,60
Bilateral,18_10_2016 level15_700_Robin 9_56 Bilateral_T0,32,0,593.191,0,4,30,700,1081,0.0,4,595.268,1,736621.421233,Aud,2016-10-18 09:56:00,7.5,7.2,1509,30,0.5235987755982988,R,R,1,0
Bilateral,19_10_2016 level15_700_Robin 9_56 Bilateral14_t15-54,41,0,1016.807,0,4,30,700,1081,0.0,4,1017.987,1,736622.425988,Aud,2016-10-19 09:56:00,,,1509,30,0.5235987755982988,R,R,1,0
Bilateral,21_10_2016 level15_700_Robin 9_16 Bilateral_T8,37,0,1339.301,0,4,30,700,1201,0.0,3,1340.846,0,736624.402297,Aud,2016-10-21 09:16:00,9.0,7.5,1509,60,0.5235987755982988,R,R,1,30
Bilateral,21_10_2016 level15_700_Robin 9_16 Bilateral_T8,37,0,1339.301,0,4,30,700,1201,0.0,3,1340.846,0,736624.402297,Aud,2016-10-21 09:16:00,9.0,7.5,1509,60,0.5235987755982988,R,R,1,30
Bilateral,19_10_2016 level15_700_Robin 9_56 Bilateral14_t15-54,41,0,1016.807,0,4,30,700,1081,0.0,4,1017.987,1,736622.425988,Aud,2016-10-19 09:56:00,,,1509,30,0.5235987755982988,R,R,1,0
Bilateral,21_10_2016 level15_700_Robin 9_16 Bilateral_T8,37,0,1339.301,0,4,30,700,1201,0.0,3,1340.846,0,736624.402297,Aud,2016-10-21 09:16:00,9.0,7.5,1509,60,0.5235987755982988,R,R,1,30
Bilateral,21_10_2016 level15_700_Robin 9_16 Bilateral_T8,37,0,1339.301,0,4,30,700,1201,0.0,3,1340.846,0,736624.402297,Aud,2016-10-21 09:16:00,9.0,7.5,1509,60,0.5235987755982988,R,R,1,30
Bilateral,18_10_2016 level15_700_Robin 9_56 Bilateral_T0,32,0,593.191,0,4,30,700,1081,0.0,4,595.268,1,736621.421233,Aud,2016-10-18 09:56:00,7.5,7.2,1509,30,0.5235987755982988,R,R,1,0
Bilateral,21_10_2016 level15_700_Robin 9_16 Bilateral_T8,37,0,1339.301,0,4,30,700,1201,0.0,3,1340.846,0,736624.402297,Aud,2016-10-21 09:16:00,9.0,7.5,1509,60,0.5235987755982988,R,R,1,30
Bilateral,18_10_2016 level15_700_Robin 9_56 Bilateral_T0,32,0,593.191,0,4,30,700,1081,0.0,4,595.268,1,736621.421233,Aud,2016-10-18 09:56:00,7.5,7.2,1509,30,0.5235987755982988,R,R,1,0
Bilateral,19_10_2016 level15_700_Robin 9_56 Bilateral14_t15-54,41,0,1016.807,0,4,30,700,1081,0.0,4,1017.987,1,736622.425988,Aud,2016-10-19 09:56:00,,,1509,30,0.5235987755982988,R,R,1,0
Bilateral,18_10_2016 level15_700_Robin 9_56 Bilateral_T0,32,0,593.191,0,4,30,700,1081,0.0,4,595.268,1,736621.421233,Aud,2016-10-18 09:56:00,7.5,7.2,1509,30,0.5235987755982988,R,R,1,0
Bilateral,18_10_2016 level15_700_Robin 9_56 Bilateral_T0,32,0,593.191,0,4,30,700,1081,0.0,4,595.268,1,736621.421233,Aud,2016-10-18 09:56:00,7.5,7.2,1509,30,0.5235987755982988,R,R,1,0
Bilateral,19_10_2016 level15_700_Robin 9_56 Bilateral14_t15-54,41,0,1016.807,0,4,30,700,1081,0.0,4,1017.987,1,736622.425988,Aud,2016-10-19 09:56:00,,,1509,30,0.5235987755982988,R,R,1,0
Bilateral,18_10_2016 level15_700_Robin 9_56 Bilateral_T0,32,0,593.191,0,4,30,700,1081,0.0,4,595.268,1,736621.421233,Aud,2016-10-18 09:56:00,7.5,7.2,1509,30,0.5235987755982988,R,R,1,0
Bilateral,18_10_2016 level15_700_Robin 9_56 Bilateral_T0,32,0,593.191,0,4,30,700,1081,0.0,4,595.268,1,736621.421233,Aud,2016-10-18 09:56:00,7.5,7.2,1509,30,0.5235987755982988,R,R,1,0
Bilateral,21_10_2016 level15_700_Robin 9_16 Bilateral_T8,37,0,1339.301,0,4,30,700,1201,0.0,3,1340.846,0,736624.402297,Aud,2016-10-21 09:16:00,9.0,7.5,1509,60,0.5235987755982988,R,R,1,30
Bilateral,18_10_2016 level15_700_Robin 9_56 Bilateral_T0,32,0,593.191,0,4,30,700,1081,0.0,4,595.268,1,736621.421233,Aud,2016-10-18 09:56:00,7.5,7.2,1509,30,0.5235987755982988,R,R,1,0
Bilateral,21_10_2016 level15_700_Robin 9_16 Bilateral_T8,37,0,1339.301,0,4,30,700,1201,0.0,3,1340.846,0,736624.402297,Aud,2016-10-21 09:16:00,9.0,7.5,1509,60,0.5235987755982988,R,R,1,30
Bilateral,19_10_2016 level15_700_Robin 9_56 Bilateral14_t15-54,41,0,1016.807,0,4,30,700,1081,0.0,4,1017.987,1,736622.425988,Aud,2016-10-19 09:56:00,,,1509,30,0.5235987755982988,R,R,1,0
Bilateral,19_10_2016 level15_700_Robin 9_56 Bilateral14_t15-54,41,0,1016.807,0,4,30,700,1081,0.0,4,1017.987,1,736622.425988,Aud,2016-10-19 09:56:00,,,1509,30,0.5235987755982988,R,R,1,0
Bilateral,21_10_2016 level15_700_Robin 9_16 Bilateral_T8,37,0,1339.301,0,4,30,700,1201,0.0,3,1340.846,0,736624.402297,Aud,2016-10-21 09:16:00,9.0,7.5,1509,60,0.5235987755982988,R,R,1,30
Bilateral,21_10_2016 level15_700_Robin 9_16 Bilateral_T8,37,0,1339.301,0,4,30,700,1201,0.0,3,1340.846,0,736624.402297,Aud,2016-10-21 09:16:00,9.0,7.5,1509,60,0.5235987755982988,R,R,1,30
Bilateral,19_10_2016 level15_700_Robin 9_56 Bilateral14_t15-54,41,0,1016.807,0,4,30,700,1081,0.0,4,1017.987,1,736622.425988,Aud,2016-10-19 09:56:00,,,1509,30,0.5235987755982988,R,R,1,0
Bilateral,18_10_2016 level15_700_Robin 9_56 Bilateral_T0,32,0,593.191,0,4,30,700,1081,0.0,4,595.268,1,736621.421233,Aud,2016-10-18 09:56:00,7.5,7.2,1509,30,0.5235987755982988,R,R,1,0
Bilateral,21_10_2016 level15_700_Robin 9_16 Bilateral_T8,37,0,1339.301,0,4,30,700,1201,0.0,3,1340.846,0,736624.402297,Aud,2016-10-21 09:16:00,9.0,7.5,1509,60,0.5235987755982988,R,R,1,30
Bilateral,21_10_2016 level15_700_Robin 9_16 Bilateral_T8,37,0,1339.301,0,4,30,700,1201,0.0,3,1340.846,0,736624.402297,Aud,2016-10-21 09:16:00,9.0,7.5,1509,60,0.5235987755982988,R,R,1,30
Bilateral,18_10_2016 level15_700_Robin 9_56 Bilateral_T0,32,0,593.191,0,4,30,700,1081,0.0,4,595.268,1,736621.421233,Aud,2016-10-18 09:56:00,7.5,7.2,1509,30,0.5235987755982988,R,R,1,0
Bilateral,18_10_2016 level15_700_Robin 9_56 Bilateral_T0,32,0,593.191,0,4,30,700,1081,0.0,4,595.268,1,736621.421233,Aud,2016-10-18 09:56:00,7.5,7.2,1509,30,0.5235987755982988,R,R,1,0
Bilateral,21_10_2016 level15_700_Robin 9_16 Bilateral_T8,34,0,1299.127,0,4,30,700,1041,4.5,4,1300.887,1,736624.401834,Aud,2016-10-21 09:16:00,9.0,7.5,1509,30,0.5235987755982988,R,R,1,0
Bilateral,21_10_2016 level15_700_Robin 9_16 Bilateral_T8,81,0,1943.394,0,4,30,700,1021,4.5,3,1945.437,0,736624.409294,Aud,2016-10-21 09:16:00,7.2,7.9,1509,60,0.5235987755982988,R,R,1,30
Bilateral,18_10_2016 level15_700_Robin 9_56 Bilateral_T0,68,0,1167.596,0,4,30,700,1041,4.5,4,1168.877,1,736621.427873,Aud,2016-10-18 09:56:00,7.2,6.5,1509,30,0.5235987755982988,R,R,1,0
Bilateral,18_10_2016 level15_700_Robin 9_56 Bilateral_T0,68,0,1167.596,0,4,30,700,1041,4.5,4,1168.877,1,736621.427873,Aud,2016-10-18 09:56:00,7.2,6.5,1509,30,0.5235987755982988,R,R,1,0
Bilateral,18_10_2016 level15_700_Robin 9_56 Bilateral_T0,49,0,875.816,0,4,30,700,1181,4.5,4,877.058,1,736621.424494,Aud,2016-10-18 09:56:00,7.2,6.5,1509,30,0.5235987755982988,R,R,1,0
Bilateral,21_10_2016 level15_700_Robin 9_16 Bilateral_T8,34,0,1299.127,0,4,30,700,1041,4.5,4,1300.887,1,736624.401834,Aud,2016-10-21 09:16:00,9.0,7.5,1509,30,0.5235987755982988,R,R,1,0
Bilateral,21_10_2016 level15_700_Robin 9_16 Bilateral_T8,81,0,1943.394,0,4,30,700,1021,4.5,3,1945.437,0,736624.409294,Aud,2016-10-21 09:16:00,7.2,7.9,1509,60,0.5235987755982988,R,R,1,30
Bilateral,18_10_2016 level15_700_Robin 9_56 Bilateral_T0,72,0,1222.467,0,4,30,700,1061,4.5,6,1223.887,0,736621.428509,Aud,2016-10-18 09:56:00,7.7,7.2,1509,-30,0.5235987755982988,R,L,0,60
Bilateral,18_10_2016 level15_700_Robin 14_33 Bilateral_T0,21,0,1990.914,0,4,30,700,1121,4.5,2,1996.87,0,736621.629487,Aud,2016-10-18 14:33:00,7.5,7.4,1509,90,0.5235987755982988,R,R,1,60
Bilateral,21_10_2016 level15_700_Robin 9_16 Bilateral_T8,15,0,1067.838,0,4,30,700,1201,4.5,4,1069.448,1,736624.399156,Aud,2016-10-21 09:16:00,9.5,11.0,1509,30,0.5235987755982988,R,R,1,0
Bilateral,18_10_2016 level15_700_Robin 9_56 Bilateral_T0,68,0,1167.596,0,4,30,700,1041,4.5,4,1168.877,1,736621.427873,Aud,2016-10-18 09:56:00,7.2,6.5,1509,30,0.5235987755982988,R,R,1,0
Bilateral,21_10_2016 level15_700_Robin 9_16 Bilateral_T8,15,0,1067.838,0,4,30,700,1201,4.5,4,1069.448,1,736624.399156,Aud,2016-10-21 09:16:00,9.5,11.0,1509,30,0.5235987755982988,R,R,1,0
Bilateral,18_10_2016 level15_700_Robin 9_56 Bilateral_T0,68,0,1167.596,0,4,30,700,1041,4.5,4,1168.877,1,736621.427873,Aud,2016-10-18 09:56:00,7.2,6.5,1509,30,0.5235987755982988,R,R,1,0
Bilateral,18_10_2016 level15_700_Robin 9_56 Bilateral_T0,72,0,1222.467,0,4,30,700,1061,4.5,6,1223.887,0,736621.428509,Aud,2016-10-18 09:56:00,7.7,7.2,1509,-30,0.5235987755982988,R,L,0,60
Bilateral,18_10_2016 level15_700_Robin 9_56 Bilateral_T0,72,0,1222.467,0,4,30,700,1061,4.5,6,1223.887,0,736621.428509,Aud,2016-10-18 09:56:00,7.7,7.2,1509,-30,0.5235987755982988,R,L,0,60
Bilateral,21_10_2016 level15_700_Robin 9_16 Bilateral_T8,15,0,1067.838,0,4,30,700,1201,4.5,4,1069.448,1,736624.399156,Aud,2016-10-21 09:16:00,9.5,11.0,1509,30,0.5235987755982988,R,R,1,0
Bilateral,21_10_2016 level15_700_Robin 9_16 Bilateral_T8,15,0,1067.838,0,4,30,700,1201,4.5,4,1069.448,1,736624.399156,Aud,2016-10-21 09:16:00,9.5,11.0,1509,30,0.5235987755982988,R,R,1,0
Bilateral,21_10_2016 level15_700_Robin 9_16 Bilateral_T8,81,0,1943.394,0,4,30,700,1021,4.5,3,1945.437,0,736624.409294,Aud,2016-10-21 09:16:00,7.2,7.9,1509,60,0.5235987755982988,R,R,1,30
Bilateral,18_10_2016 level15_700_Robin 9_56 Bilateral_T0,68,0,1167.596,0,4,30,700,1041,4.5,4,1168.877,1,736621.427873,Aud,2016-10-18 09:56:00,7.2,6.5,1509,30,0.5235987755982988,R,R,1,0
Bilateral,18_10_2016 level15_700_Robin 9_56 Bilateral_T0,72,0,1222.467,0,4,30,700,1061,4.5,6,1223.887,0,736621.428509,Aud,2016-10-18 09:56:00,7.7,7.2,1509,-30,0.5235987755982988,R,L,0,60
Bilateral,18_10_2016 level15_700_Robin 9_56 Bilateral_T0,49,0,875.816,0,4,30,700,1181,4.5,4,877.058,1,736621.424494,Aud,2016-10-18 09:56:00,7.2,6.5,1509,30,0.5235987755982988,R,R,1,0
Bilateral,18_10_2016 level15_700_Robin 14_33 Bilateral_T0,21,0,1990.914,0,4,30,700,1121,4.5,2,1996.87,0,736621.629487,Aud,2016-10-18 14:33:00,7.5,7.4,1509,90,0.5235987755982988,R,R,1,60
Bilateral,21_10_2016 level15_700_Robin 9_16 Bilateral_T8,15,0,1067.838,0,4,30,700,1201,4.5,4,1069.448,1,736624.399156,Aud,2016-10-21 09:16:00,9.5,11.0,1509,30,0.5235987755982988,R,R,1,0
Bilateral,18_10_2016 level15_700_Robin 9_56 Bilateral_T0,68,0,1167.596,0,4,30,700,1041,4.5,4,1168.877,1,736621.427873,Aud,2016-10-18 09:56:00,7.2,6.5,1509,30,0.5235987755982988,R,R,1,0
Bilateral,21_10_2016 level15_700_Robin 9_16 Bilateral_T8,15,0,1067.838,0,4,30,700,1201,4.5,4,1069.448,1,736624.399156,Aud,2016-10-21 09:16:00,9.5,11.0,1509,30,0.5235987755982988,R,R,1,0
Bilateral,21_10_2016 level15_700_Robin 9_16 Bilateral_T8,64,0,1704.657,0,4,30,700,1061,4.5,8,1707.04,0,736624.406535,Aud,2016-10-21 09:16:00,8.2,7.2,1509,-90,0.5235987755982988,R,L,0,120
Bilateral,18_10_2016 level15_700_Robin 9_56 Bilateral_T0,68,0,1167.596,0,4,30,700,1041,4.5,4,1168.877,1,736621.427873,Aud,2016-10-18 09:56:00,7.2,6.5,1509,30,0.5235987755982988,R,R,1,0
Bilateral,18_10_2016 level15_700_Robin 14_33 Bilateral_T0,21,0,1990.914,0,4,30,700,1121,4.5,2,1996.87,0,736621.629487,Aud,2016-10-18 14:33:00,7.5,7.4,1509,90,0.5235987755982988,R,R,1,60
Bilateral,18_10_2016 level15_700_Robin 14_33 Bilateral_T0,21,0,1990.914,0,4,30,700,1121,4.5,2,1996.87,0,736621.629487,Aud,2016-10-18 14:33:00,7.5,7.4,1509,90,0.5235987755982988,R,R,1,60
Bilateral,13_10_2016 level15_700_Robin 15_5 Bilateral_T10,13,0,985.679,0,4,30,700,1121,9.0,2,989.687,0,736616.67217,Aud,2016-10-13 15:05:00,11.0,11.9,1509,90,0.5235987755982988,R,R,1,60
Bilateral,18_10_2016 level15_700_Robin 9_56 Bilateral_T0,4,0,168.626,0,4,30,700,1001,9.0,4,170.797,1,736621.416321,Aud,2016-10-18 09:56:00,11.0,11.0,1509,30,0.5235987755982988,R,R,1,0
Bilateral,13_10_2016 level15_700_Robin 15_5 Bilateral_T10,13,0,985.679,0,4,30,700,1121,9.0,2,989.687,0,736616.67217,Aud,2016-10-13 15:05:00,11.0,11.9,1509,90,0.5235987755982988,R,R,1,60
Bilateral,13_10_2016 level15_700_Robin 15_5 Bilateral_T10,13,0,985.679,0,4,30,700,1121,9.0,2,989.687,0,736616.67217,Aud,2016-10-13 15:05:00,11.0,11.9,1509,90,0.5235987755982988,R,R,1,60
Bilateral,21_10_2016 level15_700_Robin 9_16 Bilateral_T8,36,0,1324.299,0,4,30,700,1161,9.0,4,1325.747,1,736624.402122,Aud,2016-10-21 09:16:00,9.0,7.5,1509,30,0.5235987755982988,R,R,1,0
Bilateral,13_10_2016 level15_700_Robin 8_40 Bilateral_T25,52,0,1385.953,0,4,30,700,1041,9.0,3,1388.155,0,736616.377245,Aud,2016-10-13 08:40:00,,,1509,60,0.5235987755982988,R,R,1,30
Bilateral,19_10_2016 level15_700_Robin 9_56 Bilateral14_t15-54,34,0,888.696,0,4,30,700,1201,9.0,4,895.834,1,736622.424574,Aud,2016-10-19 09:56:00,12.9,9.2,1509,30,0.5235987755982988,R,R,1,0
Bilateral,21_10_2016 level15_700_Robin 9_16 Bilateral_T8,36,0,1324.299,0,4,30,700,1161,9.0,4,1325.747,1,736624.402122,Aud,2016-10-21 09:16:00,9.0,7.5,1509,30,0.5235987755982988,R,R,1,0
Bilateral,18_10_2016 level15_700_Robin 9_56 Bilateral_T0,14,0,333.704,0,4,30,700,1121,9.0,3,338.509,0,736621.418261,Aud,2016-10-18 09:56:00,7.8,7.8,1509,60,0.5235987755982988,R,R,1,30
Bilateral,18_10_2016 level15_700_Robin 9_56 Bilateral_T0,14,0,333.704,0,4,30,700,1121,9.0,3,338.509,0,736621.418261,Aud,2016-10-18 09:56:00,7.8,7.8,1509,60,0.5235987755982988,R,R,1,30
Bilateral,18_10_2016 level15_700_Robin 9_56 Bilateral_T0,4,0,168.626,0,4,30,700,1001,9.0,4,170.797,1,736621.416321,Aud,2016-10-18 09:56:00,11.0,11.0,1509,30,0.5235987755982988,R,R,1,0
Bilateral,18_10_2016 level15_700_Robin 9_56 Bilateral_T0,4,0,168.626,0,4,30,700,1001,9.0,4,170.797,1,736621.416321,Aud,2016-10-18 09:56:00,11.0,11.0,1509,30,0.5235987755982988,R,R,1,0
Bilateral,21_10_2016 level15_700_Robin 9_16 Bilateral_T8,36,0,1324.299,0,4,30,700,1161,9.0,4,1325.747,1,736624.402122,Aud,2016-10-21 09:16:00,9.0,7.5,1509,30,0.5235987755982988,R,R,1,0
Bilateral,19_10_2016 level15_700_Robin 9_56 Bilateral14_t15-54,34,0,888.696,0,4,30,700,1201,9.0,4,895.834,1,736622.424574,Aud,2016-10-19 09:56:00,12.9,9.2,1509,30,0.5235987755982988,R,R,1,0
Bilateral,21_10_2016 level15_700_Robin 9_16 Bilateral_T8,36,0,1324.299,0,4,30,700,1161,9.0,4,1325.747,1,736624.402122,Aud,2016-10-21 09:16:00,9.0,7.5,1509,30,0.5235987755982988,R,R,1,0
Bilateral,21_10_2016 level15_700_Robin 9_16 Bilateral_T8,36,0,1324.299,0,4,30,700,1161,9.0,4,1325.747,1,736624.402122,Aud,2016-10-21 09:16:00,9.0,7.5,1509,30,0.5235987755982988,R,R,1,0
Bilateral,18_10_2016 level15_700_Robin 9_56 Bilateral_T0,55,0,939.993,0,4,30,700,1201,9.0,4,941.235,1,736621.425237,Aud,2016-10-18 09:56:00,7.2,6.5,1509,30,0.5235987755982988,R,R,1,0
Bilateral,13_10_2016 level15_700_Robin 8_40 Bilateral_T25,52,0,1385.953,0,4,30,700,1041,9.0,3,1388.155,0,736616.377245,Aud,2016-10-13 08:40:00,,,1509,60,0.5235987755982988,R,R,1,30
Bilateral,18_10_2016 level15_700_Robin 9_56 Bilateral_T0,4,0,168.626,0,4,30,700,1001,9.0,4,170.797,1,736621.416321,Aud,2016-10-18 09:56:00,11.0,11.0,1509,30,0.5235987755982988,R,R,1,0
Bilateral,13_10_2016 level15_700_Robin 15_5 Bilateral_T10,13,0,985.679,0,4,30,700,1121,9.0,2,989.687,0,736616.67217,Aud,2016-10-13 15:05:00,11.0,11.9,1509,90,0.5235987755982988,R,R,1,60
Bilateral,13_10_2016 level15_700_Robin 8_40 Bilateral_T25,52,0,1385.953,0,4,30,700,1041,9.0,3,1388.155,0,736616.377245,Aud,2016-10-13 08:40:00,,,1509,60,0.5235987755982988,R,R,1,30
Bilateral,18_10_2016 level15_700_Robin 9_56 Bilateral_T0,4,0,168.626,0,4,30,700,1001,9.0,4,170.797,1,736621.416321,Aud,2016-10-18 09:56:00,11.0,11.0,1509,30,0.5235987755982988,R,R,1,0
Bilateral,19_10_2016 level15_700_Robin 9_56 Bilateral14_t15-54,34,0,888.696,0,4,30,700,1201,9.0,4,895.834,1,736622.424574,Aud,2016-10-19 09:56:00,12.9,9.2,1509,30,0.5235987755982988,R,R,1,0
Bilateral,18_10_2016 level15_700_Robin 9_56 Bilateral_T0,14,0,333.704,0,4,30,700,1121,9.0,3,338.509,0,736621.418261,Aud,2016-10-18 09:56:00,7.8,7.8,1509,60,0.5235987755982988,R,R,1,30
Bilateral,19_10_2016 level15_700_Robin 9_56 Bilateral14_t15-54,34,0,888.696,0,4,30,700,1201,9.0,4,895.834,1,736622.424574,Aud,2016-10-19 09:56:00,12.9,9.2,1509,30,0.5235987755982988,R,R,1,0
Bilateral,13_10_2016 level15_700_Robin 15_5 Bilateral_T10,13,0,985.679,0,4,30,700,1121,9.0,2,989.687,0,736616.67217,Aud,2016-10-13 15:05:00,11.0,11.9,1509,90,0.5235987755982988,R,R,1,60
Bilateral,18_10_2016 level15_700_Robin 9_56 Bilateral_T0,55,0,939.993,0,4,30,700,1201,9.0,4,941.235,1,736621.425237,Aud,2016-10-18 09:56:00,7.2,6.5,1509,30,0.5235987755982988,R,R,1,0
Bilateral,19_10_2016 level15_700_Robin 9_56 Bilateral14_t15-54,34,0,888.696,0,4,30,700,1201,9.0,4,895.834,1,736622.424574,Aud,2016-10-19 09:56:00,12.9,9.2,1509,30,0.5235987755982988,R,R,1,0
Bilateral,19_10_2016 level15_700_Robin 9_56 Bilateral14_t15-54,34,0,888.696,0,4,30,700,1201,9.0,4,895.834,1,736622.424574,Aud,2016-10-19 09:56:00,12.9,9.2,1509,30,0.5235987755982988,R,R,1,0
Bilateral,18_10_2016 level15_700_Robin 9_56 Bilateral_T0,5,0,189.5,0,3,60,700,1061,0.0,4,191.326,0,736621.416558,Aud,2016-10-18 09:56:00,11.0,11.0,1509,30,1.0471975511965976,R,R,1,30
Bilateral,13_10_2016 level15_700_Robin 8_40 Bilateral_T25,45,0,1265.756,0,3,60,700,1021,0.0,4,1269.131,0,736616.375867,Aud,2016-10-13 08:40:00,,,1509,30,1.0471975511965976,R,R,1,30
Bilateral,18_10_2016 level15_700_Robin 9_56 Bilateral_T0,65,0,1135.304,0,3,60,700,1001,0.0,4,1136.892,0,736621.427502,Aud,2016-10-18 09:56:00,7.2,6.5,1509,30,1.0471975511965976,R,R,1,30
Bilateral,18_10_2016 level15_700_Robin 9_56 Bilateral_T0,65,0,1135.304,0,3,60,700,1001,0.0,4,1136.892,0,736621.427502,Aud,2016-10-18 09:56:00,7.2,6.5,1509,30,1.0471975511965976,R,R,1,30
Bilateral,18_10_2016 level15_700_Robin 14_33 Bilateral_T0,8,0,1411.944,0,3,60,700,1141,0.0,2,1423.081,0,736621.622846,Aud,2016-10-18 14:33:00,8.5,10.3,1509,90,1.0471975511965976,R,R,1,30
Bilateral,18_10_2016 level15_700_Robin 14_33 Bilateral_T0,8,0,1411.944,0,3,60,700,1141,0.0,2,1423.081,0,736621.622846,Aud,2016-10-18 14:33:00,8.5,10.3,1509,90,1.0471975511965976,R,R,1,30
Bilateral,13_10_2016 level15_700_Robin 8_40 Bilateral_T25,45,0,1265.756,0,3,60,700,1021,0.0,4,1269.131,0,736616.375867,Aud,2016-10-13 08:40:00,,,1509,30,1.0471975511965976,R,R,1,30
Bilateral,18_10_2016 level15_700_Robin 9_56 Bilateral_T0,5,0,189.5,0,3,60,700,1061,0.0,4,191.326,0,736621.416558,Aud,2016-10-18 09:56:00,11.0,11.0,1509,30,1.0471975511965976,R,R,1,30
Bilateral,18_10_2016 level15_700_Robin 9_56 Bilateral_T0,23,0,439.354,0,3,60,700,1041,0.0,2,440.788,0,736621.419446,Aud,2016-10-18 09:56:00,7.8,7.8,1509,90,1.0471975511965976,R,R,1,30
Bilateral,13_10_2016 level15_700_Robin 15_5 Bilateral_T10,21,0,1555.52,0,3,60,700,1101,0.0,2,1568.682,0,736616.678872,Aud,2016-10-13 15:05:00,,,1509,90,1.0471975511965976,R,R,1,30
Bilateral,18_10_2016 level15_700_Robin 9_56 Bilateral_T0,65,0,1135.304,0,3,60,700,1001,0.0,4,1136.892,0,736621.427502,Aud,2016-10-18 09:56:00,7.2,6.5,1509,30,1.0471975511965976,R,R,1,30
Bilateral,13_10_2016 level15_700_Robin 8_40 Bilateral_T25,45,0,1265.756,0,3,60,700,1021,0.0,4,1269.131,0,736616.375867,Aud,2016-10-13 08:40:00,,,1509,30,1.0471975511965976,R,R,1,30
Bilateral,13_10_2016 level15_700_Robin 8_40 Bilateral_T25,45,0,1265.756,0,3,60,700,1021,0.0,4,1269.131,0,736616.375867,Aud,2016-10-13 08:40:00,,,1509,30,1.0471975511965976,R,R,1,30
Bilateral,13_10_2016 level15_700_Robin 15_5 Bilateral_T10,21,0,1555.52,0,3,60,700,1101,0.0,2,1568.682,0,736616.678872,Aud,2016-10-13 15:05:00,,,1509,90,1.0471975511965976,R,R,1,30
Bilateral,13_10_2016 level15_700_Robin 8_40 Bilateral_T25,45,0,1265.756,0,3,60,700,1021,0.0,4,1269.131,0,736616.375867,Aud,2016-10-13 08:40:00,,,1509,30,1.0471975511965976,R,R,1,30
Bilateral,18_10_2016 level15_700_Robin 9_56 Bilateral_T0,23,0,439.354,0,3,60,700,1041,0.0,2,440.788,0,736621.419446,Aud,2016-10-18 09:56:00,7.8,7.8,1509,90,1.0471975511965976,R,R,1,30
Bilateral,13_10_2016 level15_700_Robin 8_40 Bilateral_T25,45,0,1265.756,0,3,60,700,1021,0.0,4,1269.131,0,736616.375867,Aud,2016-10-13 08:40:00,,,1509,30,1.0471975511965976,R,R,1,30
Bilateral,21_10_2016 level15_700_Robin 9_16 Bilateral_T8,48,0,1465.927,0,3,60,700,1121,0.0,4,1467.581,0,736624.403764,Aud,2016-10-21 09:16:00,9.0,7.5,1509,30,1.0471975511965976,R,R,1,30
Bilateral,19_10_2016 level15_700_Robin 9_56 Bilateral14_t15-54,45,0,1070.003,0,3,60,700,1141,0.0,3,1071.332,1,736622.426606,Aud,2016-10-19 09:56:00,,,1509,60,1.0471975511965976,R,R,1,0
Bilateral,18_10_2016 level15_700_Robin 14_33 Bilateral_T0,8,0,1411.944,0,3,60,700,1141,0.0,2,1423.081,0,736621.622846,Aud,2016-10-18 14:33:00,8.5,10.3,1509,90,1.0471975511965976,R,R,1,30
Bilateral,13_10_2016 level15_700_Robin 15_5 Bilateral_T10,21,0,1555.52,0,3,60,700,1101,0.0,2,1568.682,0,736616.678872,Aud,2016-10-13 15:05:00,,,1509,90,1.0471975511965976,R,R,1,30
Bilateral,19_10_2016 level15_700_Robin 9_56 Bilateral14_t15-54,45,0,1070.003,0,3,60,700,1141,0.0,3,1071.332,1,736622.426606,Aud,2016-10-19 09:56:00,,,1509,60,1.0471975511965976,R,R,1,0
Bilateral,13_10_2016 level15_700_Robin 15_5 Bilateral_T10,21,0,1555.52,0,3,60,700,1101,0.0,2,1568.682,0,736616.678872,Aud,2016-10-13 15:05:00,,,1509,90,1.0471975511965976,R,R,1,30
Bilateral,18_10_2016 level15_700_Robin 9_56 Bilateral_T0,5,0,189.5,0,3,60,700,1061,0.0,4,191.326,0,736621.416558,Aud,2016-10-18 09:56:00,11.0,11.0,1509,30,1.0471975511965976,R,R,1,30
Bilateral,18_10_2016 level15_700_Robin 14_33 Bilateral_T0,8,0,1411.944,0,3,60,700,1141,0.0,2,1423.081,0,736621.622846,Aud,2016-10-18 14:33:00,8.5,10.3,1509,90,1.0471975511965976,R,R,1,30
Bilateral,13_10_2016 level15_700_Robin 15_5 Bilateral_T10,21,0,1555.52,0,3,60,700,1101,0.0,2,1568.682,0,736616.678872,Aud,2016-10-13 15:05:00,,,1509,90,1.0471975511965976,R,R,1,30
Bilateral,18_10_2016 level15_700_Robin 9_56 Bilateral_T0,65,0,1135.304,0,3,60,700,1001,0.0,4,1136.892,0,736621.427502,Aud,2016-10-18 09:56:00,7.2,6.5,1509,30,1.0471975511965976,R,R,1,30
Bilateral,18_10_2016 level15_700_Robin 14_33 Bilateral_T0,8,0,1411.944,0,3,60,700,1141,0.0,2,1423.081,0,736621.622846,Aud,2016-10-18 14:33:00,8.5,10.3,1509,90,1.0471975511965976,R,R,1,30
Bilateral,18_10_2016 level15_700_Robin 9_56 Bilateral_T0,5,0,189.5,0,3,60,700,1061,0.0,4,191.326,0,736621.416558,Aud,2016-10-18 09:56:00,11.0,11.0,1509,30,1.0471975511965976,R,R,1,30
Bilateral,18_10_2016 level15_700_Robin 9_56 Bilateral_T0,16,0,362.285,0,3,60,700,1181,4.5,3,363.8,1,736621.418554,Aud,2016-10-18 09:56:00,7.8,7.8,1509,60,1.0471975511965976,R,R,1,0
Bilateral,13_10_2016 level15_700_Robin 8_40 Bilateral_T25,36,0,1038.209,0,3,60,700,1181,4.5,4,1040.037,0,736616.373215,Aud,2016-10-13 08:40:00,,,1509,30,1.0471975511965976,R,R,1,30
Bilateral,21_10_2016 level15_700_Robin 9_16 Bilateral_T8,24,0,1181.501,0,3,60,700,1021,4.5,3,1184.023,1,736624.400483,Aud,2016-10-21 09:16:00,9.5,11.0,1509,60,1.0471975511965976,R,R,1,0
Bilateral,21_10_2016 level15_700_Robin 9_16 Bilateral_T8,60,0,1635.079,0,3,60,700,1041,4.5,3,1637.842,1,736624.405735,Aud,2016-10-21 09:16:00,8.2,7.2,1509,60,1.0471975511965976,R,R,1,0
Bilateral,21_10_2016 level15_700_Robin 9_16 Bilateral_T8,24,0,1181.501,0,3,60,700,1021,4.5,3,1184.023,1,736624.400483,Aud,2016-10-21 09:16:00,9.5,11.0,1509,60,1.0471975511965976,R,R,1,0
Bilateral,13_10_2016 level15_700_Robin 15_5 Bilateral_T10,10,0,907.763,1,3,60,700,1061,4.5,2,916.759,0,736616.671325,Aud,2016-10-13 15:05:00,11.0,11.9,1509,90,1.0471975511965976,R,R,1,30
Bilateral,18_10_2016 level15_700_Robin 9_56 Bilateral_T0,56,0,952.289,0,3,60,700,1041,4.5,3,953.772,1,736621.425383,Aud,2016-10-18 09:56:00,7.2,6.5,1509,60,1.0471975511965976,R,R,1,0
Bilateral,13_10_2016 level15_700_Robin 15_5 Bilateral_T10,10,0,907.763,1,3,60,700,1061,4.5,2,916.759,0,736616.671325,Aud,2016-10-13 15:05:00,11.0,11.9,1509,90,1.0471975511965976,R,R,1,30
Bilateral,18_10_2016 level15_700_Robin 9_56 Bilateral_T0,56,0,952.289,0,3,60,700,1041,4.5,3,953.772,1,736621.425383,Aud,2016-10-18 09:56:00,7.2,6.5,1509,60,1.0471975511965976,R,R,1,0
Bilateral,18_10_2016 level15_700_Robin 9_56 Bilateral_T0,16,0,362.285,0,3,60,700,1181,4.5,3,363.8,1,736621.418554,Aud,2016-10-18 09:56:00,7.8,7.8,1509,60,1.0471975511965976,R,R,1,0
Bilateral,18_10_2016 level15_700_Robin 14_33 Bilateral_T0,1,0,1280.288,0,3,60,700,1201,4.5,2,1285.666,0,736621.621256,Aud,2016-10-18 14:33:00,8.5,10.3,1509,90,1.0471975511965976,R,R,1,30
Bilateral,18_10_2016 level15_700_Robin 14_33 Bilateral_T0,1,0,1280.288,0,3,60,700,1201,4.5,2,1285.666,0,736621.621256,Aud,2016-10-18 14:33:00,8.5,10.3,1509,90,1.0471975511965976,R,R,1,30
Bilateral,18_10_2016 level15_700_Robin 14_33 Bilateral_T0,1,0,1280.288,0,3,60,700,1201,4.5,2,1285.666,0,736621.621256,Aud,2016-10-18 14:33:00,8.5,10.3,1509,90,1.0471975511965976,R,R,1,30
Bilateral,18_10_2016 level15_700_Robin 9_56 Bilateral_T0,56,0,952.289,0,3,60,700,1041,4.5,3,953.772,1,736621.425383,Aud,2016-10-18 09:56:00,7.2,6.5,1509,60,1.0471975511965976,R,R,1,0
Bilateral,19_10_2016 level15_700_Robin 9_56 Bilateral14_t15-54,52,0,1247.234,0,3,60,700,1061,4.5,3,1251.995,1,736622.428696,Aud,2016-10-19 09:56:00,,,1509,60,1.0471975511965976,R,R,1,0
Bilateral,18_10_2016 level15_700_Robin 9_56 Bilateral_T0,56,0,952.289,0,3,60,700,1041,4.5,3,953.772,1,736621.425383,Aud,2016-10-18 09:56:00,7.2,6.5,1509,60,1.0471975511965976,R,R,1,0
Bilateral,19_10_2016 level15_700_Robin 9_56 Bilateral14_t15-54,52,0,1247.234,0,3,60,700,1061,4.5,3,1251.995,1,736622.428696,Aud,2016-10-19 09:56:00,,,1509,60,1.0471975511965976,R,R,1,0
Bilateral,13_10_2016 level15_700_Robin 8_40 Bilateral_T25,36,0,1038.209,0,3,60,700,1181,4.5,4,1040.037,0,736616.373215,Aud,2016-10-13 08:40:00,,,1509,30,1.0471975511965976,R,R,1,30
Bilateral,13_10_2016 level15_700_Robin 15_5 Bilateral_T10,10,0,907.763,1,3,60,700,1061,4.5,2,916.759,0,736616.671325,Aud,2016-10-13 15:05:00,11.0,11.9,1509,90,1.0471975511965976,R,R,1,30
Bilateral,19_10_2016 level15_700_Robin 9_56 Bilateral14_t15-54,52,0,1247.234,0,3,60,700,1061,4.5,3,1251.995,1,736622.428696,Aud,2016-10-19 09:56:00,,,1509,60,1.0471975511965976,R,R,1,0
Bilateral,19_10_2016 level15_700_Robin 9_56 Bilateral14_t15-54,52,0,1247.234,0,3,60,700,1061,4.5,3,1251.995,1,736622.428696,Aud,2016-10-19 09:56:00,,,1509,60,1.0471975511965976,R,R,1,0
Bilateral,19_10_2016 level15_700_Robin 9_56 Bilateral14_t15-54,52,0,1247.234,0,3,60,700,1061,4.5,3,1251.995,1,736622.428696,Aud,2016-10-19 09:56:00,,,1509,60,1.0471975511965976,R,R,1,0
Bilateral,21_10_2016 level15_700_Robin 9_16 Bilateral_T8,69,0,1761.163,0,3,60,700,1001,4.5,6,1763.246,0,736624.407186,Aud,2016-10-21 09:16:00,8.2,7.2,1509,-30,1.0471975511965976,R,L,0,90
Bilateral,18_10_2016 level15_700_Robin 9_56 Bilateral_T0,56,0,952.289,0,3,60,700,1041,4.5,3,953.772,1,736621.425383,Aud,2016-10-18 09:56:00,7.2,6.5,1509,60,1.0471975511965976,R,R,1,0
Bilateral,13_10_2016 level15_700_Robin 15_5 Bilateral_T10,10,0,907.763,1,3,60,700,1061,4.5,2,916.759,0,736616.671325,Aud,2016-10-13 15:05:00,11.0,11.9,1509,90,1.0471975511965976,R,R,1,30
Bilateral,18_10_2016 level15_700_Robin 9_56 Bilateral_T0,16,0,362.285,0,3,60,700,1181,4.5,3,363.8,1,736621.418554,Aud,2016-10-18 09:56:00,7.8,7.8,1509,60,1.0471975511965976,R,R,1,0
Bilateral,13_10_2016 level15_700_Robin 15_5 Bilateral_T10,10,0,907.763,1,3,60,700,1061,4.5,2,916.759,0,736616.671325,Aud,2016-10-13 15:05:00,11.0,11.9,1509,90,1.0471975511965976,R,R,1,30
Bilateral,21_10_2016 level15_700_Robin 9_16 Bilateral_T8,24,0,1181.501,0,3,60,700,1021,4.5,3,1184.023,1,736624.400483,Aud,2016-10-21 09:16:00,9.5,11.0,1509,60,1.0471975511965976,R,R,1,0
Bilateral,18_10_2016 level15_700_Robin 14_33 Bilateral_T0,1,0,1280.288,0,3,60,700,1201,4.5,2,1285.666,0,736621.621256,Aud,2016-10-18 14:33:00,8.5,10.3,1509,90,1.0471975511965976,R,R,1,30
Bilateral,13_10_2016 level15_700_Robin 8_40 Bilateral_T25,27,0,916.272,0,3,60,700,1101,9.0,4,917.769,0,736616.371801,Aud,2016-10-13 08:40:00,8.9,11.0,1509,30,1.0471975511965976,R,R,1,30
Bilateral,21_10_2016 level15_700_Robin 9_16 Bilateral_T8,71,0,1780.29,1,3,60,700,1101,9.0,2,1785.197,0,736624.407439,Aud,2016-10-21 09:16:00,7.2,7.9,1509,90,1.0471975511965976,R,R,1,30
Bilateral,21_10_2016 level15_700_Robin 9_16 Bilateral_T8,35,0,1314.904,0,3,60,700,1081,9.0,3,1316.768,1,736624.402018,Aud,2016-10-21 09:16:00,9.0,7.5,1509,60,1.0471975511965976,R,R,1,0
Bilateral,21_10_2016 level15_700_Robin 9_16 Bilateral_T8,71,0,1780.29,1,3,60,700,1101,9.0,2,1785.197,0,736624.407439,Aud,2016-10-21 09:16:00,7.2,7.9,1509,90,1.0471975511965976,R,R,1,30
Bilateral,19_10_2016 level15_700_Robin 14_57 Bilateral6-14_Control14-end,12,0,2071.615,0,3,60,700,1041,9.0,3,2074.0,1,736622.647339,Aud,2016-10-19 14:57:00,10.1,6.2,1509,60,1.0471975511965976,R,R,1,0
Bilateral,19_10_2016 level15_700_Robin 14_57 Bilateral6-14_Control14-end,12,0,2071.615,0,3,60,700,1041,9.0,3,2074.0,1,736622.647339,Aud,2016-10-19 14:57:00,10.1,6.2,1509,60,1.0471975511965976,R,R,1,0
Bilateral,13_10_2016 level15_700_Robin 8_40 Bilateral_T25,27,0,916.272,0,3,60,700,1101,9.0,4,917.769,0,736616.371801,Aud,2016-10-13 08:40:00,8.9,11.0,1509,30,1.0471975511965976,R,R,1,30
Bilateral,21_10_2016 level15_700_Robin 9_16 Bilateral_T8,35,0,1314.904,0,3,60,700,1081,9.0,3,1316.768,1,736624.402018,Aud,2016-10-21 09:16:00,9.0,7.5,1509,60,1.0471975511965976,R,R,1,0
Bilateral,21_10_2016 level15_700_Robin 9_16 Bilateral_T8,35,0,1314.904,0,3,60,700,1081,9.0,3,1316.768,1,736624.402018,Aud,2016-10-21 09:16:00,9.0,7.5,1509,60,1.0471975511965976,R,R,1,0
Bilateral,19_10_2016 level15_700_Robin 14_57 Bilateral6-14_Control14-end,12,0,2071.615,0,3,60,700,1041,9.0,3,2074.0,1,736622.647339,Aud,2016-10-19 14:57:00,10.1,6.2,1509,60,1.0471975511965976,R,R,1,0
Bilateral,19_10_2016 level15_700_Robin 14_57 Bilateral6-14_Control14-end,12,0,2071.615,0,3,60,700,1041,9.0,3,2074.0,1,736622.647339,Aud,2016-10-19 14:57:00,10.1,6.2,1509,60,1.0471975511965976,R,R,1,0
Bilateral,13_10_2016 level15_700_Robin 8_40 Bilateral_T25,27,0,916.272,0,3,60,700,1101,9.0,4,917.769,0,736616.371801,Aud,2016-10-13 08:40:00,8.9,11.0,1509,30,1.0471975511965976,R,R,1,30
Bilateral,21_10_2016 level15_700_Robin 9_16 Bilateral_T8,35,0,1314.904,0,3,60,700,1081,9.0,3,1316.768,1,736624.402018,Aud,2016-10-21 09:16:00,9.0,7.5,1509,60,1.0471975511965976,R,R,1,0
Bilateral,19_10_2016 level15_700_Robin 14_57 Bilateral6-14_Control14-end,12,0,2071.615,0,3,60,700,1041,9.0,3,2074.0,1,736622.647339,Aud,2016-10-19 14:57:00,10.1,6.2,1509,60,1.0471975511965976,R,R,1,0
Bilateral,13_10_2016 level15_700_Robin 8_40 Bilateral_T25,27,0,916.272,0,3,60,700,1101,9.0,4,917.769,0,736616.371801,Aud,2016-10-13 08:40:00,8.9,11.0,1509,30,1.0471975511965976,R,R,1,30
Bilateral,21_10_2016 level15_700_Robin 9_16 Bilateral_T8,35,0,1314.904,0,3,60,700,1081,9.0,3,1316.768,1,736624.402018,Aud,2016-10-21 09:16:00,9.0,7.5,1509,60,1.0471975511965976,R,R,1,0
Bilateral,21_10_2016 level15_700_Robin 9_16 Bilateral_T8,71,0,1780.29,1,3,60,700,1101,9.0,2,1785.197,0,736624.407439,Aud,2016-10-21 09:16:00,7.2,7.9,1509,90,1.0471975511965976,R,R,1,30
Bilateral,21_10_2016 level15_700_Robin 9_16 Bilateral_T8,35,0,1314.904,0,3,60,700,1081,9.0,3,1316.768,1,736624.402018,Aud,2016-10-21 09:16:00,9.0,7.5,1509,60,1.0471975511965976,R,R,1,0
Bilateral,21_10_2016 level15_700_Robin 9_16 Bilateral_T8,71,0,1780.29,1,3,60,700,1101,9.0,2,1785.197,0,736624.407439,Aud,2016-10-21 09:16:00,7.2,7.9,1509,90,1.0471975511965976,R,R,1,30
Bilateral,21_10_2016 level15_700_Robin 9_16 Bilateral_T8,35,0,1314.904,0,3,60,700,1081,9.0,3,1316.768,1,736624.402018,Aud,2016-10-21 09:16:00,9.0,7.5,1509,60,1.0471975511965976,R,R,1,0
Bilateral,19_10_2016 level15_700_Robin 14_57 Bilateral6-14_Control14-end,12,0,2071.615,0,3,60,700,1041,9.0,3,2074.0,1,736622.647339,Aud,2016-10-19 14:57:00,10.1,6.2,1509,60,1.0471975511965976,R,R,1,0
Bilateral,21_10_2016 level15_700_Robin 9_16 Bilateral_T8,71,0,1780.29,1,3,60,700,1101,9.0,2,1785.197,0,736624.407439,Aud,2016-10-21 09:16:00,7.2,7.9,1509,90,1.0471975511965976,R,R,1,30
Bilateral,21_10_2016 level15_700_Robin 9_16 Bilateral_T8,35,0,1314.904,0,3,60,700,1081,9.0,3,1316.768,1,736624.402018,Aud,2016-10-21 09:16:00,9.0,7.5,1509,60,1.0471975511965976,R,R,1,0
Bilateral,19_10_2016 level15_700_Robin 14_57 Bilateral6-14_Control14-end,12,0,2071.615,0,3,60,700,1041,9.0,3,2074.0,1,736622.647339,Aud,2016-10-19 14:57:00,10.1,6.2,1509,60,1.0471975511965976,R,R,1,0
Bilateral,13_10_2016 level15_700_Robin 8_40 Bilateral_T25,27,0,916.272,0,3,60,700,1101,9.0,4,917.769,0,736616.371801,Aud,2016-10-13 08:40:00,8.9,11.0,1509,30,1.0471975511965976,R,R,1,30
Bilateral,19_10_2016 level15_700_Robin 14_57 Bilateral6-14_Control14-end,12,0,2071.615,0,3,60,700,1041,9.0,3,2074.0,1,736622.647339,Aud,2016-10-19 14:57:00,10.1,6.2,1509,60,1.0471975511965976,R,R,1,0
Bilateral,19_10_2016 level15_700_Robin 14_57 Bilateral6-14_Control14-end,12,0,2071.615,0,3,60,700,1041,9.0,3,2074.0,1,736622.647339,Aud,2016-10-19 14:57:00,10.1,6.2,1509,60,1.0471975511965976,R,R,1,0
Bilateral,19_10_2016 level15_700_Robin 14_57 Bilateral6-14_Control14-end,12,0,2071.615,0,3,60,700,1041,9.0,3,2074.0,1,736622.647339,Aud,2016-10-19 14:57:00,10.1,6.2,1509,60,1.0471975511965976,R,R,1,0
Bilateral,21_10_2016 level15_700_Robin 9_16 Bilateral_T8,71,0,1780.29,1,3,60,700,1101,9.0,2,1785.197,0,736624.407439,Aud,2016-10-21 09:16:00,7.2,7.9,1509,90,1.0471975511965976,R,R,1,30
Bilateral,21_10_2016 level15_700_Robin 9_16 Bilateral_T8,47,0,1450.032,0,2,90,700,1021,0.0,2,1454.473,1,736624.403612,Aud,2016-10-21 09:16:00,9.0,7.5,1509,90,1.5707963267948966,R,R,1,0
Bilateral,19_10_2016 level15_700_Robin 9_56 Bilateral14_t15-54,22,0,662.009,0,2,90,700,1121,0.0,3,668.803,0,736622.421946,Aud,2016-10-19 09:56:00,13.6,10.5,1509,60,1.5707963267948966,R,R,1,30
Bilateral,13_10_2016 level15_700_Robin 8_40 Bilateral_T25,30,0,962.928,0,2,90,700,1081,0.0,3,964.563,0,736616.372342,Aud,2016-10-13 08:40:00,9.1,11.5,1509,60,1.5707963267948966,R,R,1,30
Bilateral,21_10_2016 level15_700_Robin 9_16 Bilateral_T8,47,0,1450.032,0,2,90,700,1021,0.0,2,1454.473,1,736624.403612,Aud,2016-10-21 09:16:00,9.0,7.5,1509,90,1.5707963267948966,R,R,1,0
Bilateral,21_10_2016 level15_700_Robin 9_16 Bilateral_T8,47,0,1450.032,0,2,90,700,1021,0.0,2,1454.473,1,736624.403612,Aud,2016-10-21 09:16:00,9.0,7.5,1509,90,1.5707963267948966,R,R,1,0
Bilateral,21_10_2016 level15_700_Robin 9_16 Bilateral_T8,30,0,1248.672,0,2,90,700,1121,0.0,3,1250.369,0,736624.40125,Aud,2016-10-21 09:16:00,9.0,7.5,1509,60,1.5707963267948966,R,R,1,30
Bilateral,13_10_2016 level15_700_Robin 8_40 Bilateral_T25,30,0,962.928,0,2,90,700,1081,0.0,3,964.563,0,736616.372342,Aud,2016-10-13 08:40:00,9.1,11.5,1509,60,1.5707963267948966,R,R,1,30
Bilateral,18_10_2016 level15_700_Robin 9_56 Bilateral_T0,52,0,912.56,0,2,90,700,1121,0.0,3,914.349,0,736621.424926,Aud,2016-10-18 09:56:00,7.2,6.5,1509,60,1.5707963267948966,R,R,1,30
Bilateral,19_10_2016 level15_700_Robin 9_56 Bilateral14_t15-54,20,0,530.588,0,2,90,700,1041,0.0,3,533.425,0,736622.42038,Aud,2016-10-19 09:56:00,14.0,11.0,1509,60,1.5707963267948966,R,R,1,30
Bilateral,21_10_2016 level15_700_Robin 9_16 Bilateral_T8,30,0,1248.672,0,2,90,700,1121,0.0,3,1250.369,0,736624.40125,Aud,2016-10-21 09:16:00,9.0,7.5,1509,60,1.5707963267948966,R,R,1,30
Bilateral,18_10_2016 level15_700_Robin 9_56 Bilateral_T0,71,0,1202.021,0,2,90,700,1001,0.0,2,1207.262,1,736621.428317,Aud,2016-10-18 09:56:00,7.7,7.2,1509,90,1.5707963267948966,R,R,1,0
Bilateral,21_10_2016 level15_700_Robin 9_16 Bilateral_T8,47,0,1450.032,0,2,90,700,1021,0.0,2,1454.473,1,736624.403612,Aud,2016-10-21 09:16:00,9.0,7.5,1509,90,1.5707963267948966,R,R,1,0
Bilateral,18_10_2016 level15_700_Robin 9_56 Bilateral_T0,52,0,912.56,0,2,90,700,1121,0.0,3,914.349,0,736621.424926,Aud,2016-10-18 09:56:00,7.2,6.5,1509,60,1.5707963267948966,R,R,1,30
Bilateral,18_10_2016 level15_700_Robin 9_56 Bilateral_T0,19,0,397.805,0,2,90,700,1021,0.0,4,400.023,0,736621.418973,Aud,2016-10-18 09:56:00,7.8,7.8,1509,30,1.5707963267948966,R,R,1,60
Bilateral,19_10_2016 level15_700_Robin 9_56 Bilateral14_t15-54,20,0,530.588,0,2,90,700,1041,0.0,3,533.425,0,736622.42038,Aud,2016-10-19 09:56:00,14.0,11.0,1509,60,1.5707963267948966,R,R,1,30
Bilateral,19_10_2016 level15_700_Robin 9_56 Bilateral14_t15-54,22,0,662.009,0,2,90,700,1121,0.0,3,668.803,0,736622.421946,Aud,2016-10-19 09:56:00,13.6,10.5,1509,60,1.5707963267948966,R,R,1,30
Bilateral,21_10_2016 level15_700_Robin 9_16 Bilateral_T8,47,0,1450.032,0,2,90,700,1021,0.0,2,1454.473,1,736624.403612,Aud,2016-10-21 09:16:00,9.0,7.5,1509,90,1.5707963267948966,R,R,1,0
Bilateral,19_10_2016 level15_700_Robin 14_57 Bilateral6-14_Control14-end,13,0,2090.493,0,2,90,700,1101,0.0,3,2092.426,0,736622.647552,Aud,2016-10-19 14:57:00,10.1,6.2,1509,60,1.5707963267948966,R,R,1,30
Bilateral,19_10_2016 level15_700_Robin 14_57 Bilateral6-14_Control14-end,13,0,2090.493,0,2,90,700,1101,0.0,3,2092.426,0,736622.647552,Aud,2016-10-19 14:57:00,10.1,6.2,1509,60,1.5707963267948966,R,R,1,30
Bilateral,13_10_2016 level15_700_Robin 8_40 Bilateral_T25,30,0,962.928,0,2,90,700,1081,0.0,3,964.563,0,736616.372342,Aud,2016-10-13 08:40:00,9.1,11.5,1509,60,1.5707963267948966,R,R,1,30
Bilateral,21_10_2016 level15_700_Robin 9_16 Bilateral_T8,47,0,1450.032,0,2,90,700,1021,0.0,2,1454.473,1,736624.403612,Aud,2016-10-21 09:16:00,9.0,7.5,1509,90,1.5707963267948966,R,R,1,0
Bilateral,19_10_2016 level15_700_Robin 14_57 Bilateral6-14_Control14-end,13,0,2090.493,0,2,90,700,1101,0.0,3,2092.426,0,736622.647552,Aud,2016-10-19 14:57:00,10.1,6.2,1509,60,1.5707963267948966,R,R,1,30
Bilateral,18_10_2016 level15_700_Robin 9_56 Bilateral_T0,71,0,1202.021,0,2,90,700,1001,0.0,2,1207.262,1,736621.428317,Aud,2016-10-18 09:56:00,7.7,7.2,1509,90,1.5707963267948966,R,R,1,0
Bilateral,19_10_2016 level15_700_Robin 9_56 Bilateral14_t15-54,22,0,662.009,0,2,90,700,1121,0.0,3,668.803,0,736622.421946,Aud,2016-10-19 09:56:00,13.6,10.5,1509,60,1.5707963267948966,R,R,1,30
Bilateral,18_10_2016 level15_700_Robin 9_56 Bilateral_T0,71,0,1202.021,0,2,90,700,1001,0.0,2,1207.262,1,736621.428317,Aud,2016-10-18 09:56:00,7.7,7.2,1509,90,1.5707963267948966,R,R,1,0
Bilateral,21_10_2016 level15_700_Robin 9_16 Bilateral_T8,47,0,1450.032,0,2,90,700,1021,0.0,2,1454.473,1,736624.403612,Aud,2016-10-21 09:16:00,9.0,7.5,1509,90,1.5707963267948966,R,R,1,0
Bilateral,21_10_2016 level15_700_Robin 9_16 Bilateral_T8,47,0,1450.032,0,2,90,700,1021,0.0,2,1454.473,1,736624.403612,Aud,2016-10-21 09:16:00,9.0,7.5,1509,90,1.5707963267948966,R,R,1,0
Bilateral,21_10_2016 level15_700_Robin 9_16 Bilateral_T8,63,0,1690.768,0,2,90,700,1161,0.0,2,1692.716,1,736624.406369,Aud,2016-10-21 09:16:00,8.2,7.2,1509,90,1.5707963267948966,R,R,1,0
Bilateral,13_10_2016 level15_700_Robin 8_40 Bilateral_T25,30,0,962.928,0,2,90,700,1081,0.0,3,964.563,0,736616.372342,Aud,2016-10-13 08:40:00,9.1,11.5,1509,60,1.5707963267948966,R,R,1,30
Bilateral,13_10_2016 level15_700_Robin 8_40 Bilateral_T25,47,0,1293.683,0,2,90,700,1061,4.5,3,1295.955,0,736616.376178,Aud,2016-10-13 08:40:00,,,1509,60,1.5707963267948966,R,R,1,30
Bilateral,13_10_2016 level15_700_Robin 15_5 Bilateral_T10,15,0,1135.897,0,2,90,700,1181,4.5,3,1139.268,0,736616.6739,Aud,2016-10-13 15:05:00,,,1509,60,1.5707963267948966,R,R,1,30
Bilateral,18_10_2016 level15_700_Robin 9_56 Bilateral_T0,38,0,662.328,0,2,90,700,1141,4.5,3,663.847,0,736621.422026,Aud,2016-10-18 09:56:00,7.5,7.2,1509,60,1.5707963267948966,R,R,1,30
Bilateral,18_10_2016 level15_700_Robin 9_56 Bilateral_T0,59,0,983.311,0,2,90,700,1161,4.5,4,984.426,0,736621.425737,Aud,2016-10-18 09:56:00,7.2,6.5,1509,30,1.5707963267948966,R,R,1,60
Bilateral,13_10_2016 level15_700_Robin 8_40 Bilateral_T25,47,0,1293.683,0,2,90,700,1061,4.5,3,1295.955,0,736616.376178,Aud,2016-10-13 08:40:00,,,1509,60,1.5707963267948966,R,R,1,30
Bilateral,13_10_2016 level15_700_Robin 15_5 Bilateral_T10,15,0,1135.897,0,2,90,700,1181,4.5,3,1139.268,0,736616.6739,Aud,2016-10-13 15:05:00,,,1509,60,1.5707963267948966,R,R,1,30
Bilateral,18_10_2016 level15_700_Robin 9_56 Bilateral_T0,33,0,610.284,0,2,90,700,1001,4.5,4,611.641,0,736621.421422,Aud,2016-10-18 09:56:00,7.5,7.2,1509,30,1.5707963267948966,R,R,1,60
Bilateral,13_10_2016 level15_700_Robin 8_40 Bilateral_T25,47,0,1293.683,0,2,90,700,1061,4.5,3,1295.955,0,736616.376178,Aud,2016-10-13 08:40:00,,,1509,60,1.5707963267948966,R,R,1,30
Bilateral,13_10_2016 level15_700_Robin 8_40 Bilateral_T25,47,0,1293.683,0,2,90,700,1061,4.5,3,1295.955,0,736616.376178,Aud,2016-10-13 08:40:00,,,1509,60,1.5707963267948966,R,R,1,30
Bilateral,18_10_2016 level15_700_Robin 9_56 Bilateral_T0,33,0,610.284,0,2,90,700,1001,4.5,4,611.641,0,736621.421422,Aud,2016-10-18 09:56:00,7.5,7.2,1509,30,1.5707963267948966,R,R,1,60
Bilateral,18_10_2016 level15_700_Robin 9_56 Bilateral_T0,59,0,983.311,0,2,90,700,1161,4.5,4,984.426,0,736621.425737,Aud,2016-10-18 09:56:00,7.2,6.5,1509,30,1.5707963267948966,R,R,1,60
Bilateral,18_10_2016 level15_700_Robin 9_56 Bilateral_T0,38,0,662.328,0,2,90,700,1141,4.5,3,663.847,0,736621.422026,Aud,2016-10-18 09:56:00,7.5,7.2,1509,60,1.5707963267948966,R,R,1,30
Bilateral,18_10_2016 level15_700_Robin 9_56 Bilateral_T0,38,0,662.328,0,2,90,700,1141,4.5,3,663.847,0,736621.422026,Aud,2016-10-18 09:56:00,7.5,7.2,1509,60,1.5707963267948966,R,R,1,30
Bilateral,18_10_2016 level15_700_Robin 9_56 Bilateral_T0,33,0,610.284,0,2,90,700,1001,4.5,4,611.641,0,736621.421422,Aud,2016-10-18 09:56:00,7.5,7.2,1509,30,1.5707963267948966,R,R,1,60
Bilateral,18_10_2016 level15_700_Robin 9_56 Bilateral_T0,59,0,983.311,0,2,90,700,1161,4.5,4,984.426,0,736621.425737,Aud,2016-10-18 09:56:00,7.2,6.5,1509,30,1.5707963267948966,R,R,1,60
Bilateral,13_10_2016 level15_700_Robin 8_40 Bilateral_T25,47,0,1293.683,0,2,90,700,1061,4.5,3,1295.955,0,736616.376178,Aud,2016-10-13 08:40:00,,,1509,60,1.5707963267948966,R,R,1,30
Bilateral,18_10_2016 level15_700_Robin 9_56 Bilateral_T0,33,0,610.284,0,2,90,700,1001,4.5,4,611.641,0,736621.421422,Aud,2016-10-18 09:56:00,7.5,7.2,1509,30,1.5707963267948966,R,R,1,60
Bilateral,18_10_2016 level15_700_Robin 9_56 Bilateral_T0,38,0,662.328,0,2,90,700,1141,4.5,3,663.847,0,736621.422026,Aud,2016-10-18 09:56:00,7.5,7.2,1509,60,1.5707963267948966,R,R,1,30
Bilateral,18_10_2016 level15_700_Robin 9_56 Bilateral_T0,59,0,983.311,0,2,90,700,1161,4.5,4,984.426,0,736621.425737,Aud,2016-10-18 09:56:00,7.2,6.5,1509,30,1.5707963267948966,R,R,1,60
Bilateral,18_10_2016 level15_700_Robin 9_56 Bilateral_T0,59,0,983.311,0,2,90,700,1161,4.5,4,984.426,0,736621.425737,Aud,2016-10-18 09:56:00,7.2,6.5,1509,30,1.5707963267948966,R,R,1,60
Bilateral,18_10_2016 level15_700_Robin 9_56 Bilateral_T0,59,0,983.311,0,2,90,700,1161,4.5,4,984.426,0,736621.425737,Aud,2016-10-18 09:56:00,7.2,6.5,1509,30,1.5707963267948966,R,R,1,60
Bilateral,13_10_2016 level15_700_Robin 8_40 Bilateral_T25,47,0,1293.683,0,2,90,700,1061,4.5,3,1295.955,0,736616.376178,Aud,2016-10-13 08:40:00,,,1509,60,1.5707963267948966,R,R,1,30
Bilateral,18_10_2016 level15_700_Robin 9_56 Bilateral_T0,33,0,610.284,0,2,90,700,1001,4.5,4,611.641,0,736621.421422,Aud,2016-10-18 09:56:00,7.5,7.2,1509,30,1.5707963267948966,R,R,1,60
Bilateral,18_10_2016 level15_700_Robin 9_56 Bilateral_T0,1,0,103.589,0,2,90,700,1201,4.5,3,111.206,0,736621.415631,Aud,2016-10-18 09:56:00,11.0,11.0,1509,60,1.5707963267948966,R,R,1,30
Bilateral,18_10_2016 level15_700_Robin 9_56 Bilateral_T0,38,0,662.328,0,2,90,700,1141,4.5,3,663.847,0,736621.422026,Aud,2016-10-18 09:56:00,7.5,7.2,1509,60,1.5707963267948966,R,R,1,30
Bilateral,18_10_2016 level15_700_Robin 9_56 Bilateral_T0,59,0,983.311,0,2,90,700,1161,4.5,4,984.426,0,736621.425737,Aud,2016-10-18 09:56:00,7.2,6.5,1509,30,1.5707963267948966,R,R,1,60
Bilateral,18_10_2016 level15_700_Robin 9_56 Bilateral_T0,1,0,103.589,0,2,90,700,1201,4.5,3,111.206,0,736621.415631,Aud,2016-10-18 09:56:00,11.0,11.0,1509,60,1.5707963267948966,R,R,1,30
Bilateral,18_10_2016 level15_700_Robin 9_56 Bilateral_T0,38,0,662.328,0,2,90,700,1141,4.5,3,663.847,0,736621.422026,Aud,2016-10-18 09:56:00,7.5,7.2,1509,60,1.5707963267948966,R,R,1,30
Bilateral,18_10_2016 level15_700_Robin 9_56 Bilateral_T0,1,0,103.589,0,2,90,700,1201,4.5,3,111.206,0,736621.415631,Aud,2016-10-18 09:56:00,11.0,11.0,1509,60,1.5707963267948966,R,R,1,30
Bilateral,21_10_2016 level15_700_Robin 9_16 Bilateral_T8,25,0,1193.901,0,2,90,700,1061,9.0,3,1195.982,0,736624.40062,Aud,2016-10-21 09:16:00,9.5,11.0,1509,60,1.5707963267948966,R,R,1,30
Bilateral,19_10_2016 level15_700_Robin 9_56 Bilateral14_t15-54,46,0,1082.112,0,2,90,700,1181,9.0,3,1083.461,0,736622.426746,Aud,2016-10-19 09:56:00,,,1509,60,1.5707963267948966,R,R,1,30
Bilateral,18_10_2016 level15_700_Robin 9_56 Bilateral_T0,69,0,1177.882,0,2,90,700,1121,9.0,3,1179.571,0,736621.427997,Aud,2016-10-18 09:56:00,7.2,6.5,1509,60,1.5707963267948966,R,R,1,30
Bilateral,19_10_2016 level15_700_Robin 9_56 Bilateral14_t15-54,46,0,1082.112,0,2,90,700,1181,9.0,3,1083.461,0,736622.426746,Aud,2016-10-19 09:56:00,,,1509,60,1.5707963267948966,R,R,1,30
Bilateral,21_10_2016 level15_700_Robin 9_16 Bilateral_T8,53,0,1535.934,0,2,90,700,1181,9.0,3,1537.578,0,736624.404574,Aud,2016-10-21 09:16:00,8.2,7.2,1509,60,1.5707963267948966,R,R,1,30
Bilateral,19_10_2016 level15_700_Robin 9_56 Bilateral14_t15-54,46,0,1082.112,0,2,90,700,1181,9.0,3,1083.461,0,736622.426746,Aud,2016-10-19 09:56:00,,,1509,60,1.5707963267948966,R,R,1,30
Bilateral,21_10_2016 level15_700_Robin 9_16 Bilateral_T8,53,0,1535.934,0,2,90,700,1181,9.0,3,1537.578,0,736624.404574,Aud,2016-10-21 09:16:00,8.2,7.2,1509,60,1.5707963267948966,R,R,1,30
Bilateral,18_10_2016 level15_700_Robin 9_56 Bilateral_T0,69,0,1177.882,0,2,90,700,1121,9.0,3,1179.571,0,736621.427997,Aud,2016-10-18 09:56:00,7.2,6.5,1509,60,1.5707963267948966,R,R,1,30
Bilateral,21_10_2016 level15_700_Robin 9_16 Bilateral_T8,78,0,1899.362,0,2,90,700,1081,9.0,2,1901.829,1,736624.408789,Aud,2016-10-21 09:16:00,7.2,7.9,1509,90,1.5707963267948966,R,R,1,0
Bilateral,21_10_2016 level15_700_Robin 9_16 Bilateral_T8,78,0,1899.362,0,2,90,700,1081,9.0,2,1901.829,1,736624.408789,Aud,2016-10-21 09:16:00,7.2,7.9,1509,90,1.5707963267948966,R,R,1,0
Bilateral,18_10_2016 level15_700_Robin 9_56 Bilateral_T0,69,0,1177.882,0,2,90,700,1121,9.0,3,1179.571,0,736621.427997,Aud,2016-10-18 09:56:00,7.2,6.5,1509,60,1.5707963267948966,R,R,1,30
Bilateral,21_10_2016 level15_700_Robin 9_16 Bilateral_T8,53,0,1535.934,0,2,90,700,1181,9.0,3,1537.578,0,736624.404574,Aud,2016-10-21 09:16:00,8.2,7.2,1509,60,1.5707963267948966,R,R,1,30
Bilateral,21_10_2016 level15_700_Robin 9_16 Bilateral_T8,78,0,1899.362,0,2,90,700,1081,9.0,2,1901.829,1,736624.408789,Aud,2016-10-21 09:16:00,7.2,7.9,1509,90,1.5707963267948966,R,R,1,0
Bilateral,21_10_2016 level15_700_Robin 9_16 Bilateral_T8,78,0,1899.362,0,2,90,700,1081,9.0,2,1901.829,1,736624.408789,Aud,2016-10-21 09:16:00,7.2,7.9,1509,90,1.5707963267948966,R,R,1,0
Bilateral,21_10_2016 level15_700_Robin 9_16 Bilateral_T8,53,0,1535.934,0,2,90,700,1181,9.0,3,1537.578,0,736624.404574,Aud,2016-10-21 09:16:00,8.2,7.2,1509,60,1.5707963267948966,R,R,1,30
Bilateral,21_10_2016 level15_700_Robin 9_16 Bilateral_T8,53,0,1535.934,0,2,90,700,1181,9.0,3,1537.578,0,736624.404574,Aud,2016-10-21 09:16:00,8.2,7.2,1509,60,1.5707963267948966,R,R,1,30
Bilateral,21_10_2016 level15_700_Robin 9_16 Bilateral_T8,53,0,1535.934,0,2,90,700,1181,9.0,3,1537.578,0,736624.404574,Aud,2016-10-21 09:16:00,8.2,7.2,1509,60,1.5707963267948966,R,R,1,30
Bilateral,18_10_2016 level15_700_Robin 9_56 Bilateral_T0,69,0,1177.882,0,2,90,700,1121,9.0,3,1179.571,0,736621.427997,Aud,2016-10-18 09:56:00,7.2,6.5,1509,60,1.5707963267948966,R,R,1,30
Bilateral,18_10_2016 level15_700_Robin 9_56 Bilateral_T0,69,0,1177.882,0,2,90,700,1121,9.0,3,1179.571,0,736621.427997,Aud,2016-10-18 09:56:00,7.2,6.5,1509,60,1.5707963267948966,R,R,1,30
Bilateral,18_10_2016 level15_700_Robin 9_56 Bilateral_T0,69,0,1177.882,0,2,90,700,1121,9.0,3,1179.571,0,736621.427997,Aud,2016-10-18 09:56:00,7.2,6.5,1509,60,1.5707963267948966,R,R,1,30
Bilateral,21_10_2016 level15_700_Robin 9_16 Bilateral_T8,25,0,1193.901,0,2,90,700,1061,9.0,3,1195.982,0,736624.40062,Aud,2016-10-21 09:16:00,9.5,11.0,1509,60,1.5707963267948966,R,R,1,30
Bilateral,21_10_2016 level15_700_Robin 9_16 Bilateral_T8,25,0,1193.901,0,2,90,700,1061,9.0,3,1195.982,0,736624.40062,Aud,2016-10-21 09:16:00,9.5,11.0,1509,60,1.5707963267948966,R,R,1,30
Bilateral,21_10_2016 level15_700_Robin 9_16 Bilateral_T8,78,0,1899.362,0,2,90,700,1081,9.0,2,1901.829,1,736624.408789,Aud,2016-10-21 09:16:00,7.2,7.9,1509,90,1.5707963267948966,R,R,1,0
Bilateral,21_10_2016 level15_700_Robin 9_16 Bilateral_T8,53,0,1535.934,0,2,90,700,1181,9.0,3,1537.578,0,736624.404574,Aud,2016-10-21 09:16:00,8.2,7.2,1509,60,1.5707963267948966,R,R,1,30
Bilateral,21_10_2016 level15_700_Robin 9_16 Bilateral_T8,25,0,1193.901,0,2,90,700,1061,9.0,3,1195.982,0,736624.40062,Aud,2016-10-21 09:16:00,9.5,11.0,1509,60,1.5707963267948966,R,R,1,30
Bilateral,18_10_2016 level15_700_Robin 9_56 Bilateral_T0,69,0,1177.882,0,2,90,700,1121,9.0,3,1179.571,0,736621.427997,Aud,2016-10-18 09:56:00,7.2,6.5,1509,60,1.5707963267948966,R,R,1,30
Bilateral,19_10_2016 level15_700_Robin 9_56 Bilateral14_t15-54,46,0,1082.112,0,2,90,700,1181,9.0,3,1083.461,0,736622.426746,Aud,2016-10-19 09:56:00,,,1509,60,1.5707963267948966,R,R,1,30
Bilateral,18_10_2016 level15_700_Robin 9_56 Bilateral_T0,69,0,1177.882,0,2,90,700,1121,9.0,3,1179.571,0,736621.427997,Aud,2016-10-18 09:56:00,7.2,6.5,1509,60,1.5707963267948966,R,R,1,30
Bilateral,21_10_2016 level15_700_Robin 9_16 Bilateral_T8,53,0,1535.934,0,2,90,700,1181,9.0,3,1537.578,0,736624.404574,Aud,2016-10-21 09:16:00,8.2,7.2,1509,60,1.5707963267948966,R,R,1,30
Control,16_9_2016 level15_700_Robin 8_34 log,23,0,394.349,1,8,-90,700,1041,0.0,6,399.444,0,736589.361349,Aud,2016-09-16 08:34:00,,,1509,-30,-1.5707963267948966,L,L,1,60
Control,26_8_2016 level15_700_Robin 10_10 log,120,0,1704.821,0,8,-90,700,1141,0.0,8,1706.968,1,736568.443732,Aud,2016-08-26 10:10:00,,,1509,-90,-1.5707963267948966,L,L,1,0
Control,19_10_2016 level15_700_Robin 14_57 Bilateral6-14_Control14-end,39,0,4470.462,1,8,-90,700,1161,0.0,6,4474.893,0,736622.675127,Aud,2016-10-19 14:57:00,37.0,37.0,1509,-30,-1.5707963267948966,L,L,1,60
Control,12_10_2016 level15_700_Robin 14_27 log,41,0,435.948,0,8,-90,700,1161,0.0,8,437.25,1,736615.607153,Aud,2016-10-12 14:27:00,,,1509,-90,-1.5707963267948966,L,L,1,0
Control,7_9_2016 level15_700_Robin 9_31 log,1,0,79.218,0,8,-90,700,1161,0.0,3,87.024,0,736580.397729,Aud,2016-09-07 09:31:00,,,1509,60,-1.5707963267948966,L,R,0,150
Control,18_8_2016 level15_700_Robin 15_15 log,1,0,43.783,0,8,-90,700,1201,0.0,2,49.228,0,736560.636197,Aud,2016-08-18 15:15:00,,,1509,90,-1.5707963267948966,L,R,0,180
Control,26_8_2016 level15_700_Robin 14_47 log,60,0,907.418,0,8,-90,700,1201,0.0,8,909.069,1,736568.626666,Aud,2016-08-26 14:47:00,,,1509,-90,-1.5707963267948966,L,L,1,0
Control,14_10_2016 level15_700_Robin 15_46 log,72,0,823.091,0,8,-90,700,1041,0.0,7,824.934,0,736617.666935,Aud,2016-10-14 15:46:00,,,1509,-60,-1.5707963267948966,L,L,1,30
Control,26_8_2016 level15_700_Robin 10_10 log,22,0,383.368,1,8,-90,700,1141,0.0,7,390.725,0,736568.428498,Aud,2016-08-26 10:10:00,,,1509,-60,-1.5707963267948966,L,L,1,30
Control,17_10_2016 level15_700_Robin 14_20 log,31,0,601.338,0,8,-90,700,1021,0.0,8,602.342,1,736620.604413,Aud,2016-10-17 14:20:00,,,1509,-90,-1.5707963267948966,L,L,1,0
Control,20_10_2016 level15_700_Robin 14_46 log,46,0,858.112,1,8,-90,700,1181,0.0,7,862.997,0,736623.625817,Aud,2016-10-20 14:46:00,,,1509,-60,-1.5707963267948966,L,L,1,30
