Condition,originalFile,Trial,CorrectionTrial,StartTime,CenterReward,SpkrIdx,SpkrPos,duration,HoldTime,Atten,Response,RespTime,Correct,ComputerTime,Modality,SessionDate,LeftTemperature,RightTemperature,fNum,ResponseAngle,Spkr_Rad,spkr_hemifield,resp_hemifield,LatCorrect,Error
Left,23_10_2016 level15_700_Robin 15_57 Left_T7,13,0,1191.439,0,8,-90,700,1181,0.0,8,1192.674,1,736626.67878,Aud,2016-10-23 15:57:00,9.3,36.0,1509,-90,-1.5707963267948966,L,L,1,0
Left,25_10_2016 level15_700_Robin 8_27 Left_T9,41,0,1142.552,0,8,-90,700,1161,0.0,8,1144.026,1,736628.365499,Aud,2016-10-25 08:27:00,9.6,36.0,1509,-90,-1.5707963267948966,L,L,1,0
Left,23_10_2016 level15_700_Robin 15_57 Left_T7,98,0,2396.605,0,8,-90,700,1181,0.0,8,2401.5,1,736626.692771,Aud,2016-10-23 15:57:00,,,1509,-90,-1.5707963267948966,L,L,1,0
Left,23_10_2016 level15_700_Robin 15_57 Left_T7,98,0,2396.605,0,8,-90,700,1181,0.0,8,2401.5,1,736626.692771,Aud,2016-10-23 15:57:00,,,1509,-90,-1.5707963267948966,L,L,1,0
Left,12_10_2016 level15_700_Robin 10_3 Left,9,0,415.236,0,8,-90,700,1021,0.0,8,418.535,1,736615.423969,Aud,2016-10-12 10:03:00,11.0,37.0,1509,-90,-1.5707963267948966,L,L,1,0
Left,12_10_2016 level15_700_Robin 10_3 Left,37,0,942.538,0,8,-90,700,1161,0.0,8,944.758,1,736615.430059,Aud,2016-10-12 10:03:00,8.9,37.0,1509,-90,-1.5707963267948966,L,L,1,0
Left,23_10_2016 level15_700_Robin 15_57 Left_T7,72,0,2010.385,0,8,-90,700,1041,0.0,8,2012.137,1,736626.688263,Aud,2016-10-23 15:57:00,7.9,36.0,1509,-90,-1.5707963267948966,L,L,1,0
Left,12_10_2016 level15_700_Robin 10_3 Left,9,0,415.236,0,8,-90,700,1021,0.0,8,418.535,1,736615.423969,Aud,2016-10-12 10:03:00,11.0,37.0,1509,-90,-1.5707963267948966,L,L,1,0
Left,25_10_2016 level15_700_Robin 8_27 Left_T9,48,0,1243.993,0,8,-90,700,1121,4.5,8,1246.001,1,736628.36668,Aud,2016-10-25 08:27:00,9.4,36.0,1509,-90,-1.5707963267948966,L,L,1,0
Left,26_10_2016 level15_700_Robin 10_22 Left_T23,62,0,1677.072,0,8,-90,700,1021,4.5,4,1667.842,0,736629.45139,Aud,2016-10-26 10:22:00,10.2,36.0,1509,30,-1.5707963267948966,L,R,0,120
Left,25_10_2016 level15_700_Robin 8_27 Left_T9,98,0,1801.349,0,8,-90,700,1041,4.5,3,1806.976,0,736628.373171,Aud,2016-10-25 08:27:00,9.2,36.0,1509,60,-1.5707963267948966,L,R,0,150
Left,25_10_2016 level15_700_Robin 8_27 Left_T9,48,0,1243.993,0,8,-90,700,1121,4.5,8,1246.001,1,736628.36668,Aud,2016-10-25 08:27:00,9.4,36.0,1509,-90,-1.5707963267948966,L,L,1,0
Left,26_10_2016 level15_700_Robin 10_22 Left_T23,47,0,1419.918,0,8,-90,700,1161,4.5,8,1421.47,1,736629.44843,Aud,2016-10-26 10:22:00,9.5,36.0,1509,-90,-1.5707963267948966,L,L,1,0
Left,26_10_2016 level15_700_Robin 10_22 Left_T23,47,0,1419.918,0,8,-90,700,1161,4.5,8,1421.47,1,736629.44843,Aud,2016-10-26 10:22:00,9.5,36.0,1509,-90,-1.5707963267948966,L,L,1,0
Left,26_10_2016 level15_700_Robin 10_22 Left_T23,62,0,1677.072,0,8,-90,700,1021,4.5,4,1667.842,0,736629.45139,Aud,2016-10-26 10:22:00,10.2,36.0,1509,30,-1.5707963267948966,L,R,0,120
Left,25_10_2016 level15_700_Robin 8_27 Left_T9,48,0,1243.993,0,8,-90,700,1121,4.5,8,1246.001,1,736628.36668,Aud,2016-10-25 08:27:00,9.4,36.0,1509,-90,-1.5707963267948966,L,L,1,0
Left,26_10_2016 level15_700_Robin 10_22 Left_T23,68,0,1790.411,0,8,-90,700,1081,9.0,7,1791.874,0,736629.452717,Aud,2016-10-26 10:22:00,10.2,36.0,1509,-60,-1.5707963267948966,L,L,1,30
Left,23_10_2016 level15_700_Robin 15_57 Left_T7,46,0,1654.149,0,8,-90,700,1161,9.0,8,1655.625,1,736626.684137,Aud,2016-10-23 15:57:00,8.0,36.0,1509,-90,-1.5707963267948966,L,L,1,0
Left,26_10_2016 level15_700_Robin 10_22 Left_T23,68,0,1790.411,0,8,-90,700,1081,9.0,7,1791.874,0,736629.452717,Aud,2016-10-26 10:22:00,10.2,36.0,1509,-60,-1.5707963267948966,L,L,1,30
Left,26_10_2016 level15_700_Robin 10_22 Left_T23,68,0,1790.411,0,8,-90,700,1081,9.0,7,1791.874,0,736629.452717,Aud,2016-10-26 10:22:00,10.2,36.0,1509,-60,-1.5707963267948966,L,L,1,30
Left,23_10_2016 level15_700_Robin 15_57 Left_T7,46,0,1654.149,0,8,-90,700,1161,9.0,8,1655.625,1,736626.684137,Aud,2016-10-23 15:57:00,8.0,36.0,1509,-90,-1.5707963267948966,L,L,1,0
Left,26_10_2016 level15_700_Robin 10_22 Left_T23,68,0,1790.411,0,8,-90,700,1081,9.0,7,1791.874,0,736629.452717,Aud,2016-10-26 10:22:00,10.2,36.0,1509,-60,-1.5707963267948966,L,L,1,30
Left,23_10_2016 level15_700_Robin 15_57 Left_T7,46,0,1654.149,0,8,-90,700,1161,9.0,8,1655.625,1,736626.684137,Aud,2016-10-23 15:57:00,8.0,36.0,1509,-90,-1.5707963267948966,L,L,1,0
Left,23_10_2016 level15_700_Robin 15_57 Left_T7,46,0,1654.149,0,8,-90,700,1161,9.0,8,1655.625,1,736626.684137,Aud,2016-10-23 15:57:00,8.0,36.0,1509,-90,-1.5707963267948966,L,L,1,0
Left,25_10_2016 level15_700_Robin 8_27 Left_T9,100,0,1834.48,0,7,-60,700,1141,0.0,8,1836.034,0,736628.373508,Aud,2016-10-25 08:27:00,,,1509,-90,-1.0471975511965976,L,L,1,30
Left,23_10_2016 level15_700_Robin 15_57 Left_T7,36,0,1562.616,0,7,-60,700,1201,0.0,8,1564.689,0,736626.683085,Aud,2016-10-23 15:57:00,8.4,36.0,1509,-90,-1.0471975511965976,L,L,1,30
Left,25_10_2016 level15_700_Robin 8_27 Left_T9,58,0,1354.999,0,7,-60,700,1141,0.0,7,1356.408,1,736628.367957,Aud,2016-10-25 08:27:00,9.2,36.0,1509,-60,-1.0471975511965976,L,L,1,0
Left,26_10_2016 level15_700_Robin 10_22 Left_T23,53,0,1514.189,0,7,-60,700,1141,0.0,8,1515.594,0,736629.44952,Aud,2016-10-26 10:22:00,9.4,36.0,1509,-90,-1.0471975511965976,L,L,1,30
Left,26_10_2016 level15_700_Robin 10_22 Left_T23,53,0,1514.189,0,7,-60,700,1141,0.0,8,1515.594,0,736629.44952,Aud,2016-10-26 10:22:00,9.4,36.0,1509,-90,-1.0471975511965976,L,L,1,30
Left,23_10_2016 level15_700_Robin 15_57 Left_T7,36,0,1562.616,0,7,-60,700,1201,0.0,8,1564.689,0,736626.683085,Aud,2016-10-23 15:57:00,8.4,36.0,1509,-90,-1.0471975511965976,L,L,1,30
Left,26_10_2016 level15_700_Robin 10_22 Left_T23,53,0,1514.189,0,7,-60,700,1141,0.0,8,1515.594,0,736629.44952,Aud,2016-10-26 10:22:00,9.4,36.0,1509,-90,-1.0471975511965976,L,L,1,30
Left,26_10_2016 level15_700_Robin 10_22 Left_T23,53,0,1514.189,0,7,-60,700,1141,0.0,8,1515.594,0,736629.44952,Aud,2016-10-26 10:22:00,9.4,36.0,1509,-90,-1.0471975511965976,L,L,1,30
Left,26_10_2016 level15_700_Robin 10_22 Left_T23,98,0,2204.965,0,7,-60,700,1061,4.5,8,2206.682,0,736629.457518,Aud,2016-10-26 10:22:00,,,1509,-90,-1.0471975511965976,L,L,1,30
Left,26_10_2016 level15_700_Robin 10_22 Left_T23,98,0,2204.965,0,7,-60,700,1061,4.5,8,2206.682,0,736629.457518,Aud,2016-10-26 10:22:00,,,1509,-90,-1.0471975511965976,L,L,1,30
Left,12_10_2016 level15_700_Robin 10_3 Left,6,0,322.956,0,7,-60,700,1041,4.5,2,331.49,0,736615.422961,Aud,2016-10-12 10:03:00,11.0,37.0,1509,90,-1.0471975511965976,L,R,0,150
Left,23_10_2016 level15_700_Robin 15_57 Left_T7,14,0,1202.678,0,7,-60,700,1081,4.5,4,1204.322,0,736626.678915,Aud,2016-10-23 15:57:00,9.3,36.0,1509,30,-1.0471975511965976,L,R,0,90
Left,23_10_2016 level15_700_Robin 15_57 Left_T7,83,0,2148.959,0,7,-60,700,1021,4.5,8,2150.032,0,736626.689859,Aud,2016-10-23 15:57:00,7.9,36.0,1509,-90,-1.0471975511965976,L,L,1,30
Left,26_10_2016 level15_700_Robin 10_22 Left_T23,98,0,2204.965,0,7,-60,700,1061,4.5,8,2206.682,0,736629.457518,Aud,2016-10-26 10:22:00,,,1509,-90,-1.0471975511965976,L,L,1,30
Left,25_10_2016 level15_700_Robin 8_27 Left_T9,55,0,1324.836,0,7,-60,700,1081,4.5,8,1326.596,0,736628.367612,Aud,2016-10-25 08:27:00,9.2,36.0,1509,-90,-1.0471975511965976,L,L,1,30
Left,23_10_2016 level15_700_Robin 15_57 Left_T7,14,0,1202.678,0,7,-60,700,1081,4.5,4,1204.322,0,736626.678915,Aud,2016-10-23 15:57:00,9.3,36.0,1509,30,-1.0471975511965976,L,R,0,90
Left,12_10_2016 level15_700_Robin 10_3 Left,38,0,956.715,0,7,-60,700,1001,9.0,8,960.772,0,736615.430245,Aud,2016-10-12 10:03:00,8.9,37.0,1509,-90,-1.0471975511965976,L,L,1,30
Left,23_10_2016 level15_700_Robin 15_57 Left_T7,48,0,1678.286,0,7,-60,700,1121,9.0,4,1681.845,0,736626.68444,Aud,2016-10-23 15:57:00,8.0,36.0,1509,30,-1.0471975511965976,L,R,0,90
Left,25_10_2016 level15_700_Robin 8_27 Left_T9,30,0,1014.382,0,7,-60,700,1121,9.0,4,1019.053,0,736628.364052,Aud,2016-10-25 08:27:00,8.1,36.0,1509,30,-1.0471975511965976,L,R,0,90
Left,25_10_2016 level15_700_Robin 8_27 Left_T9,12,0,791.343,0,7,-60,700,1021,9.0,8,793.516,0,736628.361442,Aud,2016-10-25 08:27:00,11.0,36.0,1509,-90,-1.0471975511965976,L,L,1,30
Left,25_10_2016 level15_700_Robin 8_27 Left_T9,12,0,791.343,0,7,-60,700,1021,9.0,8,793.516,0,736628.361442,Aud,2016-10-25 08:27:00,11.0,36.0,1509,-90,-1.0471975511965976,L,L,1,30
Left,25_10_2016 level15_700_Robin 8_27 Left_T9,12,0,791.343,0,7,-60,700,1021,9.0,8,793.516,0,736628.361442,Aud,2016-10-25 08:27:00,11.0,36.0,1509,-90,-1.0471975511965976,L,L,1,30
Left,25_10_2016 level15_700_Robin 8_27 Left_T9,30,0,1014.382,0,7,-60,700,1121,9.0,4,1019.053,0,736628.364052,Aud,2016-10-25 08:27:00,8.1,36.0,1509,30,-1.0471975511965976,L,R,0,90
Left,12_10_2016 level15_700_Robin 10_3 Left,38,0,956.715,0,7,-60,700,1001,9.0,8,960.772,0,736615.430245,Aud,2016-10-12 10:03:00,8.9,37.0,1509,-90,-1.0471975511965976,L,L,1,30
Left,23_10_2016 level15_700_Robin 15_57 Left_T7,68,0,1945.299,0,6,-30,700,1101,0.0,7,1947.135,0,736626.687511,Aud,2016-10-23 15:57:00,8.0,36.0,1509,-60,-0.5235987755982988,L,L,1,30
Left,25_10_2016 level15_700_Robin 8_27 Left_T9,84,0,1610.281,0,6,-30,700,1101,0.0,6,1611.444,1,736628.370909,Aud,2016-10-25 08:27:00,9.2,36.0,1509,-30,-0.5235987755982988,L,L,1,0
Left,23_10_2016 level15_700_Robin 15_57 Left_T7,68,0,1945.299,0,6,-30,700,1101,0.0,7,1947.135,0,736626.687511,Aud,2016-10-23 15:57:00,8.0,36.0,1509,-60,-0.5235987755982988,L,L,1,30
Left,23_10_2016 level15_700_Robin 15_57 Left_T7,60,0,1793.6,0,6,-30,700,1021,0.0,7,1795.203,0,736626.685752,Aud,2016-10-23 15:57:00,8.0,36.0,1509,-60,-0.5235987755982988,L,L,1,30
Left,25_10_2016 level15_700_Robin 8_27 Left_T9,84,0,1610.281,0,6,-30,700,1101,0.0,6,1611.444,1,736628.370909,Aud,2016-10-25 08:27:00,9.2,36.0,1509,-30,-0.5235987755982988,L,L,1,0
Left,25_10_2016 level15_700_Robin 8_27 Left_T9,84,0,1610.281,0,6,-30,700,1101,0.0,6,1611.444,1,736628.370909,Aud,2016-10-25 08:27:00,9.2,36.0,1509,-30,-0.5235987755982988,L,L,1,0
Left,25_10_2016 level15_700_Robin 8_27 Left_T9,34,0,1063.689,0,6,-30,700,1101,0.0,7,1065.209,0,736628.364587,Aud,2016-10-25 08:27:00,8.1,36.0,1509,-60,-0.5235987755982988,L,L,1,30
Left,23_10_2016 level15_700_Robin 15_57 Left_T7,60,0,1793.6,0,6,-30,700,1021,0.0,7,1795.203,0,736626.685752,Aud,2016-10-23 15:57:00,8.0,36.0,1509,-60,-0.5235987755982988,L,L,1,30
Left,26_10_2016 level15_700_Robin 10_22 Left_T23,41,0,1319.327,0,6,-30,700,1181,4.5,7,1320.78,0,736629.447265,Aud,2016-10-26 10:22:00,9.5,36.0,1509,-60,-0.5235987755982988,L,L,1,30
Left,26_10_2016 level15_700_Robin 10_22 Left_T23,109,0,2363.444,0,6,-30,700,1021,4.5,2,2377.671,0,736629.459497,Aud,2016-10-26 10:22:00,,,1509,90,-0.5235987755982988,L,R,0,120
Left,26_10_2016 level15_700_Robin 10_22 Left_T23,109,0,2363.444,0,6,-30,700,1021,4.5,2,2377.671,0,736629.459497,Aud,2016-10-26 10:22:00,,,1509,90,-0.5235987755982988,L,R,0,120
Left,26_10_2016 level15_700_Robin 10_22 Left_T23,41,0,1319.327,0,6,-30,700,1181,4.5,7,1320.78,0,736629.447265,Aud,2016-10-26 10:22:00,9.5,36.0,1509,-60,-0.5235987755982988,L,L,1,30
Left,26_10_2016 level15_700_Robin 10_22 Left_T23,109,0,2363.444,0,6,-30,700,1021,4.5,2,2377.671,0,736629.459497,Aud,2016-10-26 10:22:00,,,1509,90,-0.5235987755982988,L,R,0,120
Left,25_10_2016 level15_700_Robin 8_27 Left_T9,85,0,1620.175,0,6,-30,700,1161,4.5,7,1621.797,0,736628.371028,Aud,2016-10-25 08:27:00,9.2,36.0,1509,-60,-0.5235987755982988,L,L,1,30
Left,25_10_2016 level15_700_Robin 8_27 Left_T9,85,0,1620.175,0,6,-30,700,1161,4.5,7,1621.797,0,736628.371028,Aud,2016-10-25 08:27:00,9.2,36.0,1509,-60,-0.5235987755982988,L,L,1,30
Left,12_10_2016 level15_700_Robin 10_3 Left,10,0,432.958,0,6,-30,700,1201,4.5,7,434.694,0,736615.424156,Aud,2016-10-12 10:03:00,11.0,37.0,1509,-60,-0.5235987755982988,L,L,1,30
Left,23_10_2016 level15_700_Robin 15_57 Left_T7,24,0,1414.393,0,6,-30,700,1061,9.0,7,1416.051,0,736626.681365,Aud,2016-10-23 15:57:00,9.0,36.0,1509,-60,-0.5235987755982988,L,L,1,30
Left,23_10_2016 level15_700_Robin 15_57 Left_T7,24,0,1414.393,0,6,-30,700,1061,9.0,7,1416.051,0,736626.681365,Aud,2016-10-23 15:57:00,9.0,36.0,1509,-60,-0.5235987755982988,L,L,1,30
Left,23_10_2016 level15_700_Robin 15_57 Left_T7,24,0,1414.393,0,6,-30,700,1061,9.0,7,1416.051,0,736626.681365,Aud,2016-10-23 15:57:00,9.0,36.0,1509,-60,-0.5235987755982988,L,L,1,30
Left,23_10_2016 level15_700_Robin 15_57 Left_T7,24,0,1414.393,0,6,-30,700,1061,9.0,7,1416.051,0,736626.681365,Aud,2016-10-23 15:57:00,9.0,36.0,1509,-60,-0.5235987755982988,L,L,1,30
Left,26_10_2016 level15_700_Robin 10_22 Left_T23,74,0,1864.172,0,6,-30,700,1081,9.0,8,1873.549,0,736629.453662,Aud,2016-10-26 10:22:00,10.0,36.0,1509,-90,-0.5235987755982988,L,L,1,60
Left,23_10_2016 level15_700_Robin 15_57 Left_T7,28,0,1473.269,1,6,-30,700,1161,9.0,3,1480.516,0,736626.682111,Aud,2016-10-23 15:57:00,9.0,36.0,1509,60,-0.5235987755982988,L,R,0,90
Left,23_10_2016 level15_700_Robin 15_57 Left_T7,24,0,1414.393,0,6,-30,700,1061,9.0,7,1416.051,0,736626.681365,Aud,2016-10-23 15:57:00,9.0,36.0,1509,-60,-0.5235987755982988,L,L,1,30
Left,23_10_2016 level15_700_Robin 15_57 Left_T7,24,0,1414.393,0,6,-30,700,1061,9.0,7,1416.051,0,736626.681365,Aud,2016-10-23 15:57:00,9.0,36.0,1509,-60,-0.5235987755982988,L,L,1,30
Left,26_10_2016 level15_700_Robin 10_22 Left_T23,28,0,1115.481,1,4,30,700,1201,0.0,3,1122.489,0,736629.44497,Aud,2016-10-26 10:22:00,11.0,36.0,1509,60,0.5235987755982988,R,R,1,30
Left,26_10_2016 level15_700_Robin 10_22 Left_T23,88,0,2056.336,0,4,30,700,1121,0.0,4,2058.28,1,736629.455801,Aud,2016-10-26 10:22:00,,,1509,30,0.5235987755982988,R,R,1,0
Left,12_10_2016 level15_700_Robin 10_3 Left,20,0,598.603,0,4,30,700,1061,0.0,3,606.245,0,736615.426141,Aud,2016-10-12 10:03:00,9.5,37.0,1509,60,0.5235987755982988,R,R,1,30
Left,23_10_2016 level15_700_Robin 15_57 Left_T7,87,0,2199.012,1,4,30,700,1061,0.0,6,2202.972,0,736626.690473,Aud,2016-10-23 15:57:00,7.9,36.0,1509,-30,0.5235987755982988,R,L,0,60
Left,23_10_2016 level15_700_Robin 15_57 Left_T7,87,0,2199.012,1,4,30,700,1061,0.0,6,2202.972,0,736626.690473,Aud,2016-10-23 15:57:00,7.9,36.0,1509,-30,0.5235987755982988,R,L,0,60
Left,26_10_2016 level15_700_Robin 10_22 Left_T23,88,0,2056.336,0,4,30,700,1121,0.0,4,2058.28,1,736629.455801,Aud,2016-10-26 10:22:00,,,1509,30,0.5235987755982988,R,R,1,0
Left,26_10_2016 level15_700_Robin 10_22 Left_T23,28,0,1115.481,1,4,30,700,1201,0.0,3,1122.489,0,736629.44497,Aud,2016-10-26 10:22:00,11.0,36.0,1509,60,0.5235987755982988,R,R,1,30
Left,26_10_2016 level15_700_Robin 10_22 Left_T23,28,0,1115.481,1,4,30,700,1201,0.0,3,1122.489,0,736629.44497,Aud,2016-10-26 10:22:00,11.0,36.0,1509,60,0.5235987755982988,R,R,1,30
Left,25_10_2016 level15_700_Robin 8_27 Left_T9,28,0,968.885,0,4,30,700,1061,4.5,2,970.868,0,736628.363494,Aud,2016-10-25 08:27:00,8.1,36.0,1509,90,0.5235987755982988,R,R,1,60
Left,25_10_2016 level15_700_Robin 8_27 Left_T9,67,0,1449.281,0,4,30,700,1001,4.5,2,1451.365,0,736628.369056,Aud,2016-10-25 08:27:00,9.2,36.0,1509,90,0.5235987755982988,R,R,1,60
Left,25_10_2016 level15_700_Robin 8_27 Left_T9,28,0,968.885,0,4,30,700,1061,4.5,2,970.868,0,736628.363494,Aud,2016-10-25 08:27:00,8.1,36.0,1509,90,0.5235987755982988,R,R,1,60
Left,26_10_2016 level15_700_Robin 10_22 Left_T23,94,0,2129.6,0,4,30,700,1041,4.5,3,2131.28,0,736629.456646,Aud,2016-10-26 10:22:00,,,1509,60,0.5235987755982988,R,R,1,30
Left,26_10_2016 level15_700_Robin 10_22 Left_T23,94,0,2129.6,0,4,30,700,1041,4.5,3,2131.28,0,736629.456646,Aud,2016-10-26 10:22:00,,,1509,60,0.5235987755982988,R,R,1,30
Left,26_10_2016 level15_700_Robin 10_22 Left_T23,94,0,2129.6,0,4,30,700,1041,4.5,3,2131.28,0,736629.456646,Aud,2016-10-26 10:22:00,,,1509,60,0.5235987755982988,R,R,1,30
Left,26_10_2016 level15_700_Robin 10_22 Left_T23,94,0,2129.6,0,4,30,700,1041,4.5,3,2131.28,0,736629.456646,Aud,2016-10-26 10:22:00,,,1509,60,0.5235987755982988,R,R,1,30
Left,25_10_2016 level15_700_Robin 8_27 Left_T9,28,0,968.885,0,4,30,700,1061,4.5,2,970.868,0,736628.363494,Aud,2016-10-25 08:27:00,8.1,36.0,1509,90,0.5235987755982988,R,R,1,60
Left,23_10_2016 level15_700_Robin 15_57 Left_T7,57,0,1766.953,0,4,30,700,1141,9.0,3,1768.2,0,736626.685441,Aud,2016-10-23 15:57:00,8.0,36.0,1509,60,0.5235987755982988,R,R,1,30
Left,25_10_2016 level15_700_Robin 8_27 Left_T9,60,0,1382.239,0,4,30,700,1041,9.0,4,1383.996,1,736628.368277,Aud,2016-10-25 08:27:00,9.2,36.0,1509,30,0.5235987755982988,R,R,1,0
Left,23_10_2016 level15_700_Robin 15_57 Left_T7,57,0,1766.953,0,4,30,700,1141,9.0,3,1768.2,0,736626.685441,Aud,2016-10-23 15:57:00,8.0,36.0,1509,60,0.5235987755982988,R,R,1,30
Left,25_10_2016 level15_700_Robin 8_27 Left_T9,42,0,1154.547,0,4,30,700,1141,9.0,4,1155.995,1,736628.365638,Aud,2016-10-25 08:27:00,9.6,36.0,1509,30,0.5235987755982988,R,R,1,0
Left,25_10_2016 level15_700_Robin 8_27 Left_T9,104,0,1982.931,0,4,30,700,1081,9.0,8,1987.08,0,736628.375256,Aud,2016-10-25 08:27:00,,,1509,-90,0.5235987755982988,R,L,0,120
Left,25_10_2016 level15_700_Robin 8_27 Left_T9,40,0,1124.637,0,4,30,700,1201,9.0,4,1126.279,1,736628.365293,Aud,2016-10-25 08:27:00,10.4,36.0,1509,30,0.5235987755982988,R,R,1,0
Left,25_10_2016 level15_700_Robin 8_27 Left_T9,40,0,1124.637,0,4,30,700,1201,9.0,4,1126.279,1,736628.365293,Aud,2016-10-25 08:27:00,10.4,36.0,1509,30,0.5235987755982988,R,R,1,0
Left,23_10_2016 level15_700_Robin 15_57 Left_T7,57,0,1766.953,0,4,30,700,1141,9.0,3,1768.2,0,736626.685441,Aud,2016-10-23 15:57:00,8.0,36.0,1509,60,0.5235987755982988,R,R,1,30
Left,23_10_2016 level15_700_Robin 15_57 Left_T7,40,0,1597.515,0,3,60,700,1041,0.0,4,1598.827,0,736626.68348,Aud,2016-10-23 15:57:00,8.4,36.0,1509,30,1.0471975511965976,R,R,1,30
Left,12_10_2016 level15_700_Robin 10_3 Left,22,0,647.451,0,3,60,700,1141,0.0,4,649.771,0,736615.426645,Aud,2016-10-12 10:03:00,9.5,37.0,1509,30,1.0471975511965976,R,R,1,30
Left,25_10_2016 level15_700_Robin 8_27 Left_T9,95,0,1767.35,0,3,60,700,1001,0.0,2,1769.53,0,736628.372739,Aud,2016-10-25 08:27:00,9.2,36.0,1509,90,1.0471975511965976,R,R,1,30
Left,25_10_2016 level15_700_Robin 8_27 Left_T9,95,0,1767.35,0,3,60,700,1001,0.0,2,1769.53,0,736628.372739,Aud,2016-10-25 08:27:00,9.2,36.0,1509,90,1.0471975511965976,R,R,1,30
Left,12_10_2016 level15_700_Robin 10_3 Left,22,0,647.451,0,3,60,700,1141,0.0,4,649.771,0,736615.426645,Aud,2016-10-12 10:03:00,9.5,37.0,1509,30,1.0471975511965976,R,R,1,30
Left,25_10_2016 level15_700_Robin 8_27 Left_T9,52,0,1285.509,0,3,60,700,1021,0.0,6,1287.359,0,736628.367158,Aud,2016-10-25 08:27:00,9.2,36.0,1509,-30,1.0471975511965976,R,L,0,90
Left,12_10_2016 level15_700_Robin 10_3 Left,22,0,647.451,0,3,60,700,1141,0.0,4,649.771,0,736615.426645,Aud,2016-10-12 10:03:00,9.5,37.0,1509,30,1.0471975511965976,R,R,1,30
Left,25_10_2016 level15_700_Robin 8_27 Left_T9,95,0,1767.35,0,3,60,700,1001,0.0,2,1769.53,0,736628.372739,Aud,2016-10-25 08:27:00,9.2,36.0,1509,90,1.0471975511965976,R,R,1,30
Left,24_10_2016 level15_700_Robin 15_53 Left_T16-20,17,0,1620.241,0,3,60,700,1041,4.5,2,1621.865,0,736627.681034,Aud,2016-10-24 15:53:00,,,1509,90,1.0471975511965976,R,R,1,30
Left,23_10_2016 level15_700_Robin 15_57 Left_T7,89,0,2227.932,0,3,60,700,1101,4.5,3,2229.22,1,736626.690776,Aud,2016-10-23 15:57:00,7.9,36.0,1509,60,1.0471975511965976,R,R,1,0
Left,23_10_2016 level15_700_Robin 15_57 Left_T7,9,0,1119.049,0,3,60,700,1201,4.5,2,1125.304,0,736626.677999,Aud,2016-10-23 15:57:00,11.0,36.0,1509,90,1.0471975511965976,R,R,1,30
Left,23_10_2016 level15_700_Robin 15_57 Left_T7,77,0,2078.699,0,3,60,700,1001,4.5,6,2080.241,0,736626.689052,Aud,2016-10-23 15:57:00,7.9,36.0,1509,-30,1.0471975511965976,R,L,0,90
Left,12_10_2016 level15_700_Robin 10_3 Left,27,0,719.364,0,3,60,700,1121,4.5,4,720.956,0,736615.427469,Aud,2016-10-12 10:03:00,9.5,37.0,1509,30,1.0471975511965976,R,R,1,30
Left,25_10_2016 level15_700_Robin 8_27 Left_T9,43,0,1172.987,0,3,60,700,1081,4.5,4,1174.586,0,736628.365852,Aud,2016-10-25 08:27:00,9.6,36.0,1509,30,1.0471975511965976,R,R,1,30
Left,26_10_2016 level15_700_Robin 10_22 Left_T23,57,0,1599.621,0,3,60,700,1061,4.5,2,1605.449,0,736629.45056,Aud,2016-10-26 10:22:00,9.4,36.0,1509,90,1.0471975511965976,R,R,1,30
Left,23_10_2016 level15_700_Robin 15_57 Left_T7,89,0,2227.932,0,3,60,700,1101,4.5,3,2229.22,1,736626.690776,Aud,2016-10-23 15:57:00,7.9,36.0,1509,60,1.0471975511965976,R,R,1,0
Left,25_10_2016 level15_700_Robin 8_27 Left_T9,62,0,1409.684,0,3,60,700,1101,9.0,6,1411.245,0,736628.368592,Aud,2016-10-25 08:27:00,9.2,36.0,1509,-30,1.0471975511965976,R,L,0,90
Left,26_10_2016 level15_700_Robin 10_22 Left_T23,106,0,2302.617,0,3,60,700,1181,9.0,8,2303.839,0,736629.458643,Aud,2016-10-26 10:22:00,,,1509,-90,1.0471975511965976,R,L,0,150
Left,26_10_2016 level15_700_Robin 10_22 Left_T23,106,0,2302.617,0,3,60,700,1181,9.0,8,2303.839,0,736629.458643,Aud,2016-10-26 10:22:00,,,1509,-90,1.0471975511965976,R,L,0,150
Left,23_10_2016 level15_700_Robin 15_57 Left_T7,7,0,1064.455,0,3,60,700,1021,9.0,2,1072.85,0,736626.677392,Aud,2016-10-23 15:57:00,11.0,36.0,1509,90,1.0471975511965976,R,R,1,30
Left,23_10_2016 level15_700_Robin 15_57 Left_T7,7,0,1064.455,0,3,60,700,1021,9.0,2,1072.85,0,736626.677392,Aud,2016-10-23 15:57:00,11.0,36.0,1509,90,1.0471975511965976,R,R,1,30
Left,23_10_2016 level15_700_Robin 15_57 Left_T7,7,0,1064.455,0,3,60,700,1021,9.0,2,1072.85,0,736626.677392,Aud,2016-10-23 15:57:00,11.0,36.0,1509,90,1.0471975511965976,R,R,1,30
Left,26_10_2016 level15_700_Robin 10_22 Left_T23,106,0,2302.617,0,3,60,700,1181,9.0,8,2303.839,0,736629.458643,Aud,2016-10-26 10:22:00,,,1509,-90,1.0471975511965976,R,L,0,150
Left,25_10_2016 level15_700_Robin 8_27 Left_T9,62,0,1409.684,0,3,60,700,1101,9.0,6,1411.245,0,736628.368592,Aud,2016-10-25 08:27:00,9.2,36.0,1509,-30,1.0471975511965976,R,L,0,90
Left,26_10_2016 level15_700_Robin 10_22 Left_T23,66,0,1769.707,0,2,90,700,1101,0.0,3,1771.516,0,736629.452481,Aud,2016-10-26 10:22:00,10.2,36.0,1509,60,1.5707963267948966,R,R,1,30
Left,26_10_2016 level15_700_Robin 10_22 Left_T23,104,0,2285.269,0,2,90,700,1161,0.0,3,2287.071,0,736629.458449,Aud,2016-10-26 10:22:00,,,1509,60,1.5707963267948966,R,R,1,30
Left,26_10_2016 level15_700_Robin 10_22 Left_T23,104,0,2285.269,0,2,90,700,1161,0.0,3,2287.071,0,736629.458449,Aud,2016-10-26 10:22:00,,,1509,60,1.5707963267948966,R,R,1,30
Left,26_10_2016 level15_700_Robin 10_22 Left_T23,66,0,1769.707,0,2,90,700,1101,0.0,3,1771.516,0,736629.452481,Aud,2016-10-26 10:22:00,10.2,36.0,1509,60,1.5707963267948966,R,R,1,30
Left,26_10_2016 level15_700_Robin 10_22 Left_T23,104,0,2285.269,0,2,90,700,1161,0.0,3,2287.071,0,736629.458449,Aud,2016-10-26 10:22:00,,,1509,60,1.5707963267948966,R,R,1,30
Left,26_10_2016 level15_700_Robin 10_22 Left_T23,66,0,1769.707,0,2,90,700,1101,0.0,3,1771.516,0,736629.452481,Aud,2016-10-26 10:22:00,10.2,36.0,1509,60,1.5707963267948966,R,R,1,30
Left,26_10_2016 level15_700_Robin 10_22 Left_T23,66,0,1769.707,0,2,90,700,1101,0.0,3,1771.516,0,736629.452481,Aud,2016-10-26 10:22:00,10.2,36.0,1509,60,1.5707963267948966,R,R,1,30
Left,26_10_2016 level15_700_Robin 10_22 Left_T23,104,0,2285.269,0,2,90,700,1161,0.0,3,2287.071,0,736629.458449,Aud,2016-10-26 10:22:00,,,1509,60,1.5707963267948966,R,R,1,30
Left,23_10_2016 level15_700_Robin 15_57 Left_T7,33,0,1531.995,0,2,90,700,1081,4.5,4,1533.315,0,736626.682722,Aud,2016-10-23 15:57:00,9.0,36.0,1509,30,1.5707963267948966,R,R,1,60
Left,23_10_2016 level15_700_Robin 15_57 Left_T7,33,0,1531.995,0,2,90,700,1081,4.5,4,1533.315,0,736626.682722,Aud,2016-10-23 15:57:00,9.0,36.0,1509,30,1.5707963267948966,R,R,1,60
Left,26_10_2016 level15_700_Robin 10_22 Left_T23,73,0,1849.611,0,2,90,700,1201,4.5,2,1851.319,1,736629.453405,Aud,2016-10-26 10:22:00,10.0,36.0,1509,90,1.5707963267948966,R,R,1,0
Left,25_10_2016 level15_700_Robin 8_27 Left_T9,90,0,1689.596,0,2,90,700,1121,4.5,8,1694.851,0,736628.371874,Aud,2016-10-25 08:27:00,9.2,36.0,1509,-90,1.5707963267948966,R,L,0,180
Left,23_10_2016 level15_700_Robin 15_57 Left_T7,94,0,2290.828,0,2,90,700,1161,4.5,3,2292.787,0,736626.691512,Aud,2016-10-23 15:57:00,,,1509,60,1.5707963267948966,R,R,1,30
Left,23_10_2016 level15_700_Robin 15_57 Left_T7,33,0,1531.995,0,2,90,700,1081,4.5,4,1533.315,0,736626.682722,Aud,2016-10-23 15:57:00,9.0,36.0,1509,30,1.5707963267948966,R,R,1,60
Left,23_10_2016 level15_700_Robin 15_57 Left_T7,94,0,2290.828,0,2,90,700,1161,4.5,3,2292.787,0,736626.691512,Aud,2016-10-23 15:57:00,,,1509,60,1.5707963267948966,R,R,1,30
Left,26_10_2016 level15_700_Robin 10_22 Left_T23,73,0,1849.611,0,2,90,700,1201,4.5,2,1851.319,1,736629.453405,Aud,2016-10-26 10:22:00,10.0,36.0,1509,90,1.5707963267948966,R,R,1,0
Left,23_10_2016 level15_700_Robin 15_57 Left_T7,73,0,2024.773,0,2,90,700,1141,9.0,4,2026.191,0,736626.688427,Aud,2016-10-23 15:57:00,7.9,36.0,1509,30,1.5707963267948966,R,R,1,60
Left,23_10_2016 level15_700_Robin 15_57 Left_T7,73,0,2024.773,0,2,90,700,1141,9.0,4,2026.191,0,736626.688427,Aud,2016-10-23 15:57:00,7.9,36.0,1509,30,1.5707963267948966,R,R,1,60
Left,25_10_2016 level15_700_Robin 8_27 Left_T9,9,0,766.011,0,2,90,700,1001,9.0,3,767.783,0,736628.361144,Aud,2016-10-25 08:27:00,11.0,36.0,1509,60,1.5707963267948966,R,R,1,30
Left,25_10_2016 level15_700_Robin 8_27 Left_T9,49,0,1256.281,0,2,90,700,1061,9.0,4,1258.22,0,736628.366821,Aud,2016-10-25 08:27:00,9.4,36.0,1509,30,1.5707963267948966,R,R,1,60
Left,23_10_2016 level15_700_Robin 15_57 Left_T7,73,0,2024.773,0,2,90,700,1141,9.0,4,2026.191,0,736626.688427,Aud,2016-10-23 15:57:00,7.9,36.0,1509,30,1.5707963267948966,R,R,1,60
Left,25_10_2016 level15_700_Robin 8_27 Left_T9,49,0,1256.281,0,2,90,700,1061,9.0,4,1258.22,0,736628.366821,Aud,2016-10-25 08:27:00,9.4,36.0,1509,30,1.5707963267948966,R,R,1,60
Left,25_10_2016 level15_700_Robin 8_27 Left_T9,46,0,1218.549,0,2,90,700,1181,9.0,4,1221.777,0,736628.366398,Aud,2016-10-25 08:27:00,9.4,36.0,1509,30,1.5707963267948966,R,R,1,60
Left,25_10_2016 level15_700_Robin 8_27 Left_T9,9,0,766.011,0,2,90,700,1001,9.0,3,767.783,0,736628.361144,Aud,2016-10-25 08:27:00,11.0,36.0,1509,60,1.5707963267948966,R,R,1,30
Right,10_10_2016 level15_700_Robin 16_5 RCool04,23,0,1204.289,0,8,-90,700,1181,0.0,7,1205.669,0,736613.684739,Aud,2016-10-10 16:05:00,37.0,10.0,1509,-60,-1.5707963267948966,L,L,1,30
Right,4_10_2016 level15_700_Robin 9_25 RCool_10,84,0,1317.615,0,8,-90,700,1041,0.0,8,1319.795,1,736607.408043,Aud,2016-10-04 09:25:00,37.0,9.4,1509,-90,-1.5707963267948966,L,L,1,0
Right,5_10_2016 level15_700_Robin 10_17 RCool_0,30,0,618.435,1,8,-90,700,1081,0.0,3,627.004,0,736608.436304,Aud,2016-10-05 10:17:00,37.0,8.0,1509,60,-1.5707963267948966,L,R,0,150
Right,10_10_2016 level15_700_Robin 16_5 RCool04,126,0,2498.152,0,8,-90,700,1141,0.0,2,2511.127,0,736613.699848,Aud,2016-10-10 16:05:00,,,1509,90,-1.5707963267948966,L,R,0,180
Right,11_10_2016 level15_700_Robin 8_32 RCool01,111,0,1473.478,1,8,-90,700,1201,0.0,7,1478.634,0,736614.373018,Aud,2016-10-11 08:32:00,37.0,7.3,1509,-60,-1.5707963267948966,L,L,1,30
Right,10_10_2016 level15_700_Robin 16_5 RCool04,62,0,1763.638,0,8,-90,700,1161,0.0,6,1765.354,0,736613.691217,Aud,2016-10-10 16:05:00,37.0,8.5,1509,-30,-1.5707963267948966,L,L,1,60
Right,11_10_2016 level15_700_Robin 8_32 RCool01,5,0,214.694,0,8,-90,700,1001,0.0,7,216.775,0,736614.358413,Aud,2016-10-11 08:32:00,37.0,8.0,1509,-60,-1.5707963267948966,L,L,1,30
Right,10_10_2016 level15_700_Robin 16_5 RCool04,23,0,1204.289,0,8,-90,700,1181,0.0,7,1205.669,0,736613.684739,Aud,2016-10-10 16:05:00,37.0,10.0,1509,-60,-1.5707963267948966,L,L,1,30
Right,4_10_2016 level15_700_Robin 9_25 RCool_10,30,0,655.026,1,8,-90,700,1201,4.5,4,664.435,0,736607.400458,Aud,2016-10-04 09:25:00,37.0,9.4,1509,30,-1.5707963267948966,L,R,0,120
Right,4_10_2016 level15_700_Robin 15_3 RCool30,59,0,1302.057,0,8,-90,700,1181,4.5,6,1304.263,0,736607.6427,Aud,2016-10-04 15:03:00,,,1509,-30,-1.5707963267948966,L,L,1,60
Right,5_10_2016 level15_700_Robin 10_17 RCool_0,22,0,534.689,1,8,-90,700,1141,4.5,4,547.354,0,736608.435382,Aud,2016-10-05 10:17:00,37.0,8.0,1509,30,-1.5707963267948966,L,R,0,120
Right,10_10_2016 level15_700_Robin 16_5 RCool04,114,0,2343.491,0,8,-90,700,1201,4.5,6,2345.336,0,736613.697929,Aud,2016-10-10 16:05:00,37.0,8.2,1509,-30,-1.5707963267948966,L,L,1,60
Right,4_10_2016 level15_700_Robin 15_3 RCool30,59,0,1302.057,0,8,-90,700,1181,4.5,6,1304.263,0,736607.6427,Aud,2016-10-04 15:03:00,,,1509,-30,-1.5707963267948966,L,L,1,60
Right,11_10_2016 level15_700_Robin 8_32 RCool01,26,0,508.31,0,8,-90,700,1161,4.5,6,510.227,0,736614.36181,Aud,2016-10-11 08:32:00,37.0,8.3,1509,-30,-1.5707963267948966,L,L,1,60
Right,4_10_2016 level15_700_Robin 15_3 RCool30,59,0,1302.057,0,8,-90,700,1181,4.5,6,1304.263,0,736607.6427,Aud,2016-10-04 15:03:00,,,1509,-30,-1.5707963267948966,L,L,1,60
Right,11_10_2016 level15_700_Robin 8_32 RCool01,26,0,508.31,0,8,-90,700,1161,4.5,6,510.227,0,736614.36181,Aud,2016-10-11 08:32:00,37.0,8.3,1509,-30,-1.5707963267948966,L,L,1,60
Right,4_10_2016 level15_700_Robin 15_3 RCool30,69,0,1445.772,0,8,-90,700,1201,9.0,7,1448.278,0,736607.644368,Aud,2016-10-04 15:03:00,,,1509,-60,-1.5707963267948966,L,L,1,30
Right,11_10_2016 level15_700_Robin 8_32 RCool01,64,0,956.031,0,8,-90,700,1121,9.0,7,957.487,0,736614.366985,Aud,2016-10-11 08:32:00,37.0,7.7,1509,-60,-1.5707963267948966,L,L,1,30
Right,5_10_2016 level15_700_Robin 10_17 RCool_0,79,0,1259.93,0,8,-90,700,1041,9.0,3,1261.812,0,736608.443651,Aud,2016-10-05 10:17:00,37.0,7.4,1509,60,-1.5707963267948966,L,R,0,150
Right,5_10_2016 level15_700_Robin 10_17 RCool_0,79,0,1259.93,0,8,-90,700,1041,9.0,3,1261.812,0,736608.443651,Aud,2016-10-05 10:17:00,37.0,7.4,1509,60,-1.5707963267948966,L,R,0,150
Right,4_10_2016 level15_700_Robin 9_25 RCool_10,13,0,396.4,0,8,-90,700,1181,9.0,8,398.867,1,736607.397384,Aud,2016-10-04 09:25:00,37.0,9.4,1509,-90,-1.5707963267948966,L,L,1,0
Right,6_10_2016 level15_700_Robin 14_52 RCool04,34,0,1517.973,1,8,-90,700,1141,9.0,3,1522.207,0,736609.637306,Aud,2016-10-06 14:52:00,37.0,8.8,1509,60,-1.5707963267948966,L,R,0,150
Right,4_10_2016 level15_700_Robin 15_3 RCool30,33,0,1011.826,0,8,-90,700,1201,9.0,3,1013.874,0,736607.63934,Aud,2016-10-04 15:03:00,37.0,11.0,1509,60,-1.5707963267948966,L,R,0,150
Right,10_10_2016 level15_700_Robin 16_5 RCool04,56,0,1584.861,0,8,-90,700,1061,9.0,3,1586.907,0,736613.689151,Aud,2016-10-10 16:05:00,37.0,8.5,1509,60,-1.5707963267948966,L,R,0,150
Right,6_10_2016 level15_700_Robin 14_52 RCool04,28,0,1438.797,0,7,-60,700,1081,0.0,6,1440.357,0,736609.636359,Aud,2016-10-06 14:52:00,37.0,10.7,1509,-30,-1.0471975511965976,L,L,1,30
Right,11_10_2016 level15_700_Robin 8_32 RCool01,92,0,1266.139,0,7,-60,700,1161,0.0,7,1267.454,1,736614.370573,Aud,2016-10-11 08:32:00,37.0,7.4,1509,-60,-1.0471975511965976,L,L,1,0
Right,3_10_2016 level15_700_Robin 13_48 RCool_30,44,0,1686.689,0,7,-60,700,1041,0.0,7,1689.664,1,736606.595092,Aud,2016-10-03 13:48:00,,,1509,-60,-1.0471975511965976,L,L,1,0
Right,10_10_2016 level15_700_Robin 16_5 RCool04,111,0,2308.982,1,7,-60,700,1141,0.0,3,2313.059,0,736613.697556,Aud,2016-10-10 16:05:00,37.0,8.2,1509,60,-1.0471975511965976,L,R,0,120
Right,11_10_2016 level15_700_Robin 8_32 RCool01,92,0,1266.139,0,7,-60,700,1161,0.0,7,1267.454,1,736614.370573,Aud,2016-10-11 08:32:00,37.0,7.4,1509,-60,-1.0471975511965976,L,L,1,0
Right,6_10_2016 level15_700_Robin 14_52 RCool04,28,0,1438.797,0,7,-60,700,1081,0.0,6,1440.357,0,736609.636359,Aud,2016-10-06 14:52:00,37.0,10.7,1509,-30,-1.0471975511965976,L,L,1,30
Right,11_10_2016 level15_700_Robin 8_32 RCool01,92,0,1266.139,0,7,-60,700,1161,0.0,7,1267.454,1,736614.370573,Aud,2016-10-11 08:32:00,37.0,7.4,1509,-60,-1.0471975511965976,L,L,1,0
Right,6_10_2016 level15_700_Robin 14_52 RCool04,28,0,1438.797,0,7,-60,700,1081,0.0,6,1440.357,0,736609.636359,Aud,2016-10-06 14:52:00,37.0,10.7,1509,-30,-1.0471975511965976,L,L,1,30
Right,5_10_2016 level15_700_Robin 10_17 RCool_0,128,0,1915.509,0,7,-60,700,1061,4.5,3,1924.742,0,736608.451324,Aud,2016-10-05 10:17:00,37.0,7.3,1509,60,-1.0471975511965976,L,R,0,120
Right,5_10_2016 level15_700_Robin 10_17 RCool_0,2,0,243.196,0,7,-60,700,1181,4.5,2,255.18,0,736608.432001,Aud,2016-10-05 10:17:00,37.0,11.0,1509,90,-1.0471975511965976,L,R,0,150
Right,5_10_2016 level15_700_Robin 10_17 RCool_0,2,0,243.196,0,7,-60,700,1181,4.5,2,255.18,0,736608.432001,Aud,2016-10-05 10:17:00,37.0,11.0,1509,90,-1.0471975511965976,L,R,0,150
Right,11_10_2016 level15_700_Robin 8_32 RCool01,103,0,1387.65,0,7,-60,700,1061,4.5,6,1389.522,0,736614.371987,Aud,2016-10-11 08:32:00,37.0,7.3,1509,-30,-1.0471975511965976,L,L,1,30
Right,10_10_2016 level15_700_Robin 16_5 RCool04,11,0,1064.168,0,7,-60,700,1001,4.5,7,1066.441,1,736613.683128,Aud,2016-10-10 16:05:00,37.0,10.0,1509,-60,-1.0471975511965976,L,L,1,0
Right,4_10_2016 level15_700_Robin 9_25 RCool_10,24,0,571.607,0,7,-60,700,1061,4.5,6,573.541,0,736607.399406,Aud,2016-10-04 09:25:00,37.0,9.4,1509,-30,-1.0471975511965976,L,L,1,30
Right,5_10_2016 level15_700_Robin 10_17 RCool_0,128,0,1915.509,0,7,-60,700,1061,4.5,3,1924.742,0,736608.451324,Aud,2016-10-05 10:17:00,37.0,7.3,1509,60,-1.0471975511965976,L,R,0,120
Right,3_10_2016 level15_700_Robin 13_48 RCool_30,53,0,1995.622,1,7,-60,700,1001,4.5,6,2001.389,0,736606.5987,Aud,2016-10-03 13:48:00,,,1509,-30,-1.0471975511965976,L,L,1,30
Right,5_10_2016 level15_700_Robin 10_17 RCool_0,33,0,649.355,0,7,-60,700,1181,9.0,4,651.961,0,736608.436593,Aud,2016-10-05 10:17:00,37.0,7.5,1509,30,-1.0471975511965976,L,R,0,90
Right,11_10_2016 level15_700_Robin 8_32 RCool01,45,0,736.448,1,7,-60,700,1101,9.0,3,741.454,0,736614.364485,Aud,2016-10-11 08:32:00,37.0,7.7,1509,60,-1.0471975511965976,L,R,0,120
Right,11_10_2016 level15_700_Robin 8_32 RCool01,78,0,1104.487,0,7,-60,700,1081,9.0,4,1109.137,0,736614.368741,Aud,2016-10-11 08:32:00,37.0,7.4,1509,30,-1.0471975511965976,L,R,0,90
Right,11_10_2016 level15_700_Robin 8_32 RCool01,25,0,483.678,0,7,-60,700,1021,9.0,7,486.774,1,736614.361538,Aud,2016-10-11 08:32:00,37.0,8.3,1509,-60,-1.0471975511965976,L,L,1,0
Right,10_10_2016 level15_700_Robin 16_5 RCool04,43,0,1459.478,0,7,-60,700,1081,9.0,6,1461.519,0,736613.6877,Aud,2016-10-10 16:05:00,37.0,8.5,1509,-30,-1.0471975511965976,L,L,1,30
Right,4_10_2016 level15_700_Robin 9_25 RCool_10,53,0,924.511,0,7,-60,700,1181,9.0,6,926.29,0,736607.403488,Aud,2016-10-04 09:25:00,37.0,9.4,1509,-30,-1.0471975511965976,L,L,1,30
Right,10_10_2016 level15_700_Robin 16_5 RCool04,95,0,2105.389,0,7,-60,700,1101,9.0,7,2107.663,1,736613.695179,Aud,2016-10-10 16:05:00,37.0,8.2,1509,-60,-1.0471975511965976,L,L,1,0
Right,11_10_2016 level15_700_Robin 8_32 RCool01,78,0,1104.487,0,7,-60,700,1081,9.0,4,1109.137,0,736614.368741,Aud,2016-10-11 08:32:00,37.0,7.4,1509,30,-1.0471975511965976,L,R,0,90
Right,11_10_2016 level15_700_Robin 8_32 RCool01,55,0,848.845,0,6,-30,700,1041,0.0,4,851.492,0,736614.365759,Aud,2016-10-11 08:32:00,37.0,7.7,1509,30,-0.5235987755982988,L,R,0,60
Right,11_10_2016 level15_700_Robin 8_32 RCool01,36,0,642.579,0,6,-30,700,1181,0.0,6,644.093,1,736614.363358,Aud,2016-10-11 08:32:00,37.0,8.3,1509,-30,-0.5235987755982988,L,L,1,0
Right,6_10_2016 level15_700_Robin 14_52 RCool04,15,0,1296.091,0,6,-30,700,1061,0.0,6,1298.7,1,736609.634719,Aud,2016-10-06 14:52:00,37.0,10.7,1509,-30,-0.5235987755982988,L,L,1,0
Right,5_10_2016 level15_700_Robin 10_17 RCool_0,101,0,1494.843,0,6,-30,700,1121,0.0,4,1499.621,0,736608.446404,Aud,2016-10-05 10:17:00,37.0,7.4,1509,30,-0.5235987755982988,L,R,0,60
Right,5_10_2016 level15_700_Robin 10_17 RCool_0,35,0,663.953,0,6,-30,700,1201,0.0,4,666.124,0,736608.436757,Aud,2016-10-05 10:17:00,37.0,7.5,1509,30,-0.5235987755982988,L,R,0,60
Right,6_10_2016 level15_700_Robin 14_52 RCool04,63,0,1844.17,1,6,-30,700,1081,0.0,3,1850.628,0,736609.641107,Aud,2016-10-06 14:52:00,37.0,8.8,1509,60,-0.5235987755982988,L,R,0,90
Right,5_10_2016 level15_700_Robin 10_17 RCool_0,101,0,1494.843,0,6,-30,700,1121,0.0,4,1499.621,0,736608.446404,Aud,2016-10-05 10:17:00,37.0,7.4,1509,30,-0.5235987755982988,L,R,0,60
Right,11_10_2016 level15_700_Robin 8_32 RCool01,55,0,848.845,0,6,-30,700,1041,0.0,4,851.492,0,736614.365759,Aud,2016-10-11 08:32:00,37.0,7.7,1509,30,-0.5235987755982988,L,R,0,60
Right,5_10_2016 level15_700_Robin 10_17 RCool_0,83,0,1289.55,0,6,-30,700,1001,4.5,2,1299.783,0,736608.444091,Aud,2016-10-05 10:17:00,37.0,7.4,1509,90,-0.5235987755982988,L,R,0,120
Right,11_10_2016 level15_700_Robin 8_32 RCool01,28,0,534.995,0,6,-30,700,1161,4.5,8,536.783,0,736614.362116,Aud,2016-10-11 08:32:00,37.0,8.3,1509,-90,-0.5235987755982988,L,L,1,60
Right,10_10_2016 level15_700_Robin 16_5 RCool04,113,0,2330.305,0,6,-30,700,1101,4.5,6,2332.045,1,736613.697775,Aud,2016-10-10 16:05:00,37.0,8.2,1509,-30,-0.5235987755982988,L,L,1,0
Right,5_10_2016 level15_700_Robin 10_17 RCool_0,4,0,277.195,0,6,-30,700,1121,4.5,3,287.304,0,736608.432373,Aud,2016-10-05 10:17:00,37.0,11.0,1509,60,-0.5235987755982988,L,R,0,90
Right,5_10_2016 level15_700_Robin 10_17 RCool_0,56,0,945.476,0,6,-30,700,1181,4.5,6,946.882,1,736608.440007,Aud,2016-10-05 10:17:00,37.0,7.8,1509,-30,-0.5235987755982988,L,L,1,0
Right,11_10_2016 level15_700_Robin 8_32 RCool01,66,0,979.69,1,6,-30,700,1161,4.5,7,985.254,0,736614.367307,Aud,2016-10-11 08:32:00,37.0,7.7,1509,-60,-0.5235987755982988,L,L,1,30
Right,5_10_2016 level15_700_Robin 10_17 RCool_0,104,0,1527.698,0,6,-30,700,1081,4.5,8,1529.917,0,736608.446754,Aud,2016-10-05 10:17:00,37.0,7.4,1509,-90,-0.5235987755982988,L,L,1,60
Right,6_10_2016 level15_700_Robin 14_52 RCool04,56,0,1781.412,0,6,-30,700,1141,4.5,4,1783.232,0,736609.640327,Aud,2016-10-06 14:52:00,37.0,8.8,1509,30,-0.5235987755982988,L,R,0,60
Right,3_10_2016 level15_700_Robin 13_48 RCool_30,48,0,1740.963,0,6,-30,700,1161,9.0,7,1742.651,0,736606.595704,Aud,2016-10-03 13:48:00,,,1509,-60,-0.5235987755982988,L,L,1,30
Right,4_10_2016 level15_700_Robin 15_3 RCool30,47,0,1179.34,0,6,-30,700,1181,9.0,6,1181.424,1,736607.641279,Aud,2016-10-04 15:03:00,,,1509,-30,-0.5235987755982988,L,L,1,0
Right,3_10_2016 level15_700_Robin 13_48 RCool_30,48,0,1740.963,0,6,-30,700,1161,9.0,7,1742.651,0,736606.595704,Aud,2016-10-03 13:48:00,,,1509,-60,-0.5235987755982988,L,L,1,30
Right,4_10_2016 level15_700_Robin 15_3 RCool30,47,0,1179.34,0,6,-30,700,1181,9.0,6,1181.424,1,736607.641279,Aud,2016-10-04 15:03:00,,,1509,-30,-0.5235987755982988,L,L,1,0
Right,10_10_2016 level15_700_Robin 16_5 RCool04,38,0,1398.49,0,6,-30,700,1001,9.0,6,1401.425,1,736613.687005,Aud,2016-10-10 16:05:00,37.0,8.5,1509,-30,-0.5235987755982988,L,L,1,0
Right,4_10_2016 level15_700_Robin 9_25 RCool_10,92,0,1416.481,0,6,-30,700,1121,9.0,7,1419.048,0,736607.409192,Aud,2016-10-04 09:25:00,,,1509,-60,-0.5235987755982988,L,L,1,30
Right,11_10_2016 level15_700_Robin 8_32 RCool01,87,0,1219.23,0,6,-30,700,1201,9.0,3,1220.476,0,736614.370029,Aud,2016-10-11 08:32:00,37.0,7.4,1509,60,-0.5235987755982988,L,R,0,90
Right,3_10_2016 level15_700_Robin 13_48 RCool_30,48,0,1740.963,0,6,-30,700,1161,9.0,7,1742.651,0,736606.595704,Aud,2016-10-03 13:48:00,,,1509,-60,-0.5235987755982988,L,L,1,30
Right,5_10_2016 level15_700_Robin 10_17 RCool_0,17,0,487.866,0,4,30,700,1001,0.0,2,489.553,0,736608.434713,Aud,2016-10-05 10:17:00,37.0,9.0,1509,90,0.5235987755982988,R,R,1,60
Right,10_10_2016 level15_700_Robin 16_5 RCool04,48,0,1515.233,0,4,30,700,1141,0.0,3,1517.005,0,736613.688342,Aud,2016-10-10 16:05:00,37.0,8.5,1509,60,0.5235987755982988,R,R,1,30
Right,11_10_2016 level15_700_Robin 8_32 RCool01,99,0,1335.022,0,4,30,700,1201,0.0,3,1336.261,0,736614.37137,Aud,2016-10-11 08:32:00,37.0,7.4,1509,60,0.5235987755982988,R,R,1,30
Right,11_10_2016 level15_700_Robin 8_32 RCool01,53,0,825.347,0,4,30,700,1101,0.0,3,826.447,0,736614.365469,Aud,2016-10-11 08:32:00,37.0,7.7,1509,60,0.5235987755982988,R,R,1,30
Right,5_10_2016 level15_700_Robin 10_17 RCool_0,111,0,1598.886,0,4,30,700,1181,0.0,4,1600.045,1,736608.447566,Aud,2016-10-05 10:17:00,37.0,7.4,1509,30,0.5235987755982988,R,R,1,0
Right,5_10_2016 level15_700_Robin 10_17 RCool_0,77,0,1236.452,0,4,30,700,1201,0.0,3,1238.187,0,736608.443378,Aud,2016-10-05 10:17:00,37.0,7.4,1509,60,0.5235987755982988,R,R,1,30
Right,10_10_2016 level15_700_Robin 16_5 RCool04,48,0,1515.233,0,4,30,700,1141,0.0,3,1517.005,0,736613.688342,Aud,2016-10-10 16:05:00,37.0,8.5,1509,60,0.5235987755982988,R,R,1,30
Right,4_10_2016 level15_700_Robin 9_25 RCool_10,27,0,612.713,1,4,30,700,1001,0.0,2,622.783,0,736607.399975,Aud,2016-10-04 09:25:00,37.0,9.4,1509,90,0.5235987755982988,R,R,1,60
Right,11_10_2016 level15_700_Robin 8_32 RCool01,110,0,1462.98,0,4,30,700,1061,4.5,4,1464.715,1,736614.372856,Aud,2016-10-11 08:32:00,37.0,7.3,1509,30,0.5235987755982988,R,R,1,0
Right,4_10_2016 level15_700_Robin 9_25 RCool_10,38,0,745.765,0,4,30,700,1161,4.5,3,747.318,0,736607.401417,Aud,2016-10-04 09:25:00,37.0,9.4,1509,60,0.5235987755982988,R,R,1,30
Right,6_10_2016 level15_700_Robin 14_52 RCool04,44,0,1637.078,0,4,30,700,1161,4.5,4,1638.22,1,736609.638649,Aud,2016-10-06 14:52:00,37.0,8.8,1509,30,0.5235987755982988,R,R,1,0
Right,5_10_2016 level15_700_Robin 10_17 RCool_0,27,0,584.198,0,4,30,700,1121,4.5,2,585.924,0,736608.435828,Aud,2016-10-05 10:17:00,37.0,8.0,1509,90,0.5235987755982988,R,R,1,60
Right,4_10_2016 level15_700_Robin 9_25 RCool_10,61,0,1004.131,0,4,30,700,1161,4.5,3,1006.51,0,736607.404417,Aud,2016-10-04 09:25:00,37.0,9.4,1509,60,0.5235987755982988,R,R,1,30
Right,4_10_2016 level15_700_Robin 9_25 RCool_10,38,0,745.765,0,4,30,700,1161,4.5,3,747.318,0,736607.401417,Aud,2016-10-04 09:25:00,37.0,9.4,1509,60,0.5235987755982988,R,R,1,30
Right,4_10_2016 level15_700_Robin 9_25 RCool_10,79,0,1247.924,0,4,30,700,1161,4.5,2,1250.033,0,736607.407236,Aud,2016-10-04 09:25:00,37.0,9.4,1509,90,0.5235987755982988,R,R,1,60
Right,10_10_2016 level15_700_Robin 16_5 RCool04,90,0,2066.418,0,4,30,700,1161,4.5,2,2067.688,0,736613.694716,Aud,2016-10-10 16:05:00,37.0,8.2,1509,90,0.5235987755982988,R,R,1,60
Right,5_10_2016 level15_700_Robin 10_17 RCool_0,98,0,1475.033,0,4,30,700,1141,9.0,3,1476.217,0,736608.446133,Aud,2016-10-05 10:17:00,37.0,7.4,1509,60,0.5235987755982988,R,R,1,30
Right,5_10_2016 level15_700_Robin 10_17 RCool_0,98,0,1475.033,0,4,30,700,1141,9.0,3,1476.217,0,736608.446133,Aud,2016-10-05 10:17:00,37.0,7.4,1509,60,0.5235987755982988,R,R,1,30
Right,11_10_2016 level15_700_Robin 8_32 RCool01,15,0,365.981,0,4,30,700,1061,9.0,3,367.344,0,736614.360156,Aud,2016-10-11 08:32:00,37.0,8.3,1509,60,0.5235987755982988,R,R,1,30
Right,3_10_2016 level15_700_Robin 13_48 RCool_30,42,0,1645.258,0,4,30,700,1101,9.0,2,1649.206,0,736606.594623,Aud,2016-10-03 13:48:00,,,1509,90,0.5235987755982988,R,R,1,60
Right,6_10_2016 level15_700_Robin 14_52 RCool04,7,0,1204.632,0,4,30,700,1101,9.0,3,1206.209,0,736609.633649,Aud,2016-10-06 14:52:00,37.0,10.9,1509,60,0.5235987755982988,R,R,1,30
Right,5_10_2016 level15_700_Robin 10_17 RCool_0,10,0,398.868,0,4,30,700,1081,9.0,4,400.658,1,736608.433685,Aud,2016-10-05 10:17:00,37.0,9.0,1509,30,0.5235987755982988,R,R,1,0
Right,11_10_2016 level15_700_Robin 8_32 RCool01,15,0,365.981,0,4,30,700,1061,9.0,3,367.344,0,736614.360156,Aud,2016-10-11 08:32:00,37.0,8.3,1509,60,0.5235987755982988,R,R,1,30
Right,10_10_2016 level15_700_Robin 16_5 RCool04,5,0,953.447,0,4,30,700,1101,9.0,8,957.7,0,736613.681869,Aud,2016-10-10 16:05:00,37.0,10.0,1509,-90,0.5235987755982988,R,L,0,120
Right,5_10_2016 level15_700_Robin 10_17 RCool_0,70,0,1140.624,0,3,60,700,1201,0.0,3,1143.666,1,736608.442284,Aud,2016-10-05 10:17:00,37.0,7.4,1509,60,1.0471975511965976,R,R,1,0
Right,10_10_2016 level15_700_Robin 16_5 RCool04,74,0,1911.796,0,3,60,700,1041,0.0,2,1913.272,0,736613.692929,Aud,2016-10-10 16:05:00,37.0,8.2,1509,90,1.0471975511965976,R,R,1,30
Right,7_10_2016 level15_700_Robin 8_44 RCool01,1,0,564.285,1,3,60,700,1061,0.0,4,577.432,0,736610.371225,Aud,2016-10-07 08:44:00,37.0,11.0,1509,30,1.0471975511965976,R,R,1,30
Right,7_10_2016 level15_700_Robin 8_44 RCool01,1,0,564.285,1,3,60,700,1061,0.0,4,577.432,0,736610.371225,Aud,2016-10-07 08:44:00,37.0,11.0,1509,30,1.0471975511965976,R,R,1,30
Right,10_10_2016 level15_700_Robin 16_5 RCool04,78,0,1937.196,0,3,60,700,1021,0.0,2,1939.339,0,736613.69323,Aud,2016-10-10 16:05:00,37.0,8.2,1509,90,1.0471975511965976,R,R,1,30
Right,4_10_2016 level15_700_Robin 9_25 RCool_10,14,0,420.983,0,3,60,700,1161,0.0,3,422.351,1,736607.397656,Aud,2016-10-04 09:25:00,37.0,9.4,1509,60,1.0471975511965976,R,R,1,0
Right,3_10_2016 level15_700_Robin 13_48 RCool_30,31,0,1345.213,0,3,60,700,1121,0.0,2,1348.957,0,736606.591148,Aud,2016-10-03 13:48:00,,,1509,90,1.0471975511965976,R,R,1,30
Right,5_10_2016 level15_700_Robin 10_17 RCool_0,70,0,1140.624,0,3,60,700,1201,0.0,3,1143.666,1,736608.442284,Aud,2016-10-05 10:17:00,37.0,7.4,1509,60,1.0471975511965976,R,R,1,0
Right,11_10_2016 level15_700_Robin 8_32 RCool01,108,0,1447.629,0,3,60,700,1121,4.5,2,1449.063,0,736614.372675,Aud,2016-10-11 08:32:00,37.0,7.3,1509,90,1.0471975511965976,R,R,1,30
Right,6_10_2016 level15_700_Robin 14_52 RCool04,62,0,1832.844,0,3,60,700,1041,4.5,3,1834.161,1,736609.640916,Aud,2016-10-06 14:52:00,37.0,8.8,1509,60,1.0471975511965976,R,R,1,0
Right,10_10_2016 level15_700_Robin 16_5 RCool04,96,0,2129.212,0,3,60,700,1141,4.5,2,2131.224,0,736613.695451,Aud,2016-10-10 16:05:00,37.0,8.2,1509,90,1.0471975511965976,R,R,1,30
Right,5_10_2016 level15_700_Robin 10_17 RCool_0,42,0,751.361,1,3,60,700,1041,4.5,3,758.926,1,736608.437831,Aud,2016-10-05 10:17:00,37.0,7.5,1509,60,1.0471975511965976,R,R,1,0
Right,3_10_2016 level15_700_Robin 13_48 RCool_30,33,0,1400.392,0,3,60,700,1001,4.5,6,1402.262,0,736606.591765,Aud,2016-10-03 13:48:00,,,1509,-30,1.0471975511965976,R,L,0,90
Right,5_10_2016 level15_700_Robin 10_17 RCool_0,97,0,1462.59,0,3,60,700,1021,4.5,3,1464.042,1,736608.445992,Aud,2016-10-05 10:17:00,37.0,7.4,1509,60,1.0471975511965976,R,R,1,0
Right,10_10_2016 level15_700_Robin 16_5 RCool04,96,0,2129.212,0,3,60,700,1141,4.5,2,2131.224,0,736613.695451,Aud,2016-10-10 16:05:00,37.0,8.2,1509,90,1.0471975511965976,R,R,1,30
Right,4_10_2016 level15_700_Robin 9_25 RCool_10,50,0,883.339,1,3,60,700,1021,4.5,2,889.52,0,736607.403063,Aud,2016-10-04 09:25:00,37.0,9.4,1509,90,1.0471975511965976,R,R,1,30
Right,7_10_2016 level15_700_Robin 8_44 RCool01,39,0,1335.577,0,3,60,700,1121,9.0,2,1344.984,0,736610.380109,Aud,2016-10-07 08:44:00,37.0,9.9,1509,90,1.0471975511965976,R,R,1,30
Right,11_10_2016 level15_700_Robin 8_32 RCool01,114,0,1518.845,0,3,60,700,1081,9.0,3,1520.273,1,736614.373499,Aud,2016-10-11 08:32:00,37.0,7.3,1509,60,1.0471975511965976,R,R,1,0
Right,6_10_2016 level15_700_Robin 14_52 RCool04,30,0,1474.25,0,3,60,700,1021,9.0,2,1475.989,0,736609.636771,Aud,2016-10-06 14:52:00,37.0,8.8,1509,90,1.0471975511965976,R,R,1,30
Right,11_10_2016 level15_700_Robin 8_32 RCool01,71,0,1033.603,0,3,60,700,1141,9.0,3,1037.274,1,736614.367909,Aud,2016-10-11 08:32:00,37.0,7.7,1509,60,1.0471975511965976,R,R,1,0
Right,11_10_2016 level15_700_Robin 8_32 RCool01,114,0,1518.845,0,3,60,700,1081,9.0,3,1520.273,1,736614.373499,Aud,2016-10-11 08:32:00,37.0,7.3,1509,60,1.0471975511965976,R,R,1,0
Right,11_10_2016 level15_700_Robin 8_32 RCool01,8,0,268.872,0,3,60,700,1101,9.0,4,270.39,0,736614.359033,Aud,2016-10-11 08:32:00,37.0,8.0,1509,30,1.0471975511965976,R,R,1,30
Right,10_10_2016 level15_700_Robin 16_5 RCool04,8,0,1022.583,0,3,60,700,1161,9.0,4,1025.443,0,736613.682654,Aud,2016-10-10 16:05:00,37.0,10.0,1509,30,1.0471975511965976,R,R,1,30
Right,11_10_2016 level15_700_Robin 8_32 RCool01,114,0,1518.845,0,3,60,700,1081,9.0,3,1520.273,1,736614.373499,Aud,2016-10-11 08:32:00,37.0,7.3,1509,60,1.0471975511965976,R,R,1,0
Right,11_10_2016 level15_700_Robin 8_32 RCool01,31,0,586.048,0,2,90,700,1001,0.0,2,587.73,1,736614.362707,Aud,2016-10-11 08:32:00,37.0,8.3,1509,90,1.5707963267948966,R,R,1,0
Right,11_10_2016 level15_700_Robin 8_32 RCool01,31,0,586.048,0,2,90,700,1001,0.0,2,587.73,1,736614.362707,Aud,2016-10-11 08:32:00,37.0,8.3,1509,90,1.5707963267948966,R,R,1,0
Right,5_10_2016 level15_700_Robin 10_17 RCool_0,51,0,870.996,0,2,90,700,1161,0.0,2,872.595,1,736608.439147,Aud,2016-10-05 10:17:00,37.0,7.5,1509,90,1.5707963267948966,R,R,1,0
Right,11_10_2016 level15_700_Robin 8_32 RCool01,19,0,408.819,0,2,90,700,1081,0.0,2,410.366,1,736614.360653,Aud,2016-10-11 08:32:00,37.0,8.3,1509,90,1.5707963267948966,R,R,1,0
Right,10_10_2016 level15_700_Robin 16_5 RCool04,102,0,2198.019,0,2,90,700,1041,0.0,2,2199.652,1,736613.696244,Aud,2016-10-10 16:05:00,37.0,8.2,1509,90,1.5707963267948966,R,R,1,0
Right,5_10_2016 level15_700_Robin 10_17 RCool_0,51,0,870.996,0,2,90,700,1161,0.0,2,872.595,1,736608.439147,Aud,2016-10-05 10:17:00,37.0,7.5,1509,90,1.5707963267948966,R,R,1,0
Right,3_10_2016 level15_700_Robin 13_48 RCool_30,46,0,1724.427,0,2,90,700,1021,0.0,3,1725.964,0,736606.595511,Aud,2016-10-03 13:48:00,,,1509,60,1.5707963267948966,R,R,1,30
Right,5_10_2016 level15_700_Robin 10_17 RCool_0,51,0,870.996,0,2,90,700,1161,0.0,2,872.595,1,736608.439147,Aud,2016-10-05 10:17:00,37.0,7.5,1509,90,1.5707963267948966,R,R,1,0
Right,4_10_2016 level15_700_Robin 15_3 RCool30,58,0,1286.421,0,2,90,700,1121,4.5,2,1288.019,1,736607.642512,Aud,2016-10-04 15:03:00,,,1509,90,1.5707963267948966,R,R,1,0
Right,4_10_2016 level15_700_Robin 15_3 RCool30,58,0,1286.421,0,2,90,700,1121,4.5,2,1288.019,1,736607.642512,Aud,2016-10-04 15:03:00,,,1509,90,1.5707963267948966,R,R,1,0
Right,6_10_2016 level15_700_Robin 14_52 RCool04,9,0,1228.065,0,2,90,700,1041,4.5,2,1229.895,1,736609.633923,Aud,2016-10-06 14:52:00,37.0,10.7,1509,90,1.5707963267948966,R,R,1,0
Right,6_10_2016 level15_700_Robin 14_52 RCool04,41,0,1593.477,0,2,90,700,1061,4.5,2,1594.757,1,736609.638146,Aud,2016-10-06 14:52:00,37.0,8.8,1509,90,1.5707963267948966,R,R,1,0
Right,11_10_2016 level15_700_Robin 8_32 RCool01,102,0,1370.152,1,2,90,700,1001,4.5,2,1375.326,1,736614.371822,Aud,2016-10-11 08:32:00,37.0,7.3,1509,90,1.5707963267948966,R,R,1,0
Right,5_10_2016 level15_700_Robin 10_17 RCool_0,112,0,1612.174,0,2,90,700,1061,4.5,3,1613.427,0,736608.447721,Aud,2016-10-05 10:17:00,37.0,7.4,1509,60,1.5707963267948966,R,R,1,30
Right,10_10_2016 level15_700_Robin 16_5 RCool04,39,0,1414.455,0,2,90,700,1021,4.5,3,1415.805,0,736613.687171,Aud,2016-10-10 16:05:00,37.0,8.5,1509,60,1.5707963267948966,R,R,1,30
Right,5_10_2016 level15_700_Robin 10_17 RCool_0,16,0,473.633,0,2,90,700,1061,4.5,2,474.833,1,736608.434543,Aud,2016-10-05 10:17:00,37.0,9.0,1509,90,1.5707963267948966,R,R,1,0
Right,5_10_2016 level15_700_Robin 10_17 RCool_0,68,0,1116.357,0,2,90,700,1041,9.0,3,1118.336,0,736608.441991,Aud,2016-10-05 10:17:00,37.0,7.8,1509,60,1.5707963267948966,R,R,1,30
Right,4_10_2016 level15_700_Robin 15_3 RCool30,45,0,1158.274,0,2,90,700,1061,9.0,3,1160.172,0,736607.641033,Aud,2016-10-04 15:03:00,,,1509,60,1.5707963267948966,R,R,1,30
Right,7_10_2016 level15_700_Robin 8_44 RCool01,30,0,1013.22,0,2,90,700,1061,9.0,3,1014.423,0,736610.376283,Aud,2016-10-07 08:44:00,37.0,9.9,1509,60,1.5707963267948966,R,R,1,30
Right,11_10_2016 level15_700_Robin 8_32 RCool01,118,0,1554.459,0,2,90,700,1001,9.0,3,1555.943,0,736614.373913,Aud,2016-10-11 08:32:00,37.0,7.3,1509,60,1.5707963267948966,R,R,1,30
Right,4_10_2016 level15_700_Robin 9_25 RCool_10,48,0,855.696,0,2,90,700,1041,9.0,3,857.562,0,736607.402693,Aud,2016-10-04 09:25:00,37.0,9.4,1509,60,1.5707963267948966,R,R,1,30
Right,5_10_2016 level15_700_Robin 10_17 RCool_0,13,0,440.417,0,2,90,700,1021,9.0,3,441.92,0,736608.434162,Aud,2016-10-05 10:17:00,37.0,9.0,1509,60,1.5707963267948966,R,R,1,30
Right,6_10_2016 level15_700_Robin 14_52 RCool04,39,0,1577.033,0,2,90,700,1041,9.0,3,1578.481,0,736609.637958,Aud,2016-10-06 14:52:00,37.0,8.8,1509,60,1.5707963267948966,R,R,1,30
Right,4_10_2016 level15_700_Robin 15_3 RCool30,67,0,1381.492,0,2,90,700,1041,9.0,2,1387.265,1,736607.643662,Aud,2016-10-04 15:03:00,,,1509,90,1.5707963267948966,R,R,1,0
