Trial,CorrectionTrial,StartTime,CenterReward,F1,F2,F3,F4,HoldTime,Atten,Pitch,Side,Response,RespTime,Correct,SpatialMask,originalFile,LeftTemperature,RightTemperature
1,0,5.4249,0,460,1105,2857,4205,651,10.0,200,0,0,9.6501,1,2,01_04_2015 level23_spatial_F+V 14_59 Block9-8.txt,37,37
2,0,15.2161,0,460,1105,2857,4205,701,10.0,200,0,1,16.3344,0,0,01_04_2015 level23_spatial_F+V 14_59 Block9-8.txt,37,37
3,1,22.9088,0,460,1105,2857,4205,701,10.0,200,0,1,23.8198,0,0,01_04_2015 level23_spatial_F+V 14_59 Block9-8.txt,37,37
4,1,43.3916,0,460,1105,2857,4205,701,10.0,200,0,1,43.9734,0,0,01_04_2015 level23_spatial_F+V 14_59 Block9-8.txt,37,37
5,1,65.141,0,460,1105,2857,4205,701,10.0,200,0,0,65.7737,1,0,01_04_2015 level23_spatial_F+V 14_59 Block9-8.txt,37,37
6,0,71.1764,0,460,1105,2857,4205,901,10.0,200,0,0,71.8206,1,5,01_04_2015 level23_spatial_F+V 14_59 Block9-8.txt,37,37
7,0,77.2989,1,730,2058,2857,4205,601,10.0,200,1,1,79.0783,1,5,01_04_2015 level23_spatial_F+V 14_59 Block9-8.txt,37,37
8,0,89.0657,0,730,2058,2857,4205,851,10.0,200,1,0,90.0143,0,5,01_04_2015 level23_spatial_F+V 14_59 Block9-8.txt,37,37
9,1,99.1844,0,730,2058,2857,4205,851,10.0,200,1,0,99.6454,0,5,01_04_2015 level23_spatial_F+V 14_59 Block9-8.txt,37,37
10,1,109.0176,1,730,2058,2857,4205,851,10.0,200,1,1,110.0949,1,5,01_04_2015 level23_spatial_F+V 14_59 Block9-8.txt,37,37
11,0,124.005,0,730,2058,2857,4205,951,10.0,200,1,0,124.9325,0,2,01_04_2015 level23_spatial_F+V 14_59 Block9-8.txt,37,37
12,1,133.4249,0,730,2058,2857,4205,951,10.0,200,1,1,133.9649,1,2,01_04_2015 level23_spatial_F+V 14_59 Block9-8.txt,37,37
13,0,147.9873,0,460,1105,2857,4205,1001,10.0,200,0,0,149.7252,1,3,01_04_2015 level23_spatial_F+V 14_59 Block9-8.txt,37,37
14,0,155.3924,0,730,2058,2857,4205,501,10.0,200,1,0,156.0199,0,3,01_04_2015 level23_spatial_F+V 14_59 Block9-8.txt,37,37
15,1,162.9364,0,730,2058,2857,4205,501,10.0,200,1,1,163.4085,1,3,01_04_2015 level23_spatial_F+V 14_59 Block9-8.txt,37,37
16,0,167.1079,0,460,1105,2857,4205,551,10.0,200,0,0,167.9658,1,1,01_04_2015 level23_spatial_F+V 14_59 Block9-8.txt,37,37
17,0,173.0851,0,730,2058,2857,4205,801,10.0,200,1,0,173.4595,0,3,01_04_2015 level23_spatial_F+V 14_59 Block9-8.txt,37,37
18,1,181.417,0,730,2058,2857,4205,801,10.0,200,1,0,182.1344,0,3,01_04_2015 level23_spatial_F+V 14_59 Block9-8.txt,37,37
19,1,188.1338,0,730,2058,2857,4205,801,10.0,200,1,1,188.7152,1,3,01_04_2015 level23_spatial_F+V 14_59 Block9-8.txt,37,37
20,0,204.5157,0,460,1105,2857,4205,651,10.0,200,0,0,204.9757,1,2,01_04_2015 level23_spatial_F+V 14_59 Block9-8.txt,37,37
21,0,210.3109,0,730,2058,2857,4205,801,10.0,200,1,1,211.0988,1,4,01_04_2015 level23_spatial_F+V 14_59 Block9-8.txt,37,37
22,0,225.4608,0,730,2058,2857,4205,551,10.0,200,1,0,226.2999,0,0,01_04_2015 level23_spatial_F+V 14_59 Block9-8.txt,37,37
23,1,232.2238,0,730,2058,2857,4205,551,10.0,200,1,1,232.8981,1,0,01_04_2015 level23_spatial_F+V 14_59 Block9-8.txt,37,37
24,0,240.9485,0,730,2058,2857,4205,951,10.0,200,1,1,241.7505,1,4,01_04_2015 level23_spatial_F+V 14_59 Block9-8.txt,37,37
25,0,253.6862,1,730,2058,2857,4205,701,10.0,200,1,1,254.9576,1,5,01_04_2015 level23_spatial_F+V 14_59 Block9-8.txt,37,37
26,0,268.5648,1,460,1105,2857,4205,601,10.0,200,0,0,269.1717,1,4,01_04_2015 level23_spatial_F+V 14_59 Block9-8.txt,37,37
27,0,277.8369,1,730,2058,2857,4205,901,10.0,200,1,0,279.5832,0,0,01_04_2015 level23_spatial_F+V 14_59 Block9-8.txt,37,37
28,1,285.795,0,730,2058,2857,4205,901,10.0,200,1,1,286.5331,1,0,01_04_2015 level23_spatial_F+V 14_59 Block9-8.txt,37,37
29,0,296.6257,0,730,2058,2857,4205,1001,10.0,200,1,0,297.2343,0,1,01_04_2015 level23_spatial_F+V 14_59 Block9-8.txt,37,37
30,1,303.9258,0,730,2058,2857,4205,1001,10.0,200,1,0,304.3789,0,1,01_04_2015 level23_spatial_F+V 14_59 Block9-8.txt,37,37
31,1,312.6953,1,730,2058,2857,4205,1001,10.0,200,1,1,313.4695,1,1,01_04_2015 level23_spatial_F+V 14_59 Block9-8.txt,37,37
32,0,327.5523,0,460,1105,2857,4205,501,10.0,200,0,0,328.0324,1,5,01_04_2015 level23_spatial_F+V 14_59 Block9-8.txt,37,37
33,0,337.6059,0,730,2058,2857,4205,751,10.0,200,1,0,339.9839,0,1,01_04_2015 level23_spatial_F+V 14_59 Block9-8.txt,37,37
34,1,347.3534,1,730,2058,2857,4205,751,10.0,200,1,1,348.8263,1,1,01_04_2015 level23_spatial_F+V 14_59 Block9-8.txt,37,37
35,0,359.0532,0,460,1105,2857,4205,901,10.0,200,0,0,359.5671,1,1,01_04_2015 level23_spatial_F+V 14_59 Block9-8.txt,37,37
36,0,365.4799,0,460,1105,2857,4205,601,10.0,200,0,0,366.6869,1,1,01_04_2015 level23_spatial_F+V 14_59 Block9-8.txt,37,37
37,0,372.0292,0,460,1105,2857,4205,751,10.0,200,0,0,372.7425,1,3,01_04_2015 level23_spatial_F+V 14_59 Block9-8.txt,37,37
38,0,377.8456,0,730,2058,2857,4205,551,10.0,200,1,0,378.9781,0,1,01_04_2015 level23_spatial_F+V 14_59 Block9-8.txt,37,37
39,1,387.1608,1,730,2058,2857,4205,551,10.0,200,1,1,388.0634,1,1,01_04_2015 level23_spatial_F+V 14_59 Block9-8.txt,37,37
40,0,403.4603,0,730,2058,2857,4205,801,10.0,200,1,0,405.6574,0,4,01_04_2015 level23_spatial_F+V 14_59 Block9-8.txt,37,37
41,1,412.2862,0,730,2058,2857,4205,801,10.0,200,1,1,413.5838,1,4,01_04_2015 level23_spatial_F+V 14_59 Block9-8.txt,37,37
42,0,422.6531,0,730,2058,2857,4205,651,10.0,200,1,0,423.1844,0,2,01_04_2015 level23_spatial_F+V 14_59 Block9-8.txt,37,37
43,1,429.1346,1,730,2058,2857,4205,651,10.0,200,1,0,429.7696,0,2,01_04_2015 level23_spatial_F+V 14_59 Block9-8.txt,37,37
44,1,436.8772,0,730,2058,2857,4205,651,10.0,200,1,1,437.9621,1,2,01_04_2015 level23_spatial_F+V 14_59 Block9-8.txt,37,37
45,0,449.5324,0,730,2058,2857,4205,501,10.0,200,1,0,450.7483,0,3,01_04_2015 level23_spatial_F+V 14_59 Block9-8.txt,37,37
46,1,458.2742,0,730,2058,2857,4205,501,10.0,200,1,1,459.3375,1,3,01_04_2015 level23_spatial_F+V 14_59 Block9-8.txt,37,37
47,0,472.3156,0,730,2058,2857,4205,1001,10.0,200,1,1,474.4765,1,0,01_04_2015 level23_spatial_F+V 14_59 Block9-8.txt,37,37
48,0,486.0058,0,460,1105,2857,4205,701,10.0,200,0,0,486.412,1,0,01_04_2015 level23_spatial_F+V 14_59 Block9-8.txt,37,37
49,0,495.9841,0,460,1105,2857,4205,951,10.0,200,0,0,496.3731,1,4,01_04_2015 level23_spatial_F+V 14_59 Block9-8.txt,37,37
50,0,507.8397,0,730,2058,2857,4205,951,10.0,200,1,0,508.6971,0,2,01_04_2015 level23_spatial_F+V 14_59 Block9-8.txt,37,37
51,1,517.0691,0,730,2058,2857,4205,951,10.0,200,1,1,518.2246,1,2,01_04_2015 level23_spatial_F+V 14_59 Block9-8.txt,37,37
52,0,531.4007,0,460,1105,2857,4205,751,10.0,200,0,0,531.8755,1,4,01_04_2015 level23_spatial_F+V 14_59 Block9-8.txt,37,37
53,0,537.1861,0,460,1105,2857,4205,601,10.0,200,0,0,538.2505,1,3,01_04_2015 level23_spatial_F+V 14_59 Block9-8.txt,37,37
54,0,543.6114,0,460,1105,2857,4205,551,10.0,200,0,0,544.0671,1,5,01_04_2015 level23_spatial_F+V 14_59 Block9-8.txt,37,37
55,0,550.1572,0,460,1105,2857,4205,851,10.0,200,0,0,550.7882,1,2,01_04_2015 level23_spatial_F+V 14_59 Block9-8.txt,37,37
56,0,556.6806,0,460,1105,2857,4205,1001,10.0,200,0,0,557.3564,1,0,01_04_2015 level23_spatial_F+V 14_59 Block9-8.txt,37,37
57,0,563.4273,0,460,1105,2857,4205,901,10.0,200,0,0,563.938,1,3,01_04_2015 level23_spatial_F+V 14_59 Block9-8.txt,37,37
58,0,571.4658,0,730,2058,2857,4205,651,10.0,200,1,1,572.9176,1,4,01_04_2015 level23_spatial_F+V 14_59 Block9-8.txt,37,37
59,0,583.4824,1,730,2058,2857,4205,501,10.0,200,1,0,584.3375,0,0,01_04_2015 level23_spatial_F+V 14_59 Block9-8.txt,37,37
60,1,591.6182,1,730,2058,2857,4205,501,10.0,200,1,1,592.8065,1,0,01_04_2015 level23_spatial_F+V 14_59 Block9-8.txt,37,37
61,0,609.9026,0,460,1105,2857,4205,801,10.0,200,0,0,610.3333,1,1,01_04_2015 level23_spatial_F+V 14_59 Block9-8.txt,37,37
62,0,618.8332,0,460,1105,2857,4205,601,10.0,200,0,0,619.5388,1,2,01_04_2015 level23_spatial_F+V 14_59 Block9-8.txt,37,37
63,0,625.4297,0,730,2058,2857,4205,551,10.0,200,1,0,626.3433,0,5,01_04_2015 level23_spatial_F+V 14_59 Block9-8.txt,37,37
64,1,633.5966,0,730,2058,2857,4205,551,10.0,200,1,0,634.4998,0,5,01_04_2015 level23_spatial_F+V 14_59 Block9-8.txt,37,37
65,1,641.1142,0,730,2058,2857,4205,551,10.0,200,1,1,642.0988,1,5,01_04_2015 level23_spatial_F+V 14_59 Block9-8.txt,37,37
66,0,653.436,0,460,1105,2857,4205,751,10.0,200,0,0,653.8849,1,4,01_04_2015 level23_spatial_F+V 14_59 Block9-8.txt,37,37
67,0,662.921,0,460,1105,2857,4205,901,10.0,200,0,0,663.1468,1,1,01_04_2015 level23_spatial_F+V 14_59 Block9-8.txt,37,37
68,0,668.2957,1,730,2058,2857,4205,701,10.0,200,1,0,669.0389,0,2,01_04_2015 level23_spatial_F+V 14_59 Block9-8.txt,37,37
69,1,675.0853,0,730,2058,2857,4205,701,10.0,200,1,1,675.9567,1,2,01_04_2015 level23_spatial_F+V 14_59 Block9-8.txt,37,37
70,0,678.284,0,730,2058,2857,4205,1001,10.0,200,1,1,679.4096,1,0,01_04_2015 level23_spatial_F+V 14_59 Block9-8.txt,37,37
71,0,695.4989,0,730,2058,2857,4205,951,10.0,200,1,0,696.1465,0,4,01_04_2015 level23_spatial_F+V 14_59 Block9-8.txt,37,37
72,1,705.84,0,730,2058,2857,4205,951,10.0,200,1,1,706.6889,1,4,01_04_2015 level23_spatial_F+V 14_59 Block9-8.txt,37,37
73,0,717.561,0,460,1105,2857,4205,651,10.0,200,0,0,718.0445,1,0,01_04_2015 level23_spatial_F+V 14_59 Block9-8.txt,37,37
74,0,723.4189,0,460,1105,2857,4205,501,10.0,200,0,0,724.2624,1,0,01_04_2015 level23_spatial_F+V 14_59 Block9-8.txt,37,37
75,0,733.8276,0,460,1105,2857,4205,851,10.0,200,0,0,734.273,1,2,01_04_2015 level23_spatial_F+V 14_59 Block9-8.txt,37,37
76,0,739.9397,0,730,2058,2857,4205,601,10.0,200,1,0,740.567,0,2,01_04_2015 level23_spatial_F+V 14_59 Block9-8.txt,37,37
77,1,748.486,0,730,2058,2857,4205,601,10.0,200,1,1,749.5635,1,2,01_04_2015 level23_spatial_F+V 14_59 Block9-8.txt,37,37
78,0,751.1715,1,460,1105,2857,4205,501,10.0,200,0,0,752.344,1,4,01_04_2015 level23_spatial_F+V 14_59 Block9-8.txt,37,37
79,0,759.4938,0,730,2058,2857,4205,551,10.0,200,1,1,760.5592,1,2,01_04_2015 level23_spatial_F+V 14_59 Block9-8.txt,37,37
80,0,782.4022,1,460,1105,2857,4205,901,10.0,200,0,0,782.9248,1,1,01_04_2015 level23_spatial_F+V 14_59 Block9-8.txt,37,37
81,0,790.8187,0,730,2058,2857,4205,951,10.0,200,1,0,791.3406,0,1,01_04_2015 level23_spatial_F+V 14_59 Block9-8.txt,37,37
82,1,801.7095,0,730,2058,2857,4205,951,10.0,200,1,1,802.722,1,1,01_04_2015 level23_spatial_F+V 14_59 Block9-8.txt,37,37
83,0,813.6847,0,460,1105,2857,4205,701,10.0,200,0,0,814.2005,1,5,01_04_2015 level23_spatial_F+V 14_59 Block9-8.txt,37,37
84,0,819.3279,0,460,1105,2857,4205,751,10.0,200,0,0,819.9138,1,4,01_04_2015 level23_spatial_F+V 14_59 Block9-8.txt,37,37
85,0,824.9219,0,730,2058,2857,4205,801,10.0,200,1,1,825.8897,1,5,01_04_2015 level23_spatial_F+V 14_59 Block9-8.txt,37,37
86,0,839.0924,0,460,1105,2857,4205,651,10.0,200,0,0,839.5327,1,2,01_04_2015 level23_spatial_F+V 14_59 Block9-8.txt,37,37
87,0,844.7516,0,460,1105,2857,4205,851,10.0,200,0,0,845.1312,1,5,01_04_2015 level23_spatial_F+V 14_59 Block9-8.txt,37,37
88,0,851.5101,0,730,2058,2857,4205,751,10.0,200,1,0,853.1066,0,3,01_04_2015 level23_spatial_F+V 14_59 Block9-8.txt,37,37
89,1,866.6794,0,730,2058,2857,4205,751,10.0,200,1,1,867.8327,1,3,01_04_2015 level23_spatial_F+V 14_59 Block9-8.txt,37,37
90,0,880.0746,0,460,1105,2857,4205,951,10.0,200,0,0,880.5295,1,5,01_04_2015 level23_spatial_F+V 14_59 Block9-8.txt,37,37
91,0,885.4924,1,460,1105,2857,4205,601,10.0,200,0,0,885.9921,1,0,01_04_2015 level23_spatial_F+V 14_59 Block9-8.txt,37,37
92,0,891.8376,0,730,2058,2857,4205,901,10.0,200,1,0,892.3625,0,5,01_04_2015 level23_spatial_F+V 14_59 Block9-8.txt,37,37
93,1,902.0146,0,730,2058,2857,4205,901,10.0,200,1,1,903.0654,1,5,01_04_2015 level23_spatial_F+V 14_59 Block9-8.txt,37,37
94,0,914.4336,0,730,2058,2857,4205,1001,10.0,200,1,0,915.0779,0,1,01_04_2015 level23_spatial_F+V 14_59 Block9-8.txt,37,37
95,1,928.6716,0,730,2058,2857,4205,1001,10.0,200,1,0,929.9362,0,1,01_04_2015 level23_spatial_F+V 14_59 Block9-8.txt,37,37
96,1,936.2225,0,730,2058,2857,4205,1001,10.0,200,1,1,937.89,1,1,01_04_2015 level23_spatial_F+V 14_59 Block9-8.txt,37,37
97,0,947.1121,0,730,2058,2857,4205,501,10.0,200,1,1,948.2306,1,1,01_04_2015 level23_spatial_F+V 14_59 Block9-8.txt,37,37
98,0,959.5703,0,460,1105,2857,4205,551,10.0,200,0,0,959.9769,1,3,01_04_2015 level23_spatial_F+V 14_59 Block9-8.txt,37,37
99,0,967.0343,0,730,2058,2857,4205,801,10.0,200,1,0,967.5647,0,3,01_04_2015 level23_spatial_F+V 14_59 Block9-8.txt,37,37
1,0,10.718,0,460,1105,2857,4205,1001,-10.0,200,0,0,13.3237,1,3,13_12_2013 level23_spatial_F+V 14_23 Block3-31.txt,37,37
2,0,24.0271,0,460,1105,2857,4205,601,-10.0,200,0,0,27.092,1,0,13_12_2013 level23_spatial_F+V 14_23 Block3-31.txt,37,37
3,0,37.4833,0,730,2058,2857,4205,801,-10.0,200,1,1,39.1416,1,3,13_12_2013 level23_spatial_F+V 14_23 Block3-31.txt,37,37
4,0,46.4379,0,460,1105,2857,4205,851,-10.0,200,0,1,47.0603,0,1,13_12_2013 level23_spatial_F+V 14_23 Block3-31.txt,37,37
5,1,55.097,0,460,1105,2857,4205,851,-10.0,200,0,0,55.7682,1,1,13_12_2013 level23_spatial_F+V 14_23 Block3-31.txt,37,37
6,0,61.9045,0,730,2058,2857,4205,751,-10.0,200,1,1,62.7555,1,2,13_12_2013 level23_spatial_F+V 14_23 Block3-31.txt,37,37
7,0,70.8365,0,460,1105,2857,4205,951,-10.0,200,0,0,71.5062,1,3,13_12_2013 level23_spatial_F+V 14_23 Block3-31.txt,37,37
8,0,78.662,0,730,2058,2857,4205,701,-10.0,200,1,0,79.7345,0,1,13_12_2013 level23_spatial_F+V 14_23 Block3-31.txt,37,37
9,1,87.4843,1,730,2058,2857,4205,701,-10.0,200,1,1,88.5583,1,1,13_12_2013 level23_spatial_F+V 14_23 Block3-31.txt,37,37
10,0,93.3568,0,730,2058,2857,4205,551,-10.0,200,1,1,94.7906,1,0,13_12_2013 level23_spatial_F+V 14_23 Block3-31.txt,37,37
11,0,102.7867,0,460,1105,2857,4205,901,-10.0,200,0,0,104.1932,1,2,13_12_2013 level23_spatial_F+V 14_23 Block3-31.txt,37,37
12,0,111.0664,0,460,1105,2857,4205,501,-10.0,200,0,0,112.6002,1,2,13_12_2013 level23_spatial_F+V 14_23 Block3-31.txt,37,37
13,0,128.4102,0,730,2058,2857,4205,1001,-10.0,200,1,1,129.6432,1,0,13_12_2013 level23_spatial_F+V 14_23 Block3-31.txt,37,37
14,0,140.5925,0,730,2058,2857,4205,701,-10.0,200,1,1,141.961,1,1,13_12_2013 level23_spatial_F+V 14_23 Block3-31.txt,37,37
15,0,147.4187,0,460,1105,2857,4205,551,-10.0,200,0,0,148.182,1,2,13_12_2013 level23_spatial_F+V 14_23 Block3-31.txt,37,37
16,0,154.4998,0,460,1105,2857,4205,651,-10.0,200,0,0,155.3565,1,0,13_12_2013 level23_spatial_F+V 14_23 Block3-31.txt,37,37
17,0,163.2952,1,730,2058,2857,4205,851,-10.0,200,1,0,164.0041,0,3,13_12_2013 level23_spatial_F+V 14_23 Block3-31.txt,37,37
18,1,175.3796,0,730,2058,2857,4205,851,-10.0,200,1,1,176.2617,1,3,13_12_2013 level23_spatial_F+V 14_23 Block3-31.txt,37,37
19,0,183.2856,0,460,1105,2857,4205,601,-10.0,200,0,0,184.2083,1,1,13_12_2013 level23_spatial_F+V 14_23 Block3-31.txt,37,37
20,0,190.2966,0,460,1105,2857,4205,751,-10.0,200,0,0,191.0736,1,1,13_12_2013 level23_spatial_F+V 14_23 Block3-31.txt,37,37
21,0,198.4249,0,460,1105,2857,4205,951,-10.0,200,0,0,199.2953,1,3,13_12_2013 level23_spatial_F+V 14_23 Block3-31.txt,37,37
22,0,206.3961,0,730,2058,2857,4205,501,-10.0,200,1,1,207.6506,1,2,13_12_2013 level23_spatial_F+V 14_23 Block3-31.txt,37,37
23,0,220.3531,0,730,2058,2857,4205,901,-10.0,200,1,1,221.2087,1,1,13_12_2013 level23_spatial_F+V 14_23 Block3-31.txt,37,37
24,0,229.3293,0,730,2058,2857,4205,551,-10.0,200,1,0,230.0706,0,3,13_12_2013 level23_spatial_F+V 14_23 Block3-31.txt,37,37
25,1,244.0955,0,730,2058,2857,4205,551,-10.0,200,1,0,245.5736,0,3,13_12_2013 level23_spatial_F+V 14_23 Block3-31.txt,37,37
26,1,253.34,0,730,2058,2857,4205,551,-10.0,200,1,1,254.2572,1,3,13_12_2013 level23_spatial_F+V 14_23 Block3-31.txt,37,37
27,0,262.7784,0,460,1105,2857,4205,851,-10.0,200,0,0,263.4979,1,0,13_12_2013 level23_spatial_F+V 14_23 Block3-31.txt,37,37
28,0,270.1072,0,730,2058,2857,4205,801,-10.0,200,1,1,271.1535,1,2,13_12_2013 level23_spatial_F+V 14_23 Block3-31.txt,37,37
29,0,283.6958,0,730,2058,2857,4205,901,-10.0,200,1,1,284.6153,1,0,13_12_2013 level23_spatial_F+V 14_23 Block3-31.txt,37,37
30,0,295.0953,0,460,1105,2857,4205,1001,-10.0,200,0,0,295.639,1,1,13_12_2013 level23_spatial_F+V 14_23 Block3-31.txt,37,37
31,0,306.551,1,460,1105,2857,4205,501,-10.0,200,0,1,308.705,0,0,13_12_2013 level23_spatial_F+V 14_23 Block3-31.txt,37,37
32,1,316.6734,0,460,1105,2857,4205,501,-10.0,200,0,1,317.4559,0,0,13_12_2013 level23_spatial_F+V 14_23 Block3-31.txt,37,37
33,1,331.572,0,460,1105,2857,4205,501,-10.0,200,0,0,332.4561,1,0,13_12_2013 level23_spatial_F+V 14_23 Block3-31.txt,37,37
34,0,337.9785,0,460,1105,2857,4205,601,-10.0,200,0,0,338.9123,1,2,13_12_2013 level23_spatial_F+V 14_23 Block3-31.txt,37,37
35,0,345.7073,1,730,2058,2857,4205,751,-10.0,200,1,1,346.5705,1,0,13_12_2013 level23_spatial_F+V 14_23 Block3-31.txt,37,37
36,0,352.8756,0,460,1105,2857,4205,951,-10.0,200,0,0,353.8884,1,3,13_12_2013 level23_spatial_F+V 14_23 Block3-31.txt,37,37
37,0,361.547,0,460,1105,2857,4205,701,-10.0,200,0,0,362.564,1,1,13_12_2013 level23_spatial_F+V 14_23 Block3-31.txt,37,37
38,0,369.5987,0,460,1105,2857,4205,701,-10.0,200,0,0,371.1168,1,3,13_12_2013 level23_spatial_F+V 14_23 Block3-31.txt,37,37
39,0,378.0879,0,730,2058,2857,4205,951,-10.0,200,1,1,379.2845,1,1,13_12_2013 level23_spatial_F+V 14_23 Block3-31.txt,37,37
40,0,385.724,0,460,1105,2857,4205,501,-10.0,200,0,0,386.4189,1,0,13_12_2013 level23_spatial_F+V 14_23 Block3-31.txt,37,37
41,0,394.3107,0,730,2058,2857,4205,651,-10.0,200,1,1,395.4831,1,0,13_12_2013 level23_spatial_F+V 14_23 Block3-31.txt,37,37
42,0,403.3792,0,460,1105,2857,4205,601,-10.0,200,0,0,404.1447,1,2,13_12_2013 level23_spatial_F+V 14_23 Block3-31.txt,37,37
43,0,411.2731,0,460,1105,2857,4205,751,-10.0,200,0,1,412.5789,0,0,13_12_2013 level23_spatial_F+V 14_23 Block3-31.txt,37,37
44,1,421.2567,0,460,1105,2857,4205,751,-10.0,200,0,0,421.9652,1,0,13_12_2013 level23_spatial_F+V 14_23 Block3-31.txt,37,37
45,0,428.2764,0,460,1105,2857,4205,551,-10.0,200,0,0,429.1484,1,1,13_12_2013 level23_spatial_F+V 14_23 Block3-31.txt,37,37
46,0,436.3334,0,730,2058,2857,4205,1001,-10.0,200,1,1,437.6495,1,1,13_12_2013 level23_spatial_F+V 14_23 Block3-31.txt,37,37
47,0,446.4782,0,730,2058,2857,4205,801,-10.0,200,1,0,447.0086,0,2,13_12_2013 level23_spatial_F+V 14_23 Block3-31.txt,37,37
48,1,463.2094,0,730,2058,2857,4205,801,-10.0,200,1,0,463.7261,0,2,13_12_2013 level23_spatial_F+V 14_23 Block3-31.txt,37,37
49,1,473.8157,1,730,2058,2857,4205,801,-10.0,200,1,1,474.8646,1,2,13_12_2013 level23_spatial_F+V 14_23 Block3-31.txt,37,37
50,0,480.4087,1,730,2058,2857,4205,851,-10.0,200,1,1,488.4886,1,3,13_12_2013 level23_spatial_F+V 14_23 Block3-31.txt,37,37
51,0,494.7258,1,730,2058,2857,4205,801,-10.0,200,1,1,497.8565,1,3,13_12_2013 level23_spatial_F+V 14_23 Block3-31.txt,37,37
52,0,510.9776,0,730,2058,2857,4205,1001,-10.0,200,1,0,512.884,0,1,13_12_2013 level23_spatial_F+V 14_23 Block3-31.txt,37,37
53,1,521.6891,0,730,2058,2857,4205,1001,-10.0,200,1,0,522.7364,0,1,13_12_2013 level23_spatial_F+V 14_23 Block3-31.txt,37,37
54,1,530.9203,1,730,2058,2857,4205,1001,-10.0,200,1,1,531.6305,1,1,13_12_2013 level23_spatial_F+V 14_23 Block3-31.txt,37,37
55,0,537.1837,0,730,2058,2857,4205,701,-10.0,200,1,1,544.9265,1,3,13_12_2013 level23_spatial_F+V 14_23 Block3-31.txt,37,37
56,0,554.6321,0,460,1105,2857,4205,501,-10.0,200,0,0,555.8752,1,3,13_12_2013 level23_spatial_F+V 14_23 Block3-31.txt,37,37
57,0,561.118,0,460,1105,2857,4205,951,-10.0,200,0,0,561.5706,1,2,13_12_2013 level23_spatial_F+V 14_23 Block3-31.txt,37,37
58,0,586.7309,0,730,2058,2857,4205,901,-10.0,200,1,1,592.0401,1,2,13_12_2013 level23_spatial_F+V 14_23 Block3-31.txt,37,37
59,0,594.5731,0,730,2058,2857,4205,651,-10.0,200,1,1,598.7245,1,0,13_12_2013 level23_spatial_F+V 14_23 Block3-31.txt,37,37
60,0,604.6477,0,730,2058,2857,4205,751,-10.0,200,1,1,606.5208,1,2,13_12_2013 level23_spatial_F+V 14_23 Block3-31.txt,37,37
61,0,612.1451,0,730,2058,2857,4205,601,-10.0,200,1,1,613.2973,1,1,13_12_2013 level23_spatial_F+V 14_23 Block3-31.txt,37,37
62,0,622.7343,0,730,2058,2857,4205,851,-10.0,200,1,1,623.9949,1,1,13_12_2013 level23_spatial_F+V 14_23 Block3-31.txt,37,37
63,0,628.7105,1,460,1105,2857,4205,551,-10.0,200,0,0,629.403,1,1,13_12_2013 level23_spatial_F+V 14_23 Block3-31.txt,37,37
64,0,636.5589,0,460,1105,2857,4205,801,-10.0,200,0,0,639.4255,1,3,13_12_2013 level23_spatial_F+V 14_23 Block3-31.txt,37,37
65,0,645.6877,0,730,2058,2857,4205,601,-10.0,200,1,1,647.3878,1,2,13_12_2013 level23_spatial_F+V 14_23 Block3-31.txt,37,37
66,0,651.9033,0,460,1105,2857,4205,651,-10.0,200,0,0,652.3499,1,2,13_12_2013 level23_spatial_F+V 14_23 Block3-31.txt,37,37
67,0,659.6291,0,730,2058,2857,4205,851,-10.0,200,1,1,661.2045,1,3,13_12_2013 level23_spatial_F+V 14_23 Block3-31.txt,37,37
68,0,666.0417,0,460,1105,2857,4205,951,-10.0,200,0,1,666.9068,0,0,13_12_2013 level23_spatial_F+V 14_23 Block3-31.txt,37,37
69,1,673.1871,0,460,1105,2857,4205,951,-10.0,200,0,0,674.6198,1,0,13_12_2013 level23_spatial_F+V 14_23 Block3-31.txt,37,37
70,0,682.5089,0,460,1105,2857,4205,701,-10.0,200,0,0,683.5177,1,1,13_12_2013 level23_spatial_F+V 14_23 Block3-31.txt,37,37
71,0,691.0666,0,460,1105,2857,4205,901,-10.0,200,0,0,691.628,1,2,13_12_2013 level23_spatial_F+V 14_23 Block3-31.txt,37,37
72,0,701.2668,0,730,2058,2857,4205,751,-10.0,200,1,0,701.8285,0,2,13_12_2013 level23_spatial_F+V 14_23 Block3-31.txt,37,37
73,1,710.113,0,730,2058,2857,4205,751,-10.0,200,1,1,710.7382,1,2,13_12_2013 level23_spatial_F+V 14_23 Block3-31.txt,37,37
74,0,716.0081,0,460,1105,2857,4205,1001,-10.0,200,0,0,716.3199,1,2,13_12_2013 level23_spatial_F+V 14_23 Block3-31.txt,37,37
75,0,722.98,0,730,2058,2857,4205,551,-10.0,200,1,1,724.1054,1,0,13_12_2013 level23_spatial_F+V 14_23 Block3-31.txt,37,37
76,0,729.0961,0,730,2058,2857,4205,901,-10.0,200,1,1,729.8931,1,3,13_12_2013 level23_spatial_F+V 14_23 Block3-31.txt,37,37
77,0,739.8022,0,460,1105,2857,4205,801,-10.0,200,0,0,740.3002,1,3,13_12_2013 level23_spatial_F+V 14_23 Block3-31.txt,37,37
78,0,747.3571,0,460,1105,2857,4205,601,-10.0,200,0,1,748.637,0,0,13_12_2013 level23_spatial_F+V 14_23 Block3-31.txt,37,37
79,1,754.4502,0,460,1105,2857,4205,601,-10.0,200,0,0,755.4943,1,0,13_12_2013 level23_spatial_F+V 14_23 Block3-31.txt,37,37
80,0,769.2927,0,460,1105,2857,4205,851,-10.0,200,0,0,769.9739,1,0,13_12_2013 level23_spatial_F+V 14_23 Block3-31.txt,37,37
81,0,777.547,0,730,2058,2857,4205,751,-10.0,200,1,1,778.6552,1,0,13_12_2013 level23_spatial_F+V 14_23 Block3-31.txt,37,37
82,0,788.3778,0,460,1105,2857,4205,951,-10.0,200,0,0,789.0461,1,1,13_12_2013 level23_spatial_F+V 14_23 Block3-31.txt,37,37
83,0,795.5313,1,730,2058,2857,4205,501,-10.0,200,1,1,797.0108,1,1,13_12_2013 level23_spatial_F+V 14_23 Block3-31.txt,37,37
84,0,803.2199,1,730,2058,2857,4205,1001,-10.0,200,1,1,808.3671,1,0,13_12_2013 level23_spatial_F+V 14_23 Block3-31.txt,37,37
85,0,820.9324,0,460,1105,2857,4205,651,-10.0,200,0,0,822.591,1,3,13_12_2013 level23_spatial_F+V 14_23 Block3-31.txt,37,37
86,0,828.3544,0,730,2058,2857,4205,801,-10.0,200,1,1,829.8912,1,2,13_12_2013 level23_spatial_F+V 14_23 Block3-31.txt,37,37
87,0,835.7838,0,730,2058,2857,4205,851,-10.0,200,1,1,836.8947,1,3,13_12_2013 level23_spatial_F+V 14_23 Block3-31.txt,37,37
88,0,841.4266,0,460,1105,2857,4205,601,-10.0,200,0,0,842.0708,1,0,13_12_2013 level23_spatial_F+V 14_23 Block3-31.txt,37,37
89,0,849.3213,0,460,1105,2857,4205,901,-10.0,200,0,0,849.9463,1,3,13_12_2013 level23_spatial_F+V 14_23 Block3-31.txt,37,37
90,0,857.4271,0,730,2058,2857,4205,701,-10.0,200,1,0,858.0776,0,1,13_12_2013 level23_spatial_F+V 14_23 Block3-31.txt,37,37
91,1,881.3258,0,730,2058,2857,4205,701,-10.0,200,1,1,887.1459,1,1,13_12_2013 level23_spatial_F+V 14_23 Block3-31.txt,37,37
92,0,892.9148,1,460,1105,2857,4205,651,-10.0,200,0,1,897.7631,0,2,13_12_2013 level23_spatial_F+V 14_23 Block3-31.txt,37,37
93,1,907.4718,0,460,1105,2857,4205,651,-10.0,200,0,0,907.9123,1,2,13_12_2013 level23_spatial_F+V 14_23 Block3-31.txt,37,37
94,0,912.7633,0,460,1105,2857,4205,501,-10.0,200,0,0,913.2723,1,3,13_12_2013 level23_spatial_F+V 14_23 Block3-31.txt,37,37
95,0,918.5229,0,730,2058,2857,4205,551,-10.0,200,1,0,919.5073,0,3,13_12_2013 level23_spatial_F+V 14_23 Block3-31.txt,37,37
96,1,939.6393,0,730,2058,2857,4205,551,-10.0,200,1,0,941.1207,0,3,13_12_2013 level23_spatial_F+V 14_23 Block3-31.txt,37,37
97,1,993.386,0,730,2058,2857,4205,551,-10.0,200,1,1,994.5412,1,3,13_12_2013 level23_spatial_F+V 14_23 Block3-31.txt,37,37
98,0,1006.0112,0,730,2058,2857,4205,951,-10.0,200,1,0,1009.2741,0,2,13_12_2013 level23_spatial_F+V 14_23 Block3-31.txt,37,37
99,1,1043.9319,0,730,2058,2857,4205,951,-10.0,200,1,1,1048.2166,1,2,13_12_2013 level23_spatial_F+V 14_23 Block3-31.txt,37,37
100,0,1055.7181,0,460,1105,2857,4205,751,-10.0,200,0,1,1056.5738,0,2,13_12_2013 level23_spatial_F+V 14_23 Block3-31.txt,37,37
1,0,9.7746,0,730,2058,2857,4205,701,10.0,200,1,1,10.4443,1,4,30_09_2014 level23_spatial_F+V 10_33 Block6-90.txt,37,37
2,0,13.6143,0,460,1105,2857,4205,1001,10.0,200,0,1,14.2996,0,2,30_09_2014 level23_spatial_F+V 10_33 Block6-90.txt,37,37
3,1,27.1363,0,460,1105,2857,4205,1001,10.0,200,0,1,27.8895,0,2,30_09_2014 level23_spatial_F+V 10_33 Block6-90.txt,37,37
4,1,36.6771,0,460,1105,2857,4205,1001,10.0,200,0,0,37.3121,1,2,30_09_2014 level23_spatial_F+V 10_33 Block6-90.txt,37,37
5,0,45.5073,0,460,1105,2857,4205,751,10.0,200,0,0,46.3423,1,2,30_09_2014 level23_spatial_F+V 10_33 Block6-90.txt,37,37
6,0,54.8681,0,460,1105,2857,4205,601,10.0,200,0,0,55.7958,1,5,30_09_2014 level23_spatial_F+V 10_33 Block6-90.txt,37,37
7,0,67.4449,0,730,2058,2857,4205,901,10.0,200,1,1,67.8081,1,3,30_09_2014 level23_spatial_F+V 10_33 Block6-90.txt,37,37
8,0,71.065,0,730,2058,2857,4205,951,10.0,200,1,1,71.7122,1,1,30_09_2014 level23_spatial_F+V 10_33 Block6-90.txt,37,37
9,0,73.2842,0,730,2058,2857,4205,801,10.0,200,1,0,74.2933,0,1,30_09_2014 level23_spatial_F+V 10_33 Block6-90.txt,37,37
10,1,81.4795,0,730,2058,2857,4205,801,10.0,200,1,0,82.1481,0,1,30_09_2014 level23_spatial_F+V 10_33 Block6-90.txt,37,37
11,1,92.6993,1,730,2058,2857,4205,801,10.0,200,1,0,93.1935,0,1,30_09_2014 level23_spatial_F+V 10_33 Block6-90.txt,37,37
12,1,99.3031,1,730,2058,2857,4205,801,10.0,200,1,1,102.1943,1,1,30_09_2014 level23_spatial_F+V 10_33 Block6-90.txt,37,37
13,0,106.1458,0,730,2058,2857,4205,551,10.0,200,1,1,107.2485,1,4,30_09_2014 level23_spatial_F+V 10_33 Block6-90.txt,37,37
14,0,113.0945,0,730,2058,2857,4205,501,10.0,200,1,1,114.2632,1,1,30_09_2014 level23_spatial_F+V 10_33 Block6-90.txt,37,37
15,0,122.0975,0,460,1105,2857,4205,651,10.0,200,0,1,122.7112,0,1,30_09_2014 level23_spatial_F+V 10_33 Block6-90.txt,37,37
16,1,128.7232,0,460,1105,2857,4205,651,10.0,200,0,0,129.2172,1,1,30_09_2014 level23_spatial_F+V 10_33 Block6-90.txt,37,37
17,0,136.8953,0,730,2058,2857,4205,701,10.0,200,1,1,137.4782,1,5,30_09_2014 level23_spatial_F+V 10_33 Block6-90.txt,37,37
18,0,145.2108,0,730,2058,2857,4205,1001,10.0,200,1,1,145.8223,1,4,30_09_2014 level23_spatial_F+V 10_33 Block6-90.txt,37,37
19,0,159.579,0,460,1105,2857,4205,851,10.0,200,0,0,160.1704,1,4,30_09_2014 level23_spatial_F+V 10_33 Block6-90.txt,37,37
20,0,168.454,0,460,1105,2857,4205,601,10.0,200,0,1,169.1507,0,1,30_09_2014 level23_spatial_F+V 10_33 Block6-90.txt,37,37
21,1,176.7666,0,460,1105,2857,4205,601,10.0,200,0,1,177.6315,0,1,30_09_2014 level23_spatial_F+V 10_33 Block6-90.txt,37,37
22,1,189.2224,0,460,1105,2857,4205,601,10.0,200,0,0,190.2888,1,1,30_09_2014 level23_spatial_F+V 10_33 Block6-90.txt,37,37
23,0,199.5219,0,460,1105,2857,4205,651,10.0,200,0,0,200.5701,1,0,30_09_2014 level23_spatial_F+V 10_33 Block6-90.txt,37,37
24,0,210.9579,0,460,1105,2857,4205,901,10.0,200,0,0,211.7014,1,5,30_09_2014 level23_spatial_F+V 10_33 Block6-90.txt,37,37
25,0,223.8178,0,730,2058,2857,4205,751,10.0,200,1,1,224.4225,1,2,30_09_2014 level23_spatial_F+V 10_33 Block6-90.txt,37,37
26,0,227.9994,0,730,2058,2857,4205,551,10.0,200,1,1,228.3891,1,0,30_09_2014 level23_spatial_F+V 10_33 Block6-90.txt,37,37
27,0,238.0063,0,460,1105,2857,4205,801,10.0,200,0,0,239.0242,1,3,30_09_2014 level23_spatial_F+V 10_33 Block6-90.txt,37,37
28,0,249.4032,0,730,2058,2857,4205,951,10.0,200,1,1,250.1649,1,3,30_09_2014 level23_spatial_F+V 10_33 Block6-90.txt,37,37
29,0,258.9941,0,730,2058,2857,4205,901,10.0,200,1,1,259.8882,1,3,30_09_2014 level23_spatial_F+V 10_33 Block6-90.txt,37,37
30,0,268.5532,0,730,2058,2857,4205,501,10.0,200,1,1,269.5909,1,0,30_09_2014 level23_spatial_F+V 10_33 Block6-90.txt,37,37
31,0,272.0163,0,730,2058,2857,4205,551,10.0,200,1,1,272.9325,1,0,30_09_2014 level23_spatial_F+V 10_33 Block6-90.txt,37,37
32,0,281.7528,0,460,1105,2857,4205,951,10.0,200,0,0,282.2527,1,0,30_09_2014 level23_spatial_F+V 10_33 Block6-90.txt,37,37
33,0,291.881,0,460,1105,2857,4205,651,10.0,200,0,1,292.9606,0,0,30_09_2014 level23_spatial_F+V 10_33 Block6-90.txt,37,37
34,1,300.5964,0,460,1105,2857,4205,651,10.0,200,0,0,301.2646,1,0,30_09_2014 level23_spatial_F+V 10_33 Block6-90.txt,37,37
35,0,311.9637,0,730,2058,2857,4205,801,10.0,200,1,1,312.8059,1,5,30_09_2014 level23_spatial_F+V 10_33 Block6-90.txt,37,37
36,0,317.5229,0,730,2058,2857,4205,1001,10.0,200,1,1,318.1751,1,5,30_09_2014 level23_spatial_F+V 10_33 Block6-90.txt,37,37
37,0,325.948,0,460,1105,2857,4205,701,10.0,200,0,1,326.878,0,5,30_09_2014 level23_spatial_F+V 10_33 Block6-90.txt,37,37
38,1,333.6398,0,460,1105,2857,4205,701,10.0,200,0,0,334.5032,1,5,30_09_2014 level23_spatial_F+V 10_33 Block6-90.txt,37,37
39,0,345.2609,0,730,2058,2857,4205,851,10.0,200,1,1,346.0391,1,2,30_09_2014 level23_spatial_F+V 10_33 Block6-90.txt,37,37
40,0,351.753,0,460,1105,2857,4205,751,10.0,200,0,1,352.6893,0,2,30_09_2014 level23_spatial_F+V 10_33 Block6-90.txt,37,37
41,1,363.3556,0,460,1105,2857,4205,751,10.0,200,0,0,364.1616,1,2,30_09_2014 level23_spatial_F+V 10_33 Block6-90.txt,37,37
42,0,373.6799,0,730,2058,2857,4205,1001,10.0,200,1,1,374.5112,1,2,30_09_2014 level23_spatial_F+V 10_33 Block6-90.txt,37,37
43,0,382.8963,0,460,1105,2857,4205,551,10.0,200,0,1,383.7045,0,3,30_09_2014 level23_spatial_F+V 10_33 Block6-90.txt,37,37
44,1,391.6305,0,460,1105,2857,4205,551,10.0,200,0,0,392.3673,1,3,30_09_2014 level23_spatial_F+V 10_33 Block6-90.txt,37,37
45,0,404.428,0,460,1105,2857,4205,751,10.0,200,0,1,405.3129,0,3,30_09_2014 level23_spatial_F+V 10_33 Block6-90.txt,37,37
46,1,412.1205,0,460,1105,2857,4205,751,10.0,200,0,1,412.7508,0,3,30_09_2014 level23_spatial_F+V 10_33 Block6-90.txt,37,37
47,1,421.2261,0,460,1105,2857,4205,751,10.0,200,0,0,421.7858,1,3,30_09_2014 level23_spatial_F+V 10_33 Block6-90.txt,37,37
48,0,430.9486,0,460,1105,2857,4205,951,10.0,200,0,0,431.7472,1,1,30_09_2014 level23_spatial_F+V 10_33 Block6-90.txt,37,37
49,0,440.2084,0,460,1105,2857,4205,901,10.0,200,0,0,440.9652,1,4,30_09_2014 level23_spatial_F+V 10_33 Block6-90.txt,37,37
50,0,452.3327,0,460,1105,2857,4205,651,10.0,200,0,0,452.9977,1,4,30_09_2014 level23_spatial_F+V 10_33 Block6-90.txt,37,37
51,0,463.6459,0,460,1105,2857,4205,701,10.0,200,0,1,464.2805,0,0,30_09_2014 level23_spatial_F+V 10_33 Block6-90.txt,37,37
52,1,479.6098,0,460,1105,2857,4205,701,10.0,200,0,1,480.5594,0,0,30_09_2014 level23_spatial_F+V 10_33 Block6-90.txt,37,37
53,1,486.469,0,460,1105,2857,4205,701,10.0,200,0,0,487.2595,1,0,30_09_2014 level23_spatial_F+V 10_33 Block6-90.txt,37,37
54,0,494.8464,1,460,1105,2857,4205,801,10.0,200,0,0,496.353,1,4,30_09_2014 level23_spatial_F+V 10_33 Block6-90.txt,37,37
55,0,499.0132,0,460,1105,2857,4205,501,10.0,200,0,1,500.7279,0,1,30_09_2014 level23_spatial_F+V 10_33 Block6-90.txt,37,37
56,1,513.7459,0,460,1105,2857,4205,501,10.0,200,0,0,515.3275,1,1,30_09_2014 level23_spatial_F+V 10_33 Block6-90.txt,37,37
57,0,525.8382,0,460,1105,2857,4205,601,10.0,200,0,0,527.0328,1,3,30_09_2014 level23_spatial_F+V 10_33 Block6-90.txt,37,37
58,0,536.931,0,730,2058,2857,4205,501,10.0,200,1,1,537.6739,1,4,30_09_2014 level23_spatial_F+V 10_33 Block6-90.txt,37,37
59,0,540.0188,0,730,2058,2857,4205,801,10.0,200,1,1,540.4006,1,0,30_09_2014 level23_spatial_F+V 10_33 Block6-90.txt,37,37
60,0,548.593,0,460,1105,2857,4205,651,10.0,200,0,0,549.9002,1,2,30_09_2014 level23_spatial_F+V 10_33 Block6-90.txt,37,37
61,0,560.9251,0,460,1105,2857,4205,601,10.0,200,0,1,561.6698,0,2,30_09_2014 level23_spatial_F+V 10_33 Block6-90.txt,37,37
62,1,570.4512,0,460,1105,2857,4205,601,10.0,200,0,0,570.9085,1,2,30_09_2014 level23_spatial_F+V 10_33 Block6-90.txt,37,37
63,0,582.5288,0,460,1105,2857,4205,551,10.0,200,0,0,583.6306,1,5,30_09_2014 level23_spatial_F+V 10_33 Block6-90.txt,37,37
64,0,588.7467,0,730,2058,2857,4205,751,10.0,200,1,1,589.4734,1,0,30_09_2014 level23_spatial_F+V 10_33 Block6-90.txt,37,37
65,0,592.1676,0,730,2058,2857,4205,701,10.0,200,1,1,592.9634,1,3,30_09_2014 level23_spatial_F+V 10_33 Block6-90.txt,37,37
66,0,601.943,0,460,1105,2857,4205,1001,10.0,200,0,0,605.026,1,5,30_09_2014 level23_spatial_F+V 10_33 Block6-90.txt,37,37
67,0,616.1993,0,460,1105,2857,4205,901,10.0,200,0,0,616.7654,1,4,30_09_2014 level23_spatial_F+V 10_33 Block6-90.txt,37,37
68,0,627.8717,0,730,2058,2857,4205,851,10.0,200,1,1,628.4215,1,2,30_09_2014 level23_spatial_F+V 10_33 Block6-90.txt,37,37
69,0,631.2721,0,460,1105,2857,4205,501,10.0,200,0,1,632.1616,0,1,30_09_2014 level23_spatial_F+V 10_33 Block6-90.txt,37,37
70,1,644.1163,0,460,1105,2857,4205,501,10.0,200,0,0,645.0969,1,1,30_09_2014 level23_spatial_F+V 10_33 Block6-90.txt,37,37
71,0,655.1661,0,460,1105,2857,4205,901,10.0,200,0,1,655.6956,0,0,30_09_2014 level23_spatial_F+V 10_33 Block6-90.txt,37,37
72,1,661.8928,0,460,1105,2857,4205,901,10.0,200,0,1,662.1202,0,0,30_09_2014 level23_spatial_F+V 10_33 Block6-90.txt,37,37
73,1,673.0221,0,460,1105,2857,4205,901,10.0,200,0,0,673.4711,1,0,30_09_2014 level23_spatial_F+V 10_33 Block6-90.txt,37,37
74,0,681.1258,1,730,2058,2857,4205,1001,10.0,200,1,0,681.4996,0,3,30_09_2014 level23_spatial_F+V 10_33 Block6-90.txt,37,37
75,1,698.9795,0,730,2058,2857,4205,1001,10.0,200,1,1,699.9916,1,3,30_09_2014 level23_spatial_F+V 10_33 Block6-90.txt,37,37
76,0,712.2969,0,730,2058,2857,4205,801,10.0,200,1,1,713.0538,1,1,30_09_2014 level23_spatial_F+V 10_33 Block6-90.txt,37,37
77,0,718.4863,0,460,1105,2857,4205,751,10.0,200,0,1,718.8797,0,4,30_09_2014 level23_spatial_F+V 10_33 Block6-90.txt,37,37
78,1,727.3846,0,460,1105,2857,4205,751,10.0,200,0,0,728.1849,1,4,30_09_2014 level23_spatial_F+V 10_33 Block6-90.txt,37,37
79,0,734.647,0,730,2058,2857,4205,851,10.0,200,1,0,735.321,0,0,30_09_2014 level23_spatial_F+V 10_33 Block6-90.txt,37,37
80,1,742.7908,0,730,2058,2857,4205,851,10.0,200,1,0,743.2848,0,0,30_09_2014 level23_spatial_F+V 10_33 Block6-90.txt,37,37
81,1,750.1342,0,730,2058,2857,4205,851,10.0,200,1,1,751.0312,1,0,30_09_2014 level23_spatial_F+V 10_33 Block6-90.txt,37,37
82,0,757.6297,0,730,2058,2857,4205,651,10.0,200,1,1,758.3638,1,3,30_09_2014 level23_spatial_F+V 10_33 Block6-90.txt,37,37
83,0,766.8315,0,460,1105,2857,4205,601,10.0,200,0,1,768.0665,0,3,30_09_2014 level23_spatial_F+V 10_33 Block6-90.txt,37,37
84,1,774.4131,0,460,1105,2857,4205,601,10.0,200,0,0,775.9085,1,3,30_09_2014 level23_spatial_F+V 10_33 Block6-90.txt,37,37
85,0,782.5788,0,730,2058,2857,4205,701,10.0,200,1,1,783.4974,1,4,30_09_2014 level23_spatial_F+V 10_33 Block6-90.txt,37,37
86,0,798.5461,0,460,1105,2857,4205,951,10.0,200,0,1,799.9118,0,0,30_09_2014 level23_spatial_F+V 10_33 Block6-90.txt,37,37
87,1,809.1517,0,460,1105,2857,4205,951,10.0,200,0,1,810.1863,0,0,30_09_2014 level23_spatial_F+V 10_33 Block6-90.txt,37,37
88,1,830.3967,0,460,1105,2857,4205,951,10.0,200,0,0,831.776,1,0,30_09_2014 level23_spatial_F+V 10_33 Block6-90.txt,37,37
89,0,841.2483,0,730,2058,2857,4205,601,10.0,200,1,1,842.2098,1,2,30_09_2014 level23_spatial_F+V 10_33 Block6-90.txt,37,37
90,0,848.3507,0,730,2058,2857,4205,1001,10.0,200,1,1,849.622,1,5,30_09_2014 level23_spatial_F+V 10_33 Block6-90.txt,37,37
91,0,855.51,0,460,1105,2857,4205,801,10.0,200,0,1,856.3823,0,3,30_09_2014 level23_spatial_F+V 10_33 Block6-90.txt,37,37
92,1,865.5971,0,460,1105,2857,4205,801,10.0,200,0,1,866.504,0,3,30_09_2014 level23_spatial_F+V 10_33 Block6-90.txt,37,37
1,0,49.3494,0,730,2058,2857,4205,1001,10.0,200,1,0,49.9707,0,3,20_03_2015 level23_spatial_F+V 14_05 Block9-2.txt,37,37
2,1,118.3042,1,730,2058,2857,4205,1001,10.0,200,1,0,128.1171,0,3,20_03_2015 level23_spatial_F+V 14_05 Block9-2.txt,37,37
3,1,138.182,0,730,2058,2857,4205,1001,10.0,200,1,0,152.4051,0,3,20_03_2015 level23_spatial_F+V 14_05 Block9-2.txt,37,37
4,1,160.0141,0,730,2058,2857,4205,1001,10.0,200,1,0,172.6592,0,3,20_03_2015 level23_spatial_F+V 14_05 Block9-2.txt,37,37
5,1,186.4466,0,730,2058,2857,4205,1001,10.0,200,1,0,187.5876,0,3,20_03_2015 level23_spatial_F+V 14_05 Block9-2.txt,37,37
6,1,223.0843,0,730,2058,2857,4205,1001,10.0,200,1,0,223.8558,0,3,20_03_2015 level23_spatial_F+V 14_05 Block9-2.txt,37,37
7,1,320.1002,0,730,2058,2857,4205,1001,10.0,200,1,0,328.8118,0,3,20_03_2015 level23_spatial_F+V 14_05 Block9-2.txt,37,37
8,1,346.1401,0,730,2058,2857,4205,1001,10.0,200,1,0,346.8193,0,3,20_03_2015 level23_spatial_F+V 14_05 Block9-2.txt,37,37
9,1,563.66,0,730,2058,2857,4205,1001,10.0,200,1,0,566.1689,0,3,20_03_2015 level23_spatial_F+V 14_05 Block9-2.txt,37,37
1,0,8.595,1,730,2058,2857,4205,801,10.0,200,1,1,9.6781,1,0,01_04_2015 level23_spatial_F+V 09_00 Block9-7.txt,37,37
2,0,15.0239,1,730,2058,2857,4205,701,10.0,200,1,1,16.232,1,5,01_04_2015 level23_spatial_F+V 09_00 Block9-7.txt,37,37
3,0,30.9338,0,460,1105,2857,4205,1001,10.0,200,0,0,31.9823,1,0,01_04_2015 level23_spatial_F+V 09_00 Block9-7.txt,37,37
4,0,39.9712,0,730,2058,2857,4205,851,10.0,200,1,0,40.4686,0,1,01_04_2015 level23_spatial_F+V 09_00 Block9-7.txt,37,37
5,1,63.3039,0,730,2058,2857,4205,851,10.0,200,1,1,65.116,1,1,01_04_2015 level23_spatial_F+V 09_00 Block9-7.txt,37,37
6,0,72.3481,0,730,2058,2857,4205,651,10.0,200,1,1,73.137,1,2,01_04_2015 level23_spatial_F+V 09_00 Block9-7.txt,37,37
7,0,93.3157,0,730,2058,2857,4205,551,10.0,200,1,0,94.3241,0,3,01_04_2015 level23_spatial_F+V 09_00 Block9-7.txt,37,37
8,1,102.4132,1,730,2058,2857,4205,551,10.0,200,1,1,103.151,1,3,01_04_2015 level23_spatial_F+V 09_00 Block9-7.txt,37,37
9,0,112.183,0,460,1105,2857,4205,601,10.0,200,0,0,113.0529,1,1,01_04_2015 level23_spatial_F+V 09_00 Block9-7.txt,37,37
10,0,124.1386,0,460,1105,2857,4205,901,10.0,200,0,0,125.0488,1,4,01_04_2015 level23_spatial_F+V 09_00 Block9-7.txt,37,37
11,0,131.1891,0,730,2058,2857,4205,501,10.0,200,1,1,132.3744,1,2,01_04_2015 level23_spatial_F+V 09_00 Block9-7.txt,37,37
12,0,147.5838,0,460,1105,2857,4205,951,10.0,200,0,0,148.2367,1,4,01_04_2015 level23_spatial_F+V 09_00 Block9-7.txt,37,37
13,0,157.7151,0,730,2058,2857,4205,801,10.0,200,1,1,158.1959,1,0,01_04_2015 level23_spatial_F+V 09_00 Block9-7.txt,37,37
14,0,170.9167,1,460,1105,2857,4205,951,10.0,200,0,0,171.8504,1,2,01_04_2015 level23_spatial_F+V 09_00 Block9-7.txt,37,37
15,0,181.4133,0,460,1105,2857,4205,551,10.0,200,0,0,181.8471,1,1,01_04_2015 level23_spatial_F+V 09_00 Block9-7.txt,37,37
16,0,189.0225,0,730,2058,2857,4205,1001,10.0,200,1,0,189.7458,0,1,01_04_2015 level23_spatial_F+V 09_00 Block9-7.txt,37,37
17,1,204.9427,0,730,2058,2857,4205,1001,10.0,200,1,0,205.3104,0,1,01_04_2015 level23_spatial_F+V 09_00 Block9-7.txt,37,37
18,1,211.8996,0,730,2058,2857,4205,1001,10.0,200,1,0,212.5551,0,1,01_04_2015 level23_spatial_F+V 09_00 Block9-7.txt,37,37
19,1,218.9201,0,730,2058,2857,4205,1001,10.0,200,1,1,219.4881,1,1,01_04_2015 level23_spatial_F+V 09_00 Block9-7.txt,37,37
20,0,227.9523,0,460,1105,2857,4205,601,10.0,200,0,0,228.8189,1,2,01_04_2015 level23_spatial_F+V 09_00 Block9-7.txt,37,37
21,0,237.0875,0,730,2058,2857,4205,851,10.0,200,1,1,237.8615,1,5,01_04_2015 level23_spatial_F+V 09_00 Block9-7.txt,37,37
22,0,246.3726,0,460,1105,2857,4205,651,10.0,200,0,0,246.9186,1,5,01_04_2015 level23_spatial_F+V 09_00 Block9-7.txt,37,37
23,0,260.27,1,460,1105,2857,4205,901,10.0,200,0,0,260.8101,1,5,01_04_2015 level23_spatial_F+V 09_00 Block9-7.txt,37,37
24,0,268.3784,1,460,1105,2857,4205,751,10.0,200,0,0,268.8074,1,5,01_04_2015 level23_spatial_F+V 09_00 Block9-7.txt,37,37
25,0,274.8751,0,730,2058,2857,4205,701,10.0,200,1,0,276.0785,0,5,01_04_2015 level23_spatial_F+V 09_00 Block9-7.txt,37,37
26,1,287.6641,0,730,2058,2857,4205,701,10.0,200,1,1,288.4717,1,5,01_04_2015 level23_spatial_F+V 09_00 Block9-7.txt,37,37
27,0,296.3937,0,730,2058,2857,4205,501,10.0,200,1,0,296.9126,0,4,01_04_2015 level23_spatial_F+V 09_00 Block9-7.txt,37,37
28,1,302.8047,0,730,2058,2857,4205,501,10.0,200,1,1,304.0008,1,4,01_04_2015 level23_spatial_F+V 09_00 Block9-7.txt,37,37
29,0,313.3682,0,460,1105,2857,4205,551,10.0,200,0,0,313.7159,1,4,01_04_2015 level23_spatial_F+V 09_00 Block9-7.txt,37,37
30,0,319.4016,1,730,2058,2857,4205,651,10.0,200,1,1,320.9691,1,4,01_04_2015 level23_spatial_F+V 09_00 Block9-7.txt,37,37
31,0,337.9189,0,730,2058,2857,4205,751,10.0,200,1,0,338.4728,0,2,01_04_2015 level23_spatial_F+V 09_00 Block9-7.txt,37,37
32,1,356.0213,0,730,2058,2857,4205,751,10.0,200,1,0,356.5112,0,2,01_04_2015 level23_spatial_F+V 09_00 Block9-7.txt,37,37
33,1,365.7676,0,730,2058,2857,4205,751,10.0,200,1,1,366.2968,1,2,01_04_2015 level23_spatial_F+V 09_00 Block9-7.txt,37,37
34,0,376.339,0,460,1105,2857,4205,601,10.0,200,0,0,376.8961,1,3,01_04_2015 level23_spatial_F+V 09_00 Block9-7.txt,37,37
35,0,391.3508,0,460,1105,2857,4205,901,10.0,200,0,1,391.9654,0,3,01_04_2015 level23_spatial_F+V 09_00 Block9-7.txt,37,37
36,1,403.065,0,460,1105,2857,4205,901,10.0,200,0,0,403.6738,1,3,01_04_2015 level23_spatial_F+V 09_00 Block9-7.txt,37,37
37,0,412.3672,0,460,1105,2857,4205,701,10.0,200,0,0,412.9756,1,2,01_04_2015 level23_spatial_F+V 09_00 Block9-7.txt,37,37
38,0,418.5819,0,730,2058,2857,4205,801,10.0,200,1,1,419.7741,1,4,01_04_2015 level23_spatial_F+V 09_00 Block9-7.txt,37,37
39,0,434.0205,0,460,1105,2857,4205,1001,10.0,200,0,0,434.4298,1,0,01_04_2015 level23_spatial_F+V 09_00 Block9-7.txt,37,37
40,0,439.9698,0,730,2058,2857,4205,951,10.0,200,1,0,440.3467,0,3,01_04_2015 level23_spatial_F+V 09_00 Block9-7.txt,37,37
41,1,455.2262,0,730,2058,2857,4205,951,10.0,200,1,0,456.3997,0,3,01_04_2015 level23_spatial_F+V 09_00 Block9-7.txt,37,37
42,1,466.0224,0,730,2058,2857,4205,951,10.0,200,1,1,466.5292,1,3,01_04_2015 level23_spatial_F+V 09_00 Block9-7.txt,37,37
43,0,479.3995,0,460,1105,2857,4205,501,10.0,200,0,0,479.9138,1,0,01_04_2015 level23_spatial_F+V 09_00 Block9-7.txt,37,37
44,0,488.4173,0,460,1105,2857,4205,801,10.0,200,0,0,488.7621,1,3,01_04_2015 level23_spatial_F+V 09_00 Block9-7.txt,37,37
45,0,499.1743,1,730,2058,2857,4205,1001,10.0,200,1,1,499.9637,1,3,01_04_2015 level23_spatial_F+V 09_00 Block9-7.txt,37,37
46,0,511.535,0,730,2058,2857,4205,601,10.0,200,1,0,512.054,0,0,01_04_2015 level23_spatial_F+V 09_00 Block9-7.txt,37,37
47,1,519.1578,0,730,2058,2857,4205,601,10.0,200,1,1,519.9811,1,0,01_04_2015 level23_spatial_F+V 09_00 Block9-7.txt,37,37
48,0,537.2837,1,460,1105,2857,4205,901,10.0,200,0,0,537.7184,1,1,01_04_2015 level23_spatial_F+V 09_00 Block9-7.txt,37,37
49,0,550.6623,0,730,2058,2857,4205,951,10.0,200,1,1,551.7479,1,1,01_04_2015 level23_spatial_F+V 09_00 Block9-7.txt,37,37
50,0,564.656,0,730,2058,2857,4205,551,10.0,200,1,0,565.2102,0,2,01_04_2015 level23_spatial_F+V 09_00 Block9-7.txt,37,37
51,1,575.2434,1,730,2058,2857,4205,551,10.0,200,1,1,576.5825,1,2,01_04_2015 level23_spatial_F+V 09_00 Block9-7.txt,37,37
52,0,587.0585,0,730,2058,2857,4205,851,10.0,200,1,0,587.6001,0,5,01_04_2015 level23_spatial_F+V 09_00 Block9-7.txt,37,37
53,1,598.3649,1,730,2058,2857,4205,851,10.0,200,1,1,600.4314,1,5,01_04_2015 level23_spatial_F+V 09_00 Block9-7.txt,37,37
54,0,611.4439,0,730,2058,2857,4205,701,10.0,200,1,1,612.313,1,4,01_04_2015 level23_spatial_F+V 09_00 Block9-7.txt,37,37
55,0,619.5862,0,460,1105,2857,4205,651,10.0,200,0,0,622.0303,1,2,01_04_2015 level23_spatial_F+V 09_00 Block9-7.txt,37,37
56,0,627.7914,0,460,1105,2857,4205,651,10.0,200,0,0,628.2442,1,5,01_04_2015 level23_spatial_F+V 09_00 Block9-7.txt,37,37
57,0,633.4839,0,730,2058,2857,4205,801,10.0,200,1,1,634.407,1,0,01_04_2015 level23_spatial_F+V 09_00 Block9-7.txt,37,37
58,0,647.8131,0,460,1105,2857,4205,701,10.0,200,0,0,648.1634,1,4,01_04_2015 level23_spatial_F+V 09_00 Block9-7.txt,37,37
59,0,653.5273,0,460,1105,2857,4205,551,10.0,200,0,0,653.9695,1,2,01_04_2015 level23_spatial_F+V 09_00 Block9-7.txt,37,37
60,0,669.2322,1,730,2058,2857,4205,1001,10.0,200,1,0,670.5267,0,0,01_04_2015 level23_spatial_F+V 09_00 Block9-7.txt,37,37
61,1,683.964,0,730,2058,2857,4205,1001,10.0,200,1,1,684.7321,1,0,01_04_2015 level23_spatial_F+V 09_00 Block9-7.txt,37,37
62,0,693.9811,0,730,2058,2857,4205,751,10.0,200,1,1,695.0377,1,5,01_04_2015 level23_spatial_F+V 09_00 Block9-7.txt,37,37
63,0,706.1252,0,730,2058,2857,4205,951,10.0,200,1,0,706.6594,0,3,01_04_2015 level23_spatial_F+V 09_00 Block9-7.txt,37,37
64,1,718.8681,0,730,2058,2857,4205,951,10.0,200,1,0,719.4715,0,3,01_04_2015 level23_spatial_F+V 09_00 Block9-7.txt,37,37
65,1,755.5561,0,730,2058,2857,4205,951,10.0,200,1,0,756.3638,0,3,01_04_2015 level23_spatial_F+V 09_00 Block9-7.txt,37,37
1,0,16.347,1,460,1105,2857,4205,851,-5.0,200,0,0,19.9936,1,4,14_03_2014 level23_spatial_F+V 09_25 Block4-45.txt,37,37
2,0,27.5091,0,730,2058,2857,4205,901,-5.0,200,1,1,27.7695,1,0,14_03_2014 level23_spatial_F+V 09_25 Block4-45.txt,37,37
3,0,34.3457,0,460,1105,2857,4205,951,-5.0,200,0,0,35.3277,1,4,14_03_2014 level23_spatial_F+V 09_25 Block4-45.txt,37,37
4,0,42.9892,0,730,2058,2857,4205,701,-5.0,200,1,1,43.4284,1,3,14_03_2014 level23_spatial_F+V 09_25 Block4-45.txt,37,37
5,0,47.6885,0,460,1105,2857,4205,601,-5.0,200,0,1,59.1403,0,5,14_03_2014 level23_spatial_F+V 09_25 Block4-45.txt,37,37
6,1,67.9585,0,460,1105,2857,4205,601,-5.0,200,0,1,68.7515,0,5,14_03_2014 level23_spatial_F+V 09_25 Block4-45.txt,37,37
7,1,79.1279,0,460,1105,2857,4205,601,-5.0,200,0,1,79.9986,0,5,14_03_2014 level23_spatial_F+V 09_25 Block4-45.txt,37,37
8,1,86.9269,0,460,1105,2857,4205,601,-5.0,200,0,0,87.7841,1,5,14_03_2014 level23_spatial_F+V 09_25 Block4-45.txt,37,37
9,0,93.5341,0,460,1105,2857,4205,551,-5.0,200,0,0,94.6688,1,0,14_03_2014 level23_spatial_F+V 09_25 Block4-45.txt,37,37
10,0,101.7687,0,730,2058,2857,4205,801,-5.0,200,1,1,101.9143,1,1,14_03_2014 level23_spatial_F+V 09_25 Block4-45.txt,37,37
11,0,106.8419,0,730,2058,2857,4205,651,-5.0,200,1,1,107.5912,1,5,14_03_2014 level23_spatial_F+V 09_25 Block4-45.txt,37,37
12,0,113.8068,0,460,1105,2857,4205,751,-5.0,200,0,0,114.2797,1,2,14_03_2014 level23_spatial_F+V 09_25 Block4-45.txt,37,37
13,0,121.1551,0,460,1105,2857,4205,501,-5.0,200,0,0,121.8797,1,2,14_03_2014 level23_spatial_F+V 09_25 Block4-45.txt,37,37
14,0,128.7032,0,460,1105,2857,4205,951,-5.0,200,0,0,129.608,1,5,14_03_2014 level23_spatial_F+V 09_25 Block4-45.txt,37,37
15,0,136.5554,0,730,2058,2857,4205,651,-5.0,200,1,1,136.9341,1,1,14_03_2014 level23_spatial_F+V 09_25 Block4-45.txt,37,37
16,0,142.061,0,460,1105,2857,4205,851,-5.0,200,0,0,142.8089,1,1,14_03_2014 level23_spatial_F+V 09_25 Block4-45.txt,37,37
17,0,152.2282,0,460,1105,2857,4205,801,-5.0,200,0,1,152.447,0,3,14_03_2014 level23_spatial_F+V 09_25 Block4-45.txt,37,37
18,1,162.1856,0,460,1105,2857,4205,801,-5.0,200,0,0,163.2133,1,3,14_03_2014 level23_spatial_F+V 09_25 Block4-45.txt,37,37
19,0,169.3102,0,730,2058,2857,4205,501,-5.0,200,1,1,169.8773,1,3,14_03_2014 level23_spatial_F+V 09_25 Block4-45.txt,37,37
20,0,175.5981,1,730,2058,2857,4205,551,-5.0,200,1,1,176.2854,1,4,14_03_2014 level23_spatial_F+V 09_25 Block4-45.txt,37,37
21,0,182.4844,0,460,1105,2857,4205,751,-5.0,200,0,1,185.7927,0,3,14_03_2014 level23_spatial_F+V 09_25 Block4-45.txt,37,37
22,1,194.1589,0,460,1105,2857,4205,751,-5.0,200,0,1,194.7124,0,3,14_03_2014 level23_spatial_F+V 09_25 Block4-45.txt,37,37
23,1,200.6261,0,460,1105,2857,4205,751,-5.0,200,0,0,201.4642,1,3,14_03_2014 level23_spatial_F+V 09_25 Block4-45.txt,37,37
24,0,213.2727,0,460,1105,2857,4205,1001,-5.0,200,0,1,213.4747,0,1,14_03_2014 level23_spatial_F+V 09_25 Block4-45.txt,37,37
25,1,220.6012,0,460,1105,2857,4205,1001,-5.0,200,0,0,222.9551,1,1,14_03_2014 level23_spatial_F+V 09_25 Block4-45.txt,37,37
26,0,229.5324,0,730,2058,2857,4205,601,-5.0,200,1,1,229.8955,1,2,14_03_2014 level23_spatial_F+V 09_25 Block4-45.txt,37,37
27,0,235.3561,0,460,1105,2857,4205,901,-5.0,200,0,0,241.3812,1,4,14_03_2014 level23_spatial_F+V 09_25 Block4-45.txt,37,37
28,0,248.352,0,460,1105,2857,4205,801,-5.0,200,0,1,248.5961,0,1,14_03_2014 level23_spatial_F+V 09_25 Block4-45.txt,37,37
29,1,255.6111,0,460,1105,2857,4205,801,-5.0,200,0,1,267.1366,0,1,14_03_2014 level23_spatial_F+V 09_25 Block4-45.txt,37,37
30,1,275.9301,0,460,1105,2857,4205,801,-5.0,200,0,0,279.3777,1,1,14_03_2014 level23_spatial_F+V 09_25 Block4-45.txt,37,37
31,0,288.27,0,730,2058,2857,4205,551,-5.0,200,1,1,288.8727,1,5,14_03_2014 level23_spatial_F+V 09_25 Block4-45.txt,37,37
32,0,294.6832,0,730,2058,2857,4205,951,-5.0,200,1,1,294.8514,1,3,14_03_2014 level23_spatial_F+V 09_25 Block4-45.txt,37,37
33,0,302.569,1,460,1105,2857,4205,751,-5.0,200,0,0,303.8593,1,5,14_03_2014 level23_spatial_F+V 09_25 Block4-45.txt,37,37
34,0,311.3253,0,460,1105,2857,4205,501,-5.0,200,0,1,313.7907,0,2,14_03_2014 level23_spatial_F+V 09_25 Block4-45.txt,37,37
35,1,320.1671,0,460,1105,2857,4205,501,-5.0,200,0,0,322.6835,1,2,14_03_2014 level23_spatial_F+V 09_25 Block4-45.txt,37,37
36,0,331.1539,0,730,2058,2857,4205,651,-5.0,200,1,1,331.778,1,0,14_03_2014 level23_spatial_F+V 09_25 Block4-45.txt,37,37
37,0,337.1563,0,730,2058,2857,4205,851,-5.0,200,1,1,337.5056,1,2,14_03_2014 level23_spatial_F+V 09_25 Block4-45.txt,37,37
38,0,344.0481,0,730,2058,2857,4205,701,-5.0,200,1,1,344.1829,1,1,14_03_2014 level23_spatial_F+V 09_25 Block4-45.txt,37,37
39,0,349.5857,0,730,2058,2857,4205,601,-5.0,200,1,1,350.0185,1,2,14_03_2014 level23_spatial_F+V 09_25 Block4-45.txt,37,37
40,0,356.7957,0,730,2058,2857,4205,1001,-5.0,200,1,0,357.3827,0,4,14_03_2014 level23_spatial_F+V 09_25 Block4-45.txt,37,37
41,1,363.5738,0,730,2058,2857,4205,1001,-5.0,200,1,1,364.5128,1,4,14_03_2014 level23_spatial_F+V 09_25 Block4-45.txt,37,37
42,0,371.763,0,460,1105,2857,4205,701,-5.0,200,0,1,372.7732,0,0,14_03_2014 level23_spatial_F+V 09_25 Block4-45.txt,37,37
43,1,378.7817,0,460,1105,2857,4205,701,-5.0,200,0,0,379.3456,1,0,14_03_2014 level23_spatial_F+V 09_25 Block4-45.txt,37,37
44,0,387.2896,0,460,1105,2857,4205,851,-5.0,200,0,1,387.4571,0,0,14_03_2014 level23_spatial_F+V 09_25 Block4-45.txt,37,37
45,1,394.4978,0,460,1105,2857,4205,851,-5.0,200,0,0,396.7235,1,0,14_03_2014 level23_spatial_F+V 09_25 Block4-45.txt,37,37
46,0,405.4324,0,460,1105,2857,4205,951,-5.0,200,0,0,405.8644,1,3,14_03_2014 level23_spatial_F+V 09_25 Block4-45.txt,37,37
47,0,412.4261,0,730,2058,2857,4205,651,-5.0,200,1,1,413.0505,1,4,14_03_2014 level23_spatial_F+V 09_25 Block4-45.txt,37,37
48,0,418.6252,0,730,2058,2857,4205,551,-5.0,200,1,1,419.2566,1,0,14_03_2014 level23_spatial_F+V 09_25 Block4-45.txt,37,37
49,0,425.1093,0,730,2058,2857,4205,1001,-5.0,200,1,1,425.5682,1,5,14_03_2014 level23_spatial_F+V 09_25 Block4-45.txt,37,37
50,0,433.1646,0,730,2058,2857,4205,601,-5.0,200,1,1,433.6844,1,1,14_03_2014 level23_spatial_F+V 09_25 Block4-45.txt,37,37
51,0,444.9392,0,460,1105,2857,4205,501,-5.0,200,0,0,446.1556,1,3,14_03_2014 level23_spatial_F+V 09_25 Block4-45.txt,37,37
52,0,454.778,0,460,1105,2857,4205,901,-5.0,200,0,0,455.7975,1,3,14_03_2014 level23_spatial_F+V 09_25 Block4-45.txt,37,37
53,0,463.2655,0,730,2058,2857,4205,801,-5.0,200,1,1,463.7997,1,4,14_03_2014 level23_spatial_F+V 09_25 Block4-45.txt,37,37
54,0,468.3363,0,730,2058,2857,4205,1001,-5.0,200,1,1,468.4549,1,0,14_03_2014 level23_spatial_F+V 09_25 Block4-45.txt,37,37
55,0,474.4762,0,460,1105,2857,4205,651,-5.0,200,0,1,475.3795,0,3,14_03_2014 level23_spatial_F+V 09_25 Block4-45.txt,37,37
56,1,484.5779,1,460,1105,2857,4205,651,-5.0,200,0,0,485.3284,1,3,14_03_2014 level23_spatial_F+V 09_25 Block4-45.txt,37,37
57,0,491.0292,0,460,1105,2857,4205,551,-5.0,200,0,1,494.7782,0,2,14_03_2014 level23_spatial_F+V 09_25 Block4-45.txt,37,37
58,1,502.8104,1,460,1105,2857,4205,551,-5.0,200,0,0,503.3608,1,2,14_03_2014 level23_spatial_F+V 09_25 Block4-45.txt,37,37
59,0,509.9502,0,460,1105,2857,4205,751,-5.0,200,0,1,514.8964,0,1,14_03_2014 level23_spatial_F+V 09_25 Block4-45.txt,37,37
60,1,522.2382,0,460,1105,2857,4205,751,-5.0,200,0,0,524.0274,1,1,14_03_2014 level23_spatial_F+V 09_25 Block4-45.txt,37,37
61,0,531.7852,1,460,1105,2857,4205,701,-5.0,200,0,0,533.5199,1,1,14_03_2014 level23_spatial_F+V 09_25 Block4-45.txt,37,37
62,0,542.208,0,730,2058,2857,4205,901,-5.0,200,1,1,545.128,1,2,14_03_2014 level23_spatial_F+V 09_25 Block4-45.txt,37,37
63,0,549.4753,0,460,1105,2857,4205,951,-5.0,200,0,1,549.7842,0,2,14_03_2014 level23_spatial_F+V 09_25 Block4-45.txt,37,37
64,1,556.0807,0,460,1105,2857,4205,951,-5.0,200,0,0,556.3773,1,2,14_03_2014 level23_spatial_F+V 09_25 Block4-45.txt,37,37
65,0,563.2392,0,460,1105,2857,4205,501,-5.0,200,0,0,567.5272,1,2,14_03_2014 level23_spatial_F+V 09_25 Block4-45.txt,37,37
66,0,575.1317,0,730,2058,2857,4205,601,-5.0,200,1,1,575.8694,1,3,14_03_2014 level23_spatial_F+V 09_25 Block4-45.txt,37,37
67,0,581.4317,0,730,2058,2857,4205,851,-5.0,200,1,1,581.8542,1,1,14_03_2014 level23_spatial_F+V 09_25 Block4-45.txt,37,37
68,0,596.2077,0,730,2058,2857,4205,851,-5.0,200,1,0,598.0787,0,2,14_03_2014 level23_spatial_F+V 09_25 Block4-45.txt,37,37
69,1,605.4551,0,730,2058,2857,4205,851,-5.0,200,1,1,605.9575,1,2,14_03_2014 level23_spatial_F+V 09_25 Block4-45.txt,37,37
70,0,610.5899,0,460,1105,2857,4205,1001,-5.0,200,0,0,610.9356,1,0,14_03_2014 level23_spatial_F+V 09_25 Block4-45.txt,37,37
71,0,618.0934,0,460,1105,2857,4205,701,-5.0,200,0,0,619.1388,1,5,14_03_2014 level23_spatial_F+V 09_25 Block4-45.txt,37,37
72,0,624.7918,1,460,1105,2857,4205,751,-5.0,200,0,0,626.2514,1,0,14_03_2014 level23_spatial_F+V 09_25 Block4-45.txt,37,37
73,0,634.096,0,460,1105,2857,4205,651,-5.0,200,0,1,638.7134,0,1,14_03_2014 level23_spatial_F+V 09_25 Block4-45.txt,37,37
74,1,646.3321,0,460,1105,2857,4205,651,-5.0,200,0,0,647.3903,1,1,14_03_2014 level23_spatial_F+V 09_25 Block4-45.txt,37,37
75,0,654.2841,0,730,2058,2857,4205,601,-5.0,200,1,1,654.9525,1,5,14_03_2014 level23_spatial_F+V 09_25 Block4-45.txt,37,37
76,0,668.363,0,730,2058,2857,4205,901,-5.0,200,1,0,669.5635,0,0,14_03_2014 level23_spatial_F+V 09_25 Block4-45.txt,37,37
77,1,676.0183,0,730,2058,2857,4205,901,-5.0,200,1,1,676.4385,1,0,14_03_2014 level23_spatial_F+V 09_25 Block4-45.txt,37,37
78,0,680.7534,0,730,2058,2857,4205,801,-5.0,200,1,1,681.0637,1,3,14_03_2014 level23_spatial_F+V 09_25 Block4-45.txt,37,37
79,0,686.3275,0,730,2058,2857,4205,501,-5.0,200,1,1,687.2846,1,5,14_03_2014 level23_spatial_F+V 09_25 Block4-45.txt,37,37
80,0,691.8126,0,730,2058,2857,4205,551,-5.0,200,1,1,692.3457,1,2,14_03_2014 level23_spatial_F+V 09_25 Block4-45.txt,37,37
81,0,697.7217,0,460,1105,2857,4205,801,-5.0,200,0,0,699.0108,1,5,14_03_2014 level23_spatial_F+V 09_25 Block4-45.txt,37,37
82,0,705.6005,0,460,1105,2857,4205,951,-5.0,200,0,1,706.2391,0,4,14_03_2014 level23_spatial_F+V 09_25 Block4-45.txt,37,37
83,1,713.5856,0,460,1105,2857,4205,951,-5.0,200,0,0,714.8235,1,4,14_03_2014 level23_spatial_F+V 09_25 Block4-45.txt,37,37
84,0,722.3467,0,730,2058,2857,4205,601,-5.0,200,1,1,723.0024,1,1,14_03_2014 level23_spatial_F+V 09_25 Block4-45.txt,37,37
85,0,727.4613,0,730,2058,2857,4205,901,-5.0,200,1,1,728.0019,1,3,14_03_2014 level23_spatial_F+V 09_25 Block4-45.txt,37,37
86,0,732.6569,0,730,2058,2857,4205,701,-5.0,200,1,1,733.3275,1,5,14_03_2014 level23_spatial_F+V 09_25 Block4-45.txt,37,37
87,0,737.3397,0,460,1105,2857,4205,551,-5.0,200,0,0,739.1914,1,0,14_03_2014 level23_spatial_F+V 09_25 Block4-45.txt,37,37
88,0,747.6598,0,460,1105,2857,4205,851,-5.0,200,0,1,748.2665,0,4,14_03_2014 level23_spatial_F+V 09_25 Block4-45.txt,37,37
89,1,756.9562,0,460,1105,2857,4205,851,-5.0,200,0,0,757.9769,1,4,14_03_2014 level23_spatial_F+V 09_25 Block4-45.txt,37,37
90,0,766.1638,0,460,1105,2857,4205,1001,-5.0,200,0,1,766.5453,0,4,14_03_2014 level23_spatial_F+V 09_25 Block4-45.txt,37,37
91,1,774.586,0,460,1105,2857,4205,1001,-5.0,200,0,0,775.669,1,4,14_03_2014 level23_spatial_F+V 09_25 Block4-45.txt,37,37
92,0,782.9256,0,460,1105,2857,4205,651,-5.0,200,0,0,784.8696,1,5,14_03_2014 level23_spatial_F+V 09_25 Block4-45.txt,37,37
93,0,792.6688,0,730,2058,2857,4205,751,-5.0,200,1,1,793.245,1,0,14_03_2014 level23_spatial_F+V 09_25 Block4-45.txt,37,37
94,0,797.5185,0,730,2058,2857,4205,851,-5.0,200,1,1,797.7081,1,4,14_03_2014 level23_spatial_F+V 09_25 Block4-45.txt,37,37
95,0,802.6754,0,730,2058,2857,4205,701,-5.0,200,1,1,803.1128,1,4,14_03_2014 level23_spatial_F+V 09_25 Block4-45.txt,37,37
96,0,807.5254,0,460,1105,2857,4205,501,-5.0,200,0,0,809.3939,1,5,14_03_2014 level23_spatial_F+V 09_25 Block4-45.txt,37,37
97,0,818.2745,0,730,2058,2857,4205,601,-5.0,200,1,1,818.8998,1,0,14_03_2014 level23_spatial_F+V 09_25 Block4-45.txt,37,37
98,0,823.9342,0,460,1105,2857,4205,801,-5.0,200,0,1,824.3827,0,2,14_03_2014 level23_spatial_F+V 09_25 Block4-45.txt,37,37
99,1,831.8129,0,460,1105,2857,4205,801,-5.0,200,0,0,832.6835,1,2,14_03_2014 level23_spatial_F+V 09_25 Block4-45.txt,37,37
100,0,838.5774,0,460,1105,2857,4205,751,-5.0,200,0,0,839.5605,1,1,14_03_2014 level23_spatial_F+V 09_25 Block4-45.txt,37,37
101,0,847.1521,0,730,2058,2857,4205,651,-5.0,200,1,1,847.9056,1,1,14_03_2014 level23_spatial_F+V 09_25 Block4-45.txt,37,37
102,0,852.1931,0,730,2058,2857,4205,551,-5.0,200,1,1,852.6043,1,0,14_03_2014 level23_spatial_F+V 09_25 Block4-45.txt,37,37
103,0,857.8019,0,460,1105,2857,4205,901,-5.0,200,0,1,858.2673,0,3,14_03_2014 level23_spatial_F+V 09_25 Block4-45.txt,37,37
104,1,865.4991,0,460,1105,2857,4205,901,-5.0,200,0,0,866.2583,1,3,14_03_2014 level23_spatial_F+V 09_25 Block4-45.txt,37,37
105,0,871.6723,0,730,2058,2857,4205,951,-5.0,200,1,1,871.881,1,0,14_03_2014 level23_spatial_F+V 09_25 Block4-45.txt,37,37
106,0,877.0024,0,460,1105,2857,4205,751,-5.0,200,0,1,877.446,0,1,14_03_2014 level23_spatial_F+V 09_25 Block4-45.txt,37,37
107,1,885.3323,0,460,1105,2857,4205,751,-5.0,200,0,0,887.7658,1,1,14_03_2014 level23_spatial_F+V 09_25 Block4-45.txt,37,37
108,0,895.4686,0,730,2058,2857,4205,701,-5.0,200,1,1,895.8236,1,3,14_03_2014 level23_spatial_F+V 09_25 Block4-45.txt,37,37
109,0,900.5788,0,730,2058,2857,4205,801,-5.0,200,1,1,901.224,1,5,14_03_2014 level23_spatial_F+V 09_25 Block4-45.txt,37,37
110,0,904.5085,0,460,1105,2857,4205,501,-5.0,200,0,1,904.8161,0,3,14_03_2014 level23_spatial_F+V 09_25 Block4-45.txt,37,37
111,1,911.0378,0,460,1105,2857,4205,501,-5.0,200,0,0,912.5962,1,3,14_03_2014 level23_spatial_F+V 09_25 Block4-45.txt,37,37
112,0,921.0334,0,460,1105,2857,4205,551,-5.0,200,0,1,921.3976,0,0,14_03_2014 level23_spatial_F+V 09_25 Block4-45.txt,37,37
113,1,931.2169,0,460,1105,2857,4205,551,-5.0,200,0,0,932.7672,1,0,14_03_2014 level23_spatial_F+V 09_25 Block4-45.txt,37,37
114,0,940.7658,0,460,1105,2857,4205,601,-5.0,200,0,1,942.0313,0,2,14_03_2014 level23_spatial_F+V 09_25 Block4-45.txt,37,37
115,1,949.267,0,460,1105,2857,4205,601,-5.0,200,0,0,950.2548,1,2,14_03_2014 level23_spatial_F+V 09_25 Block4-45.txt,37,37
116,0,958.1922,0,460,1105,2857,4205,651,-5.0,200,0,1,959.181,0,0,14_03_2014 level23_spatial_F+V 09_25 Block4-45.txt,37,37
117,1,972.0114,0,460,1105,2857,4205,651,-5.0,200,0,1,973.0798,0,0,14_03_2014 level23_spatial_F+V 09_25 Block4-45.txt,37,37
118,1,980.4729,1,460,1105,2857,4205,651,-5.0,200,0,0,982.9463,1,0,14_03_2014 level23_spatial_F+V 09_25 Block4-45.txt,37,37
119,0,990.2898,0,460,1105,2857,4205,851,-5.0,200,0,1,993.6304,0,4,14_03_2014 level23_spatial_F+V 09_25 Block4-45.txt,37,37
120,1,1005.7943,0,460,1105,2857,4205,851,-5.0,200,0,0,1006.7535,1,4,14_03_2014 level23_spatial_F+V 09_25 Block4-45.txt,37,37
121,0,1013.6104,0,730,2058,2857,4205,1001,-5.0,200,1,1,1014.3801,1,4,14_03_2014 level23_spatial_F+V 09_25 Block4-45.txt,37,37
122,0,1018.2844,1,460,1105,2857,4205,901,-5.0,200,0,1,1018.6658,0,3,14_03_2014 level23_spatial_F+V 09_25 Block4-45.txt,37,37
123,1,1029.5259,0,460,1105,2857,4205,901,-5.0,200,0,0,1030.7491,1,3,14_03_2014 level23_spatial_F+V 09_25 Block4-45.txt,37,37
124,0,1036.6076,0,460,1105,2857,4205,601,-5.0,200,0,1,1037.4901,0,2,14_03_2014 level23_spatial_F+V 09_25 Block4-45.txt,37,37
125,1,1044.109,0,460,1105,2857,4205,601,-5.0,200,0,0,1045.25,1,2,14_03_2014 level23_spatial_F+V 09_25 Block4-45.txt,37,37
126,0,1051.757,0,730,2058,2857,4205,751,-5.0,200,1,0,1053.7986,0,3,14_03_2014 level23_spatial_F+V 09_25 Block4-45.txt,37,37
127,1,1062.0256,0,730,2058,2857,4205,751,-5.0,200,1,1,1063.1197,1,3,14_03_2014 level23_spatial_F+V 09_25 Block4-45.txt,37,37
128,0,1068.248,1,730,2058,2857,4205,1001,-5.0,200,1,1,1068.5617,1,2,14_03_2014 level23_spatial_F+V 09_25 Block4-45.txt,37,37
129,0,1073.8027,0,460,1105,2857,4205,901,-5.0,200,0,1,1078.1274,0,0,14_03_2014 level23_spatial_F+V 09_25 Block4-45.txt,37,37
130,1,1088.1573,0,460,1105,2857,4205,901,-5.0,200,0,0,1089.4873,1,0,14_03_2014 level23_spatial_F+V 09_25 Block4-45.txt,37,37
131,0,1096.3234,0,730,2058,2857,4205,801,-5.0,200,1,1,1096.573,1,1,14_03_2014 level23_spatial_F+V 09_25 Block4-45.txt,37,37
132,0,1101.8489,0,730,2058,2857,4205,701,-5.0,200,1,1,1102.6658,1,4,14_03_2014 level23_spatial_F+V 09_25 Block4-45.txt,37,37
133,0,1107.5269,0,460,1105,2857,4205,951,-5.0,200,0,1,1108.3259,0,5,14_03_2014 level23_spatial_F+V 09_25 Block4-45.txt,37,37
134,1,1115.9275,0,460,1105,2857,4205,951,-5.0,200,0,0,1117.285,1,5,14_03_2014 level23_spatial_F+V 09_25 Block4-45.txt,37,37
135,0,1125.611,0,460,1105,2857,4205,851,-5.0,200,0,0,1126.5006,1,1,14_03_2014 level23_spatial_F+V 09_25 Block4-45.txt,37,37
136,0,1133.2402,0,730,2058,2857,4205,651,-5.0,200,1,1,1133.9292,1,4,14_03_2014 level23_spatial_F+V 09_25 Block4-45.txt,37,37
137,0,1137.7724,0,730,2058,2857,4205,551,-5.0,200,1,1,1138.1606,1,1,14_03_2014 level23_spatial_F+V 09_25 Block4-45.txt,37,37
138,0,1143.8994,0,460,1105,2857,4205,851,-5.0,200,0,0,1145.9551,1,4,14_03_2014 level23_spatial_F+V 09_25 Block4-45.txt,37,37
139,0,1153.8175,1,730,2058,2857,4205,651,-5.0,200,1,1,1154.2385,1,2,14_03_2014 level23_spatial_F+V 09_25 Block4-45.txt,37,37
140,0,1159.5495,0,460,1105,2857,4205,751,-5.0,200,0,0,1165.5972,1,4,14_03_2014 level23_spatial_F+V 09_25 Block4-45.txt,37,37
141,0,1173.5043,0,730,2058,2857,4205,1001,-5.0,200,1,1,1173.873,1,2,14_03_2014 level23_spatial_F+V 09_25 Block4-45.txt,37,37
142,0,1177.6845,0,730,2058,2857,4205,601,-5.0,200,1,1,1178.2138,1,5,14_03_2014 level23_spatial_F+V 09_25 Block4-45.txt,37,37
143,0,1183.5635,0,730,2058,2857,4205,901,-5.0,200,1,1,1183.9757,1,3,14_03_2014 level23_spatial_F+V 09_25 Block4-45.txt,37,37
144,0,1189.1715,0,730,2058,2857,4205,951,-5.0,200,1,1,1189.7738,1,5,14_03_2014 level23_spatial_F+V 09_25 Block4-45.txt,37,37
145,0,1198.6412,0,460,1105,2857,4205,501,-5.0,200,0,0,1199.7798,1,5,14_03_2014 level23_spatial_F+V 09_25 Block4-45.txt,37,37
146,0,1205.6057,0,460,1105,2857,4205,701,-5.0,200,0,0,1208.593,1,1,14_03_2014 level23_spatial_F+V 09_25 Block4-45.txt,37,37
147,0,1216.1189,0,460,1105,2857,4205,551,-5.0,200,0,0,1218.27,1,5,14_03_2014 level23_spatial_F+V 09_25 Block4-45.txt,37,37
148,0,1223.6912,0,460,1105,2857,4205,1001,-5.0,200,0,0,1225.1694,1,4,14_03_2014 level23_spatial_F+V 09_25 Block4-45.txt,37,37
149,0,1232.5238,0,730,2058,2857,4205,801,-5.0,200,1,1,1232.7635,1,1,14_03_2014 level23_spatial_F+V 09_25 Block4-45.txt,37,37
150,0,1238.2336,0,460,1105,2857,4205,601,-5.0,200,0,1,1238.9519,0,0,14_03_2014 level23_spatial_F+V 09_25 Block4-45.txt,37,37
151,1,1246.6311,0,460,1105,2857,4205,601,-5.0,200,0,0,1248.6388,1,0,14_03_2014 level23_spatial_F+V 09_25 Block4-45.txt,37,37
152,0,1256.0673,0,730,2058,2857,4205,701,-5.0,200,1,1,1256.4002,1,3,14_03_2014 level23_spatial_F+V 09_25 Block4-45.txt,37,37
153,0,1260.4874,0,460,1105,2857,4205,651,-5.0,200,0,0,1262.4744,1,5,14_03_2014 level23_spatial_F+V 09_25 Block4-45.txt,37,37
154,0,1268.9208,0,460,1105,2857,4205,551,-5.0,200,0,0,1270.9175,1,4,14_03_2014 level23_spatial_F+V 09_25 Block4-45.txt,37,37
155,0,1277.326,0,730,2058,2857,4205,851,-5.0,200,1,1,1277.6046,1,3,14_03_2014 level23_spatial_F+V 09_25 Block4-45.txt,37,37
156,0,1281.936,0,460,1105,2857,4205,751,-5.0,200,0,1,1282.3401,0,1,14_03_2014 level23_spatial_F+V 09_25 Block4-45.txt,37,37
157,1,1288.9208,0,460,1105,2857,4205,751,-5.0,200,0,0,1290.7201,1,1,14_03_2014 level23_spatial_F+V 09_25 Block4-45.txt,37,37
158,0,1298.0378,0,730,2058,2857,4205,501,-5.0,200,1,1,1298.7421,1,4,14_03_2014 level23_spatial_F+V 09_25 Block4-45.txt,37,37
159,0,1308.8639,0,730,2058,2857,4205,951,-5.0,200,1,0,1309.9267,0,3,14_03_2014 level23_spatial_F+V 09_25 Block4-45.txt,37,37
160,1,1319.2994,0,730,2058,2857,4205,951,-5.0,200,1,1,1319.6056,1,3,14_03_2014 level23_spatial_F+V 09_25 Block4-45.txt,37,37
161,0,1324.2309,0,460,1105,2857,4205,501,-5.0,200,0,1,1324.9071,0,3,14_03_2014 level23_spatial_F+V 09_25 Block4-45.txt,37,37
162,1,1333.1925,0,460,1105,2857,4205,501,-5.0,200,0,0,1334.3551,1,3,14_03_2014 level23_spatial_F+V 09_25 Block4-45.txt,37,37
163,0,1340.6926,0,730,2058,2857,4205,851,-5.0,200,1,1,1341.0197,1,0,14_03_2014 level23_spatial_F+V 09_25 Block4-45.txt,37,37
164,0,1345.683,0,460,1105,2857,4205,951,-5.0,200,0,1,1346.0534,0,2,14_03_2014 level23_spatial_F+V 09_25 Block4-45.txt,37,37
165,1,1360.398,0,460,1105,2857,4205,951,-5.0,200,0,0,1361.0839,1,2,14_03_2014 level23_spatial_F+V 09_25 Block4-45.txt,37,37
166,0,1368.1362,0,460,1105,2857,4205,651,-5.0,200,0,1,1368.3453,0,0,14_03_2014 level23_spatial_F+V 09_25 Block4-45.txt,37,37
167,1,1391.8532,0,460,1105,2857,4205,651,-5.0,200,0,1,1392.2741,0,0,14_03_2014 level23_spatial_F+V 09_25 Block4-45.txt,37,37
1,0,6.8804,0,460,1105,2857,4205,601,10.0,200,0,0,7.3334,1,2,01_05_2015 level23_spatial_F+V 11_01 Block10-20.txt,37,37
2,0,12.3204,0,730,2058,2857,4205,901,10.0,200,1,0,12.8265,0,1,01_05_2015 level23_spatial_F+V 11_01 Block10-20.txt,37,37
3,1,22.5635,0,730,2058,2857,4205,901,10.0,200,1,1,23.2155,1,1,01_05_2015 level23_spatial_F+V 11_01 Block10-20.txt,37,37
4,0,32.7466,0,730,2058,2857,4205,801,10.0,200,1,1,33.4086,1,4,01_05_2015 level23_spatial_F+V 11_01 Block10-20.txt,37,37
5,0,45.3712,0,460,1105,2857,4205,551,10.0,200,0,0,46.0171,1,4,01_05_2015 level23_spatial_F+V 11_01 Block10-20.txt,37,37
6,0,60.2444,0,460,1105,2857,4205,951,10.0,200,0,0,60.4556,1,4,01_05_2015 level23_spatial_F+V 11_01 Block10-20.txt,37,37
7,0,73.9089,0,460,1105,2857,4205,851,10.0,200,0,1,74.6716,0,0,01_05_2015 level23_spatial_F+V 11_01 Block10-20.txt,37,37
8,1,80.94,0,460,1105,2857,4205,851,10.0,200,0,1,81.5032,0,0,01_05_2015 level23_spatial_F+V 11_01 Block10-20.txt,37,37
9,1,91.3563,0,460,1105,2857,4205,851,10.0,200,0,0,91.7621,1,0,01_05_2015 level23_spatial_F+V 11_01 Block10-20.txt,37,37
10,0,97.2849,0,460,1105,2857,4205,751,10.0,200,0,0,97.8039,1,1,01_05_2015 level23_spatial_F+V 11_01 Block10-20.txt,37,37
11,0,102.7302,0,460,1105,2857,4205,701,10.0,200,0,0,103.1095,1,1,01_05_2015 level23_spatial_F+V 11_01 Block10-20.txt,37,37
12,0,119.3626,0,730,2058,2857,4205,1001,10.0,200,1,0,119.822,0,2,01_05_2015 level23_spatial_F+V 11_01 Block10-20.txt,37,37
13,1,127.0701,0,730,2058,2857,4205,1001,10.0,200,1,1,127.6024,1,2,01_05_2015 level23_spatial_F+V 11_01 Block10-20.txt,37,37
14,0,139.1807,0,730,2058,2857,4205,651,10.0,200,1,1,139.8871,1,0,01_05_2015 level23_spatial_F+V 11_01 Block10-20.txt,37,37
15,0,165.3326,0,460,1105,2857,4205,901,10.0,200,0,0,165.7753,1,5,01_05_2015 level23_spatial_F+V 11_01 Block10-20.txt,37,37
16,0,170.898,0,730,2058,2857,4205,1001,10.0,200,1,1,172.5354,1,0,01_05_2015 level23_spatial_F+V 11_01 Block10-20.txt,37,37
17,0,181.5629,0,730,2058,2857,4205,551,10.0,200,1,0,182.0418,0,3,01_05_2015 level23_spatial_F+V 11_01 Block10-20.txt,37,37
18,1,188.6509,1,730,2058,2857,4205,551,10.0,200,1,1,189.6201,1,3,01_05_2015 level23_spatial_F+V 11_01 Block10-20.txt,37,37
19,0,204.5113,0,730,2058,2857,4205,951,10.0,200,1,1,205.0777,1,0,01_05_2015 level23_spatial_F+V 11_01 Block10-20.txt,37,37
20,0,213.7423,0,460,1105,2857,4205,501,10.0,200,0,0,214.5277,1,3,01_05_2015 level23_spatial_F+V 11_01 Block10-20.txt,37,37
21,0,224.5985,0,460,1105,2857,4205,851,10.0,200,0,0,224.8888,1,1,01_05_2015 level23_spatial_F+V 11_01 Block10-20.txt,37,37
22,0,233.0023,0,460,1105,2857,4205,651,10.0,200,0,0,233.5596,1,5,01_05_2015 level23_spatial_F+V 11_01 Block10-20.txt,37,37
23,0,239.0997,0,460,1105,2857,4205,701,10.0,200,0,0,239.5014,1,4,01_05_2015 level23_spatial_F+V 11_01 Block10-20.txt,37,37
24,0,244.8163,0,460,1105,2857,4205,801,10.0,200,0,0,245.1984,1,2,01_05_2015 level23_spatial_F+V 11_01 Block10-20.txt,37,37
25,0,250.2454,0,730,2058,2857,4205,601,10.0,200,1,0,250.6859,0,5,01_05_2015 level23_spatial_F+V 11_01 Block10-20.txt,37,37
26,1,258.3262,0,730,2058,2857,4205,601,10.0,200,1,1,259.1388,1,5,01_05_2015 level23_spatial_F+V 11_01 Block10-20.txt,37,37
27,0,273.9807,0,730,2058,2857,4205,701,10.0,200,1,1,274.7181,1,2,01_05_2015 level23_spatial_F+V 11_01 Block10-20.txt,37,37
28,0,284.3191,0,730,2058,2857,4205,501,10.0,200,1,1,285.1937,1,5,01_05_2015 level23_spatial_F+V 11_01 Block10-20.txt,37,37
29,0,302.6086,0,460,1105,2857,4205,751,10.0,200,0,0,303.0347,1,5,01_05_2015 level23_spatial_F+V 11_01 Block10-20.txt,37,37
30,0,316.2568,0,730,2058,2857,4205,1001,10.0,200,1,0,316.8393,0,5,01_05_2015 level23_spatial_F+V 11_01 Block10-20.txt,37,37
31,1,323.5864,0,730,2058,2857,4205,1001,10.0,200,1,1,324.2234,1,5,01_05_2015 level23_spatial_F+V 11_01 Block10-20.txt,37,37
32,0,336.5567,0,730,2058,2857,4205,951,10.0,200,1,1,337.8234,1,3,01_05_2015 level23_spatial_F+V 11_01 Block10-20.txt,37,37
33,0,348.7841,0,730,2058,2857,4205,601,10.0,200,1,1,349.7336,1,1,01_05_2015 level23_spatial_F+V 11_01 Block10-20.txt,37,37
34,0,368.431,0,460,1105,2857,4205,801,10.0,200,0,0,368.8424,1,2,01_05_2015 level23_spatial_F+V 11_01 Block10-20.txt,37,37
35,0,373.9958,0,730,2058,2857,4205,851,10.0,200,1,0,374.454,0,2,01_05_2015 level23_spatial_F+V 11_01 Block10-20.txt,37,37
36,1,386.2745,0,730,2058,2857,4205,851,10.0,200,1,1,386.8617,1,2,01_05_2015 level23_spatial_F+V 11_01 Block10-20.txt,37,37
37,0,406.7414,0,460,1105,2857,4205,901,10.0,200,0,0,407.151,1,3,01_05_2015 level23_spatial_F+V 11_01 Block10-20.txt,37,37
38,0,412.5396,0,460,1105,2857,4205,551,10.0,200,0,0,412.9685,1,0,01_05_2015 level23_spatial_F+V 11_01 Block10-20.txt,37,37
39,0,421.1244,0,730,2058,2857,4205,851,10.0,200,1,0,421.5603,0,4,01_05_2015 level23_spatial_F+V 11_01 Block10-20.txt,37,37
40,1,433.3201,0,730,2058,2857,4205,851,10.0,200,1,1,434.1917,1,4,01_05_2015 level23_spatial_F+V 11_01 Block10-20.txt,37,37
41,0,444.6735,0,460,1105,2857,4205,551,10.0,200,0,0,445.3336,1,0,01_05_2015 level23_spatial_F+V 11_01 Block10-20.txt,37,37
42,0,458.3522,0,730,2058,2857,4205,901,10.0,200,1,0,458.9886,0,1,01_05_2015 level23_spatial_F+V 11_01 Block10-20.txt,37,37
43,1,469.5689,0,730,2058,2857,4205,901,10.0,200,1,1,470.9718,1,1,01_05_2015 level23_spatial_F+V 11_01 Block10-20.txt,37,37
44,0,484.768,0,730,2058,2857,4205,801,10.0,200,1,0,485.2663,0,3,01_05_2015 level23_spatial_F+V 11_01 Block10-20.txt,37,37
45,1,497.7088,0,730,2058,2857,4205,801,10.0,200,1,1,498.983,1,3,01_05_2015 level23_spatial_F+V 11_01 Block10-20.txt,37,37
46,0,517.6148,0,730,2058,2857,4205,1001,10.0,200,1,1,518.2718,1,4,01_05_2015 level23_spatial_F+V 11_01 Block10-20.txt,37,37
47,0,533.0115,1,460,1105,2857,4205,701,10.0,200,0,0,533.4715,1,3,01_05_2015 level23_spatial_F+V 11_01 Block10-20.txt,37,37
48,0,553.5298,0,460,1105,2857,4205,951,10.0,200,0,0,554.7782,1,1,01_05_2015 level23_spatial_F+V 11_01 Block10-20.txt,37,37
49,0,560.6519,0,460,1105,2857,4205,751,10.0,200,0,0,561.3102,1,5,01_05_2015 level23_spatial_F+V 11_01 Block10-20.txt,37,37
50,0,566.2034,0,730,2058,2857,4205,651,10.0,200,1,0,567.0176,0,1,01_05_2015 level23_spatial_F+V 11_01 Block10-20.txt,37,37
51,1,573.9581,0,730,2058,2857,4205,651,10.0,200,1,1,574.9889,1,1,01_05_2015 level23_spatial_F+V 11_01 Block10-20.txt,37,37
52,0,585.2346,0,730,2058,2857,4205,501,10.0,200,1,0,586.332,0,4,01_05_2015 level23_spatial_F+V 11_01 Block10-20.txt,37,37
53,1,593.4823,0,730,2058,2857,4205,501,10.0,200,1,1,594.5,1,4,01_05_2015 level23_spatial_F+V 11_01 Block10-20.txt,37,37
54,0,613.1177,0,730,2058,2857,4205,801,10.0,200,1,0,613.5392,0,3,01_05_2015 level23_spatial_F+V 11_01 Block10-20.txt,37,37
55,1,623.5979,0,730,2058,2857,4205,801,10.0,200,1,1,625.1991,1,3,01_05_2015 level23_spatial_F+V 11_01 Block10-20.txt,37,37
56,0,634.7728,0,730,2058,2857,4205,501,10.0,200,1,0,635.583,0,3,01_05_2015 level23_spatial_F+V 11_01 Block10-20.txt,37,37
57,1,641.3492,0,730,2058,2857,4205,501,10.0,200,1,0,642.2995,0,3,01_05_2015 level23_spatial_F+V 11_01 Block10-20.txt,37,37
58,1,648.2239,0,730,2058,2857,4205,501,10.0,200,1,1,649.8805,1,3,01_05_2015 level23_spatial_F+V 11_01 Block10-20.txt,37,37
59,0,668.0034,0,460,1105,2857,4205,851,10.0,200,0,0,668.3758,1,3,01_05_2015 level23_spatial_F+V 11_01 Block10-20.txt,37,37
60,0,676.07,0,730,2058,2857,4205,751,10.0,200,1,0,676.4459,0,3,01_05_2015 level23_spatial_F+V 11_01 Block10-20.txt,37,37
61,1,684.9792,0,730,2058,2857,4205,751,10.0,200,1,0,685.5518,0,3,01_05_2015 level23_spatial_F+V 11_01 Block10-20.txt,37,37
62,1,694.8176,0,730,2058,2857,4205,751,10.0,200,1,1,695.7431,1,3,01_05_2015 level23_spatial_F+V 11_01 Block10-20.txt,37,37
63,0,719.7779,0,460,1105,2857,4205,1001,10.0,200,0,0,720.1771,1,3,01_05_2015 level23_spatial_F+V 11_01 Block10-20.txt,37,37
64,0,725.6204,0,460,1105,2857,4205,601,10.0,200,0,0,726.3308,1,1,01_05_2015 level23_spatial_F+V 11_01 Block10-20.txt,37,37
65,0,732.4304,0,460,1105,2857,4205,701,10.0,200,0,0,732.9756,1,2,01_05_2015 level23_spatial_F+V 11_01 Block10-20.txt,37,37
66,0,739.463,0,730,2058,2857,4205,651,10.0,200,1,0,740.1294,0,2,01_05_2015 level23_spatial_F+V 11_01 Block10-20.txt,37,37
67,1,748.9386,0,730,2058,2857,4205,651,10.0,200,1,1,749.7531,1,2,01_05_2015 level23_spatial_F+V 11_01 Block10-20.txt,37,37
68,0,772.6489,0,460,1105,2857,4205,951,10.0,200,0,0,772.8962,1,5,01_05_2015 level23_spatial_F+V 11_01 Block10-20.txt,37,37
69,0,778.5692,0,460,1105,2857,4205,551,10.0,200,0,0,779.384,1,1,01_05_2015 level23_spatial_F+V 11_01 Block10-20.txt,37,37
70,0,784.9284,0,730,2058,2857,4205,801,10.0,200,1,0,785.4362,0,2,01_05_2015 level23_spatial_F+V 11_01 Block10-20.txt,37,37
71,1,796.8058,1,730,2058,2857,4205,801,10.0,200,1,1,797.6962,1,2,01_05_2015 level23_spatial_F+V 11_01 Block10-20.txt,37,37
72,0,808.6974,0,460,1105,2857,4205,701,10.0,200,0,0,816.3144,1,5,01_05_2015 level23_spatial_F+V 11_01 Block10-20.txt,37,37
73,0,821.5858,0,730,2058,2857,4205,501,10.0,200,1,0,822.2243,0,5,01_05_2015 level23_spatial_F+V 11_01 Block10-20.txt,37,37
74,1,827.9714,1,730,2058,2857,4205,501,10.0,200,1,1,828.974,1,5,01_05_2015 level23_spatial_F+V 11_01 Block10-20.txt,37,37
75,0,843.745,1,730,2058,2857,4205,551,10.0,200,1,1,855.1307,1,2,01_05_2015 level23_spatial_F+V 11_01 Block10-20.txt,37,37
76,0,864.6335,0,730,2058,2857,4205,601,10.0,200,1,0,865.5127,0,4,01_05_2015 level23_spatial_F+V 11_01 Block10-20.txt,37,37
77,1,872.4625,0,730,2058,2857,4205,601,10.0,200,1,1,873.3179,1,4,01_05_2015 level23_spatial_F+V 11_01 Block10-20.txt,37,37
78,0,883.3998,0,730,2058,2857,4205,751,10.0,200,1,1,884.2992,1,0,01_05_2015 level23_spatial_F+V 11_01 Block10-20.txt,37,37
79,0,909.8691,0,730,2058,2857,4205,1001,10.0,200,1,0,910.2547,0,1,01_05_2015 level23_spatial_F+V 11_01 Block10-20.txt,37,37
80,1,924.9862,0,730,2058,2857,4205,1001,10.0,200,1,1,925.6589,1,1,01_05_2015 level23_spatial_F+V 11_01 Block10-20.txt,37,37
81,0,941.106,0,460,1105,2857,4205,951,10.0,200,0,0,941.609,1,4,01_05_2015 level23_spatial_F+V 11_01 Block10-20.txt,37,37
82,0,947.1246,0,730,2058,2857,4205,901,10.0,200,1,0,947.5845,0,0,01_05_2015 level23_spatial_F+V 11_01 Block10-20.txt,37,37
83,1,953.6057,0,730,2058,2857,4205,901,10.0,200,1,0,953.9654,0,0,01_05_2015 level23_spatial_F+V 11_01 Block10-20.txt,37,37
84,1,995.4414,0,730,2058,2857,4205,901,10.0,200,1,0,995.974,0,0,01_05_2015 level23_spatial_F+V 11_01 Block10-20.txt,37,37
85,1,1182.5169,0,730,2058,2857,4205,901,10.0,200,1,1,1189.6667,1,0,01_05_2015 level23_spatial_F+V 11_01 Block10-20.txt,37,37
86,0,1194.8149,0,730,2058,2857,4205,851,10.0,200,1,1,1195.7272,1,5,01_05_2015 level23_spatial_F+V 11_01 Block10-20.txt,37,37
87,0,1213.9455,0,460,1105,2857,4205,651,10.0,200,0,1,1215.6459,0,2,01_05_2015 level23_spatial_F+V 11_01 Block10-20.txt,37,37
88,1,1230.8985,0,460,1105,2857,4205,651,10.0,200,0,0,1231.5944,1,2,01_05_2015 level23_spatial_F+V 11_01 Block10-20.txt,37,37
89,0,1244.9451,0,460,1105,2857,4205,551,10.0,200,0,0,1245.7274,1,2,01_05_2015 level23_spatial_F+V 11_01 Block10-20.txt,37,37
90,0,1250.9129,0,460,1105,2857,4205,501,10.0,200,0,0,1251.6082,1,0,01_05_2015 level23_spatial_F+V 11_01 Block10-20.txt,37,37
91,0,1257.8632,0,460,1105,2857,4205,601,10.0,200,0,0,1258.5637,1,4,01_05_2015 level23_spatial_F+V 11_01 Block10-20.txt,37,37
92,0,1273.9555,0,730,2058,2857,4205,1001,10.0,200,1,1,1274.6627,1,5,01_05_2015 level23_spatial_F+V 11_01 Block10-20.txt,37,37
93,0,1287.9132,0,460,1105,2857,4205,951,10.0,200,0,0,1288.3203,1,3,01_05_2015 level23_spatial_F+V 11_01 Block10-20.txt,37,37
94,0,1293.742,0,730,2058,2857,4205,751,10.0,200,1,0,1294.3305,0,4,01_05_2015 level23_spatial_F+V 11_01 Block10-20.txt,37,37
95,1,1301.7625,0,730,2058,2857,4205,751,10.0,200,1,1,1302.4805,1,4,01_05_2015 level23_spatial_F+V 11_01 Block10-20.txt,37,37
96,0,1319.4478,0,730,2058,2857,4205,851,10.0,200,1,1,1320.4819,1,0,01_05_2015 level23_spatial_F+V 11_01 Block10-20.txt,37,37
97,0,1332.9623,0,460,1105,2857,4205,701,10.0,200,0,0,1333.379,1,4,01_05_2015 level23_spatial_F+V 11_01 Block10-20.txt,37,37
98,0,1342.4962,0,460,1105,2857,4205,901,10.0,200,0,1,1343.2211,0,0,01_05_2015 level23_spatial_F+V 11_01 Block10-20.txt,37,37
99,1,1349.9458,0,460,1105,2857,4205,901,10.0,200,0,1,1351.146,0,0,01_05_2015 level23_spatial_F+V 11_01 Block10-20.txt,37,37
100,1,1359.9621,0,460,1105,2857,4205,901,10.0,200,0,0,1361.0593,1,0,01_05_2015 level23_spatial_F+V 11_01 Block10-20.txt,37,37
101,0,1366.2377,0,460,1105,2857,4205,901,10.0,200,0,0,1366.7289,1,0,01_05_2015 level23_spatial_F+V 11_01 Block10-20.txt,37,37
102,0,1371.9835,0,730,2058,2857,4205,501,10.0,200,1,1,1374.1145,1,1,01_05_2015 level23_spatial_F+V 11_01 Block10-20.txt,37,37
103,0,1383.7233,0,730,2058,2857,4205,551,10.0,200,1,1,1384.7862,1,2,01_05_2015 level23_spatial_F+V 11_01 Block10-20.txt,37,37
104,0,1408.4663,0,460,1105,2857,4205,1001,10.0,200,0,0,1408.791,1,1,01_05_2015 level23_spatial_F+V 11_01 Block10-20.txt,37,37
105,0,1415.0982,0,730,2058,2857,4205,651,10.0,200,1,0,1415.8132,0,0,01_05_2015 level23_spatial_F+V 11_01 Block10-20.txt,37,37
106,1,1422.6815,0,730,2058,2857,4205,651,10.0,200,1,1,1423.9369,1,0,01_05_2015 level23_spatial_F+V 11_01 Block10-20.txt,37,37
107,0,1435.3403,0,730,2058,2857,4205,601,10.0,200,1,0,1435.9493,0,1,01_05_2015 level23_spatial_F+V 11_01 Block10-20.txt,37,37
108,1,1442.2306,1,730,2058,2857,4205,601,10.0,200,1,1,1443.5161,1,1,01_05_2015 level23_spatial_F+V 11_01 Block10-20.txt,37,37
109,0,1454.9271,0,460,1105,2857,4205,701,10.0,200,0,1,1461.7631,0,2,01_05_2015 level23_spatial_F+V 11_01 Block10-20.txt,37,37
110,1,1470.5268,0,460,1105,2857,4205,701,10.0,200,0,0,1471.7757,1,2,01_05_2015 level23_spatial_F+V 11_01 Block10-20.txt,37,37
111,0,1476.6652,0,730,2058,2857,4205,951,10.0,200,1,1,1480.421,1,4,01_05_2015 level23_spatial_F+V 11_01 Block10-20.txt,37,37
112,0,1490.1461,0,730,2058,2857,4205,851,10.0,200,1,0,1491.6382,0,5,01_05_2015 level23_spatial_F+V 11_01 Block10-20.txt,37,37
113,1,1500.2758,0,730,2058,2857,4205,851,10.0,200,1,0,1500.8095,0,5,01_05_2015 level23_spatial_F+V 11_01 Block10-20.txt,37,37
114,1,1508.3287,0,730,2058,2857,4205,851,10.0,200,1,0,1508.7667,0,5,01_05_2015 level23_spatial_F+V 11_01 Block10-20.txt,37,37
115,1,1516.2746,0,730,2058,2857,4205,851,10.0,200,1,0,1516.6674,0,5,01_05_2015 level23_spatial_F+V 11_01 Block10-20.txt,37,37
116,1,1524.2455,0,730,2058,2857,4205,851,10.0,200,1,1,1525.236,1,5,01_05_2015 level23_spatial_F+V 11_01 Block10-20.txt,37,37
117,0,1541.6361,0,460,1105,2857,4205,801,10.0,200,0,0,1542.0508,1,3,01_05_2015 level23_spatial_F+V 11_01 Block10-20.txt,37,37
118,0,1547.0943,0,730,2058,2857,4205,751,10.0,200,1,1,1548.0468,1,4,01_05_2015 level23_spatial_F+V 11_01 Block10-20.txt,37,37
119,0,1564.9104,0,730,2058,2857,4205,801,10.0,200,1,0,1565.2743,0,4,01_05_2015 level23_spatial_F+V 11_01 Block10-20.txt,37,37
120,1,1589.1923,0,730,2058,2857,4205,801,10.0,200,1,1,1590.2786,1,4,01_05_2015 level23_spatial_F+V 11_01 Block10-20.txt,37,37
121,0,1611.2941,0,460,1105,2857,4205,901,10.0,200,0,0,1611.6277,1,2,01_05_2015 level23_spatial_F+V 11_01 Block10-20.txt,37,37
122,0,1616.7882,0,730,2058,2857,4205,601,10.0,200,1,0,1617.3913,0,5,01_05_2015 level23_spatial_F+V 11_01 Block10-20.txt,37,37
1,0,7.7341,0,460,1105,2857,4205,801,10.0,200,0,0,8.0745,1,3,09_01_2015 level23_spatial_F+V 10_03 Block7-73.txt,37,37
2,0,28.0723,0,460,1105,2857,4205,851,10.0,200,0,0,28.4621,1,2,09_01_2015 level23_spatial_F+V 10_03 Block7-73.txt,37,37
3,0,39.4951,0,460,1105,2857,4205,1001,10.0,200,0,0,39.7324,1,2,09_01_2015 level23_spatial_F+V 10_03 Block7-73.txt,37,37
4,0,48.7931,0,460,1105,2857,4205,651,10.0,200,0,0,49.2657,1,1,09_01_2015 level23_spatial_F+V 10_03 Block7-73.txt,37,37
5,0,54.1776,0,730,2058,2857,4205,701,10.0,200,1,0,54.659,0,5,09_01_2015 level23_spatial_F+V 10_03 Block7-73.txt,37,37
6,1,65.4619,0,730,2058,2857,4205,701,10.0,200,1,1,66.1048,1,5,09_01_2015 level23_spatial_F+V 10_03 Block7-73.txt,37,37
7,0,71.4798,0,730,2058,2857,4205,551,10.0,200,1,0,72.0441,0,4,09_01_2015 level23_spatial_F+V 10_03 Block7-73.txt,37,37
8,1,79.2215,0,730,2058,2857,4205,551,10.0,200,1,0,80.0106,0,4,09_01_2015 level23_spatial_F+V 10_03 Block7-73.txt,37,37
9,1,86.3765,0,730,2058,2857,4205,551,10.0,200,1,1,87.2699,1,4,09_01_2015 level23_spatial_F+V 10_03 Block7-73.txt,37,37
10,0,93.9509,0,730,2058,2857,4205,601,10.0,200,1,0,94.2777,0,3,09_01_2015 level23_spatial_F+V 10_03 Block7-73.txt,37,37
11,1,103.9924,0,730,2058,2857,4205,601,10.0,200,1,0,104.3125,0,3,09_01_2015 level23_spatial_F+V 10_03 Block7-73.txt,37,37
12,1,110.7546,0,730,2058,2857,4205,601,10.0,200,1,1,111.1424,1,3,09_01_2015 level23_spatial_F+V 10_03 Block7-73.txt,37,37
13,0,124.0893,0,730,2058,2857,4205,951,10.0,200,1,1,124.5801,1,2,09_01_2015 level23_spatial_F+V 10_03 Block7-73.txt,37,37
14,0,136.0263,0,460,1105,2857,4205,751,10.0,200,0,0,136.1783,1,3,09_01_2015 level23_spatial_F+V 10_03 Block7-73.txt,37,37
15,0,141.9148,1,460,1105,2857,4205,501,10.0,200,0,0,142.7528,1,5,09_01_2015 level23_spatial_F+V 10_03 Block7-73.txt,37,37
16,0,148.5865,0,730,2058,2857,4205,751,10.0,200,1,0,148.8489,0,5,09_01_2015 level23_spatial_F+V 10_03 Block7-73.txt,37,37
17,1,156.5159,0,730,2058,2857,4205,751,10.0,200,1,0,157.0698,0,5,09_01_2015 level23_spatial_F+V 10_03 Block7-73.txt,37,37
18,1,167.8601,0,730,2058,2857,4205,751,10.0,200,1,1,168.709,1,5,09_01_2015 level23_spatial_F+V 10_03 Block7-73.txt,37,37
19,0,175.8208,0,730,2058,2857,4205,701,10.0,200,1,0,176.3152,0,1,09_01_2015 level23_spatial_F+V 10_03 Block7-73.txt,37,37
20,1,182.3649,0,730,2058,2857,4205,701,10.0,200,1,1,182.8144,1,1,09_01_2015 level23_spatial_F+V 10_03 Block7-73.txt,37,37
21,0,197.8687,0,730,2058,2857,4205,801,10.0,200,1,0,198.4373,0,1,09_01_2015 level23_spatial_F+V 10_03 Block7-73.txt,37,37
22,1,205.1019,0,730,2058,2857,4205,801,10.0,200,1,1,205.4432,1,1,09_01_2015 level23_spatial_F+V 10_03 Block7-73.txt,37,37
23,0,212.7077,0,730,2058,2857,4205,951,10.0,200,1,1,213.1313,1,2,09_01_2015 level23_spatial_F+V 10_03 Block7-73.txt,37,37
24,0,223.6724,1,730,2058,2857,4205,601,10.0,200,1,0,224.4148,0,0,09_01_2015 level23_spatial_F+V 10_03 Block7-73.txt,37,37
25,1,237.2634,0,730,2058,2857,4205,601,10.0,200,1,1,237.7677,1,0,09_01_2015 level23_spatial_F+V 10_03 Block7-73.txt,37,37
26,0,259.0597,0,460,1105,2857,4205,1001,10.0,200,0,0,259.2916,1,0,09_01_2015 level23_spatial_F+V 10_03 Block7-73.txt,37,37
27,0,265.2689,0,460,1105,2857,4205,851,10.0,200,0,0,265.821,1,4,09_01_2015 level23_spatial_F+V 10_03 Block7-73.txt,37,37
28,0,270.6641,1,730,2058,2857,4205,651,10.0,200,1,0,275.6877,0,3,09_01_2015 level23_spatial_F+V 10_03 Block7-73.txt,37,37
29,1,281.9547,0,730,2058,2857,4205,651,10.0,200,1,1,282.2921,1,3,09_01_2015 level23_spatial_F+V 10_03 Block7-73.txt,37,37
30,0,291.5574,0,460,1105,2857,4205,501,10.0,200,0,0,292.0779,1,1,09_01_2015 level23_spatial_F+V 10_03 Block7-73.txt,37,37
31,0,297.6202,0,730,2058,2857,4205,901,10.0,200,1,1,298.5666,1,4,09_01_2015 level23_spatial_F+V 10_03 Block7-73.txt,37,37
32,0,301.8472,0,460,1105,2857,4205,501,10.0,200,0,0,302.231,1,3,09_01_2015 level23_spatial_F+V 10_03 Block7-73.txt,37,37
33,0,313.1608,0,730,2058,2857,4205,951,10.0,200,1,0,313.3932,0,5,09_01_2015 level23_spatial_F+V 10_03 Block7-73.txt,37,37
34,1,336.7459,0,730,2058,2857,4205,951,10.0,200,1,1,337.2265,1,5,09_01_2015 level23_spatial_F+V 10_03 Block7-73.txt,37,37
35,0,345.1087,0,460,1105,2857,4205,651,10.0,200,0,0,345.4659,1,1,09_01_2015 level23_spatial_F+V 10_03 Block7-73.txt,37,37
36,0,351.0624,0,460,1105,2857,4205,701,10.0,200,0,0,351.8528,1,5,09_01_2015 level23_spatial_F+V 10_03 Block7-73.txt,37,37
37,0,357.118,0,730,2058,2857,4205,1001,10.0,200,1,0,357.6583,0,0,09_01_2015 level23_spatial_F+V 10_03 Block7-73.txt,37,37
38,1,382.9082,0,730,2058,2857,4205,1001,10.0,200,1,1,383.5349,1,0,09_01_2015 level23_spatial_F+V 10_03 Block7-73.txt,37,37
39,0,395.931,0,730,2058,2857,4205,801,10.0,200,1,1,396.3587,1,1,09_01_2015 level23_spatial_F+V 10_03 Block7-73.txt,37,37
40,0,411.9336,0,730,2058,2857,4205,851,10.0,200,1,0,412.2015,0,2,09_01_2015 level23_spatial_F+V 10_03 Block7-73.txt,37,37
41,1,430.9093,1,730,2058,2857,4205,851,10.0,200,1,0,431.2924,0,2,09_01_2015 level23_spatial_F+V 10_03 Block7-73.txt,37,37
42,1,442.6799,0,730,2058,2857,4205,851,10.0,200,1,0,443.1865,0,2,09_01_2015 level23_spatial_F+V 10_03 Block7-73.txt,37,37
43,1,454.6618,0,730,2058,2857,4205,851,10.0,200,1,0,455.1393,0,2,09_01_2015 level23_spatial_F+V 10_03 Block7-73.txt,37,37
44,1,465.0125,0,730,2058,2857,4205,851,10.0,200,1,1,465.2533,1,2,09_01_2015 level23_spatial_F+V 10_03 Block7-73.txt,37,37
45,0,473.7743,0,460,1105,2857,4205,601,10.0,200,0,0,474.4812,1,4,09_01_2015 level23_spatial_F+V 10_03 Block7-73.txt,37,37
46,0,477.2853,0,730,2058,2857,4205,551,10.0,200,1,0,477.6675,0,3,09_01_2015 level23_spatial_F+V 10_03 Block7-73.txt,37,37
47,1,484.5004,0,730,2058,2857,4205,551,10.0,200,1,0,485.2854,0,3,09_01_2015 level23_spatial_F+V 10_03 Block7-73.txt,37,37
48,1,493.841,1,730,2058,2857,4205,551,10.0,200,1,1,498.9718,1,3,09_01_2015 level23_spatial_F+V 10_03 Block7-73.txt,37,37
49,0,513.4635,0,460,1105,2857,4205,751,10.0,200,0,0,513.9591,1,2,09_01_2015 level23_spatial_F+V 10_03 Block7-73.txt,37,37
50,0,519.3196,1,460,1105,2857,4205,851,10.0,200,0,0,519.9942,1,0,09_01_2015 level23_spatial_F+V 10_03 Block7-73.txt,37,37
51,0,526.5213,0,460,1105,2857,4205,601,10.0,200,0,0,529.4123,1,0,09_01_2015 level23_spatial_F+V 10_03 Block7-73.txt,37,37
52,0,536.0266,1,460,1105,2857,4205,1001,10.0,200,0,0,536.6551,1,4,09_01_2015 level23_spatial_F+V 10_03 Block7-73.txt,37,37
53,0,541.1244,0,730,2058,2857,4205,651,10.0,200,1,0,546.1764,0,0,09_01_2015 level23_spatial_F+V 10_03 Block7-73.txt,37,37
54,1,552.3125,0,730,2058,2857,4205,651,10.0,200,1,1,552.8001,1,0,09_01_2015 level23_spatial_F+V 10_03 Block7-73.txt,37,37
55,0,561.1898,1,730,2058,2857,4205,751,10.0,200,1,1,566.2265,1,4,09_01_2015 level23_spatial_F+V 10_03 Block7-73.txt,37,37
56,0,570.3962,0,460,1105,2857,4205,501,10.0,200,0,0,571.8369,1,5,09_01_2015 level23_spatial_F+V 10_03 Block7-73.txt,37,37
57,0,576.9065,1,730,2058,2857,4205,901,10.0,200,1,0,577.2089,0,1,09_01_2015 level23_spatial_F+V 10_03 Block7-73.txt,37,37
58,1,587.0391,1,730,2058,2857,4205,901,10.0,200,1,0,592.0275,0,1,09_01_2015 level23_spatial_F+V 10_03 Block7-73.txt,37,37
59,1,604.0043,0,730,2058,2857,4205,901,10.0,200,1,1,604.417,1,1,09_01_2015 level23_spatial_F+V 10_03 Block7-73.txt,37,37
60,0,611.7272,0,730,2058,2857,4205,551,10.0,200,1,1,612.498,1,0,09_01_2015 level23_spatial_F+V 10_03 Block7-73.txt,37,37
61,0,622.8431,0,730,2058,2857,4205,801,10.0,200,1,0,623.5852,0,0,09_01_2015 level23_spatial_F+V 10_03 Block7-73.txt,37,37
62,1,632.8922,0,730,2058,2857,4205,801,10.0,200,1,1,633.4643,1,0,09_01_2015 level23_spatial_F+V 10_03 Block7-73.txt,37,37
63,0,641.2374,0,730,2058,2857,4205,951,10.0,200,1,0,641.9703,0,3,09_01_2015 level23_spatial_F+V 10_03 Block7-73.txt,37,37
64,1,659.0061,0,730,2058,2857,4205,951,10.0,200,1,0,659.4584,0,3,09_01_2015 level23_spatial_F+V 10_03 Block7-73.txt,37,37
65,1,665.5812,0,730,2058,2857,4205,951,10.0,200,1,1,665.9601,1,3,09_01_2015 level23_spatial_F+V 10_03 Block7-73.txt,37,37
66,0,676.2492,1,460,1105,2857,4205,801,10.0,200,0,0,676.8171,1,4,09_01_2015 level23_spatial_F+V 10_03 Block7-73.txt,37,37
67,0,684.8989,0,460,1105,2857,4205,951,10.0,200,0,0,687.0322,1,1,09_01_2015 level23_spatial_F+V 10_03 Block7-73.txt,37,37
68,0,692.6735,0,460,1105,2857,4205,701,10.0,200,0,0,693.5314,1,0,09_01_2015 level23_spatial_F+V 10_03 Block7-73.txt,37,37
69,0,699.103,0,730,2058,2857,4205,651,10.0,200,1,0,699.5404,0,0,09_01_2015 level23_spatial_F+V 10_03 Block7-73.txt,37,37
70,1,705.7822,0,730,2058,2857,4205,651,10.0,200,1,1,706.301,1,0,09_01_2015 level23_spatial_F+V 10_03 Block7-73.txt,37,37
71,0,714.6928,0,730,2058,2857,4205,501,10.0,200,1,1,715.725,1,4,09_01_2015 level23_spatial_F+V 10_03 Block7-73.txt,37,37
72,0,722.2396,0,460,1105,2857,4205,551,10.0,200,0,0,722.9487,1,5,09_01_2015 level23_spatial_F+V 10_03 Block7-73.txt,37,37
73,0,728.9363,0,460,1105,2857,4205,1001,10.0,200,0,0,729.1465,1,5,09_01_2015 level23_spatial_F+V 10_03 Block7-73.txt,37,37
74,0,739.8556,1,460,1105,2857,4205,901,10.0,200,0,0,740.3328,1,1,09_01_2015 level23_spatial_F+V 10_03 Block7-73.txt,37,37
75,0,745.3594,0,460,1105,2857,4205,751,10.0,200,0,0,749.8749,1,4,09_01_2015 level23_spatial_F+V 10_03 Block7-73.txt,37,37
76,0,755.3833,0,460,1105,2857,4205,601,10.0,200,0,0,755.8599,1,3,09_01_2015 level23_spatial_F+V 10_03 Block7-73.txt,37,37
77,0,759.8594,0,730,2058,2857,4205,651,10.0,200,1,0,760.9727,0,5,09_01_2015 level23_spatial_F+V 10_03 Block7-73.txt,37,37
78,1,772.7148,1,730,2058,2857,4205,651,10.0,200,1,0,778.5968,0,5,09_01_2015 level23_spatial_F+V 10_03 Block7-73.txt,37,37
79,1,786.0153,0,730,2058,2857,4205,651,10.0,200,1,0,786.6681,0,5,09_01_2015 level23_spatial_F+V 10_03 Block7-73.txt,37,37
80,1,796.5646,0,730,2058,2857,4205,651,10.0,200,1,1,797.5829,1,5,09_01_2015 level23_spatial_F+V 10_03 Block7-73.txt,37,37
81,0,806.4123,0,730,2058,2857,4205,951,10.0,200,1,0,807.3315,0,1,09_01_2015 level23_spatial_F+V 10_03 Block7-73.txt,37,37
82,1,814.4243,0,730,2058,2857,4205,951,10.0,200,1,1,815.2628,1,1,09_01_2015 level23_spatial_F+V 10_03 Block7-73.txt,37,37
83,0,823.0624,0,460,1105,2857,4205,701,10.0,200,0,0,823.4994,1,3,09_01_2015 level23_spatial_F+V 10_03 Block7-73.txt,37,37
84,0,830.6123,1,730,2058,2857,4205,501,10.0,200,1,1,832.9732,1,4,09_01_2015 level23_spatial_F+V 10_03 Block7-73.txt,37,37
85,0,842.9371,0,730,2058,2857,4205,601,10.0,200,1,0,843.9241,0,2,09_01_2015 level23_spatial_F+V 10_03 Block7-73.txt,37,37
86,1,850.5432,0,730,2058,2857,4205,601,10.0,200,1,1,851.29,1,2,09_01_2015 level23_spatial_F+V 10_03 Block7-73.txt,37,37
87,0,858.8752,0,730,2058,2857,4205,1001,10.0,200,1,0,860.2615,0,4,09_01_2015 level23_spatial_F+V 10_03 Block7-73.txt,37,37
88,1,868.0156,0,730,2058,2857,4205,1001,10.0,200,1,1,868.6539,1,4,09_01_2015 level23_spatial_F+V 10_03 Block7-73.txt,37,37
89,0,876.7009,0,460,1105,2857,4205,551,10.0,200,0,0,877.4054,1,2,09_01_2015 level23_spatial_F+V 10_03 Block7-73.txt,37,37
90,0,883.7175,0,460,1105,2857,4205,901,10.0,200,0,0,884.5744,1,2,09_01_2015 level23_spatial_F+V 10_03 Block7-73.txt,37,37
91,0,890.1197,0,460,1105,2857,4205,801,10.0,200,0,0,890.2964,1,0,09_01_2015 level23_spatial_F+V 10_03 Block7-73.txt,37,37
92,0,900.8837,0,730,2058,2857,4205,751,10.0,200,1,0,907.024,0,2,09_01_2015 level23_spatial_F+V 10_03 Block7-73.txt,37,37
93,1,915.7269,0,730,2058,2857,4205,751,10.0,200,1,0,916.431,0,2,09_01_2015 level23_spatial_F+V 10_03 Block7-73.txt,37,37
94,1,923.0859,0,730,2058,2857,4205,751,10.0,200,1,0,923.9087,0,2,09_01_2015 level23_spatial_F+V 10_03 Block7-73.txt,37,37
95,1,933.5158,0,730,2058,2857,4205,751,10.0,200,1,1,934.6381,1,2,09_01_2015 level23_spatial_F+V 10_03 Block7-73.txt,37,37
96,0,941.626,0,460,1105,2857,4205,901,10.0,200,0,0,942.1362,1,2,09_01_2015 level23_spatial_F+V 10_03 Block7-73.txt,37,37
97,0,947.5709,0,460,1105,2857,4205,801,10.0,200,0,0,948.0363,1,5,09_01_2015 level23_spatial_F+V 10_03 Block7-73.txt,37,37
98,0,951.6008,0,730,2058,2857,4205,551,10.0,200,1,0,952.1624,0,5,09_01_2015 level23_spatial_F+V 10_03 Block7-73.txt,37,37
99,1,958.0709,0,730,2058,2857,4205,551,10.0,200,1,0,958.5014,0,5,09_01_2015 level23_spatial_F+V 10_03 Block7-73.txt,37,37
100,1,966.897,0,730,2058,2857,4205,551,10.0,200,1,1,968.1499,1,5,09_01_2015 level23_spatial_F+V 10_03 Block7-73.txt,37,37
101,0,975.8002,0,460,1105,2857,4205,751,10.0,200,0,0,976.2759,1,4,09_01_2015 level23_spatial_F+V 10_03 Block7-73.txt,37,37
102,0,981.0271,0,460,1105,2857,4205,851,10.0,200,0,0,981.4082,1,3,09_01_2015 level23_spatial_F+V 10_03 Block7-73.txt,37,37
103,0,998.3654,0,730,2058,2857,4205,951,10.0,200,1,0,998.8525,0,1,09_01_2015 level23_spatial_F+V 10_03 Block7-73.txt,37,37
104,1,1008.0415,0,730,2058,2857,4205,951,10.0,200,1,1,1008.5084,1,1,09_01_2015 level23_spatial_F+V 10_03 Block7-73.txt,37,37
105,0,1016.5062,0,460,1105,2857,4205,701,10.0,200,0,0,1016.9523,1,0,09_01_2015 level23_spatial_F+V 10_03 Block7-73.txt,37,37
106,0,1022.3865,0,730,2058,2857,4205,501,10.0,200,1,0,1022.9651,0,2,09_01_2015 level23_spatial_F+V 10_03 Block7-73.txt,37,37
107,1,1029.3117,0,730,2058,2857,4205,501,10.0,200,1,0,1030.3482,0,2,09_01_2015 level23_spatial_F+V 10_03 Block7-73.txt,37,37
108,1,1037.1677,0,730,2058,2857,4205,501,10.0,200,1,1,1038.5058,1,2,09_01_2015 level23_spatial_F+V 10_03 Block7-73.txt,37,37
109,0,1045.2816,0,730,2058,2857,4205,1001,10.0,200,1,1,1045.7656,1,3,09_01_2015 level23_spatial_F+V 10_03 Block7-73.txt,37,37
110,0,1053.7397,1,730,2058,2857,4205,601,10.0,200,1,0,1054.3659,0,5,09_01_2015 level23_spatial_F+V 10_03 Block7-73.txt,37,37
111,1,1064.5592,0,730,2058,2857,4205,601,10.0,200,1,1,1065.3712,1,5,09_01_2015 level23_spatial_F+V 10_03 Block7-73.txt,37,37
112,0,1072.2108,0,730,2058,2857,4205,651,10.0,200,1,0,1072.6965,0,3,09_01_2015 level23_spatial_F+V 10_03 Block7-73.txt,37,37
113,1,1098.634,0,730,2058,2857,4205,651,10.0,200,1,0,1099.0876,0,3,09_01_2015 level23_spatial_F+V 10_03 Block7-73.txt,37,37
114,1,1151.631,0,730,2058,2857,4205,651,10.0,200,1,1,1153.4683,1,3,09_01_2015 level23_spatial_F+V 10_03 Block7-73.txt,37,37
115,0,1165.7208,1,460,1105,2857,4205,751,10.0,200,0,0,1166.2094,1,1,09_01_2015 level23_spatial_F+V 10_03 Block7-73.txt,37,37
116,0,1170.6658,0,460,1105,2857,4205,601,10.0,200,0,0,1173.53,1,2,09_01_2015 level23_spatial_F+V 10_03 Block7-73.txt,37,37
117,0,1178.1429,1,460,1105,2857,4205,501,10.0,200,0,0,1182.3183,1,5,09_01_2015 level23_spatial_F+V 10_03 Block7-73.txt,37,37
118,0,1187.7251,0,460,1105,2857,4205,901,10.0,200,0,0,1188.5553,1,4,09_01_2015 level23_spatial_F+V 10_03 Block7-73.txt,37,37
119,0,1197.5329,0,730,2058,2857,4205,701,10.0,200,1,0,1197.9676,0,2,09_01_2015 level23_spatial_F+V 10_03 Block7-73.txt,37,37
120,1,1207.2749,0,730,2058,2857,4205,701,10.0,200,1,0,1207.6387,0,2,09_01_2015 level23_spatial_F+V 10_03 Block7-73.txt,37,37
121,1,1213.5776,0,730,2058,2857,4205,701,10.0,200,1,0,1213.9518,0,2,09_01_2015 level23_spatial_F+V 10_03 Block7-73.txt,37,37
122,1,1220.2479,0,730,2058,2857,4205,701,10.0,200,1,1,1220.6376,1,2,09_01_2015 level23_spatial_F+V 10_03 Block7-73.txt,37,37
123,0,1224.8855,0,730,2058,2857,4205,1001,10.0,200,1,1,1225.9171,1,4,09_01_2015 level23_spatial_F+V 10_03 Block7-73.txt,37,37
124,0,1243.2503,0,730,2058,2857,4205,801,10.0,200,1,0,1243.985,0,0,09_01_2015 level23_spatial_F+V 10_03 Block7-73.txt,37,37
125,1,1255.2871,0,730,2058,2857,4205,801,10.0,200,1,1,1255.8089,1,0,09_01_2015 level23_spatial_F+V 10_03 Block7-73.txt,37,37
126,0,1267.0767,0,460,1105,2857,4205,851,10.0,200,0,0,1267.5179,1,4,09_01_2015 level23_spatial_F+V 10_03 Block7-73.txt,37,37
127,0,1272.2193,0,460,1105,2857,4205,551,10.0,200,0,0,1273.2295,1,4,09_01_2015 level23_spatial_F+V 10_03 Block7-73.txt,37,37
128,0,1277.7176,0,730,2058,2857,4205,801,10.0,200,1,0,1278.6585,0,5,09_01_2015 level23_spatial_F+V 10_03 Block7-73.txt,37,37
129,1,1287.225,0,730,2058,2857,4205,801,10.0,200,1,1,1288.2828,1,5,09_01_2015 level23_spatial_F+V 10_03 Block7-73.txt,37,37
130,0,1296.8516,0,730,2058,2857,4205,951,10.0,200,1,0,1297.0864,0,3,09_01_2015 level23_spatial_F+V 10_03 Block7-73.txt,37,37
131,1,1347.2533,0,730,2058,2857,4205,951,10.0,200,1,0,1348.098,0,3,09_01_2015 level23_spatial_F+V 10_03 Block7-73.txt,37,37
1,0,18.7713,0,730,2058,2857,4205,851,10.0,200,1,0,25.7259,0,2,30_10_2014 level23_spatial_F+V 09_35 Block7-22.txt,37,37
2,1,33.0585,0,730,2058,2857,4205,851,10.0,200,1,0,36.9998,0,2,30_10_2014 level23_spatial_F+V 09_35 Block7-22.txt,37,37
3,1,46.3584,1,730,2058,2857,4205,851,10.0,200,1,0,67.8155,0,2,30_10_2014 level23_spatial_F+V 09_35 Block7-22.txt,37,37
4,1,74.0018,0,730,2058,2857,4205,851,10.0,200,1,0,74.7568,0,2,30_10_2014 level23_spatial_F+V 09_35 Block7-22.txt,37,37
5,1,81.2356,0,730,2058,2857,4205,851,10.0,200,1,0,96.5822,0,2,30_10_2014 level23_spatial_F+V 09_35 Block7-22.txt,37,37
6,1,103.8135,0,730,2058,2857,4205,851,10.0,200,1,0,104.8013,0,2,30_10_2014 level23_spatial_F+V 09_35 Block7-22.txt,37,37
7,1,111.0159,1,730,2058,2857,4205,851,10.0,200,1,0,129.8651,0,2,30_10_2014 level23_spatial_F+V 09_35 Block7-22.txt,37,37
8,1,137.4806,0,730,2058,2857,4205,851,10.0,200,1,0,139.3095,0,2,30_10_2014 level23_spatial_F+V 09_35 Block7-22.txt,37,37
9,1,145.2457,0,730,2058,2857,4205,851,10.0,200,1,0,146.5981,0,2,30_10_2014 level23_spatial_F+V 09_35 Block7-22.txt,37,37
10,1,164.7575,0,730,2058,2857,4205,851,10.0,200,1,0,173.4088,0,2,30_10_2014 level23_spatial_F+V 09_35 Block7-22.txt,37,37
11,1,179.32,0,730,2058,2857,4205,851,10.0,200,1,0,180.1638,0,2,30_10_2014 level23_spatial_F+V 09_35 Block7-22.txt,37,37
12,1,195.9528,0,730,2058,2857,4205,851,10.0,200,1,0,196.6443,0,2,30_10_2014 level23_spatial_F+V 09_35 Block7-22.txt,37,37
13,1,211.1461,0,730,2058,2857,4205,851,10.0,200,1,-1,-1.0,0,2,30_10_2014 level23_spatial_F+V 09_35 Block7-22.txt,37,37
14,0,260.6085,0,460,1105,2857,4205,651,10.0,200,0,0,261.261,1,1,30_10_2014 level23_spatial_F+V 09_35 Block7-22.txt,37,37
15,0,275.3205,0,730,2058,2857,4205,951,10.0,200,1,0,275.9734,0,3,30_10_2014 level23_spatial_F+V 09_35 Block7-22.txt,37,37
16,1,283.0209,0,730,2058,2857,4205,951,10.0,200,1,1,284.1969,1,3,30_10_2014 level23_spatial_F+V 09_35 Block7-22.txt,37,37
17,0,285.9863,0,460,1105,2857,4205,501,10.0,200,0,0,287.191,1,5,30_10_2014 level23_spatial_F+V 09_35 Block7-22.txt,37,37
18,0,296.3601,0,730,2058,2857,4205,751,10.0,200,1,1,297.6076,1,2,30_10_2014 level23_spatial_F+V 09_35 Block7-22.txt,37,37
19,0,300.6326,0,460,1105,2857,4205,901,10.0,200,0,0,301.3535,1,4,30_10_2014 level23_spatial_F+V 09_35 Block7-22.txt,37,37
20,0,309.5277,0,730,2058,2857,4205,551,10.0,200,1,1,311.5228,1,5,30_10_2014 level23_spatial_F+V 09_35 Block7-22.txt,37,37
21,0,315.0913,0,730,2058,2857,4205,701,10.0,200,1,1,316.8535,1,4,30_10_2014 level23_spatial_F+V 09_35 Block7-22.txt,37,37
22,0,343.8409,0,730,2058,2857,4205,801,10.0,200,1,0,344.995,0,1,30_10_2014 level23_spatial_F+V 09_35 Block7-22.txt,37,37
23,1,351.0027,0,730,2058,2857,4205,801,10.0,200,1,1,352.1767,1,1,30_10_2014 level23_spatial_F+V 09_35 Block7-22.txt,37,37
24,0,354.0422,0,460,1105,2857,4205,1001,10.0,200,0,1,355.5968,0,3,30_10_2014 level23_spatial_F+V 09_35 Block7-22.txt,37,37
25,1,370.5159,0,460,1105,2857,4205,1001,10.0,200,0,0,371.0634,1,3,30_10_2014 level23_spatial_F+V 09_35 Block7-22.txt,37,37
26,0,379.7867,0,460,1105,2857,4205,851,10.0,200,0,0,380.7186,1,5,30_10_2014 level23_spatial_F+V 09_35 Block7-22.txt,37,37
27,0,393.6693,0,730,2058,2857,4205,501,10.0,200,1,0,395.4911,0,3,30_10_2014 level23_spatial_F+V 09_35 Block7-22.txt,37,37
28,1,401.5944,0,730,2058,2857,4205,501,10.0,200,1,0,402.7504,0,3,30_10_2014 level23_spatial_F+V 09_35 Block7-22.txt,37,37
29,1,411.9355,0,730,2058,2857,4205,501,10.0,200,1,1,413.2124,1,3,30_10_2014 level23_spatial_F+V 09_35 Block7-22.txt,37,37
30,0,419.7829,0,460,1105,2857,4205,651,10.0,200,0,0,420.478,1,0,30_10_2014 level23_spatial_F+V 09_35 Block7-22.txt,37,37
31,0,428.043,0,460,1105,2857,4205,951,10.0,200,0,0,428.7036,1,5,30_10_2014 level23_spatial_F+V 09_35 Block7-22.txt,37,37
32,0,437.1913,0,460,1105,2857,4205,601,10.0,200,0,0,438.8063,1,0,30_10_2014 level23_spatial_F+V 09_35 Block7-22.txt,37,37
