Trial,CorrectionTrial,StartTime,CenterReward,F1,F2,F3,F4,HoldTime,Atten,Pitch,Side,Response,RespTime,Correct,SpatialMask,originalFile,LeftTemperature,RightTemperature
1,0,4.4933,0,730,2058.0,2857.0,4205.0,1001.0,10.0,200.0,1.0,0.0,5.8984,0.0,4.0,10_12_2014 level23_spatial_F+V 15_26 Block7-48.txt,37,37
2,1,15.8459,0,730,2058.0,2857.0,4205.0,1001.0,10.0,200.0,1.0,1.0,16.9855,1.0,4.0,10_12_2014 level23_spatial_F+V 15_26 Block7-48.txt,37,37
3,0,25.1523,0,460,1105.0,2857.0,4205.0,751.0,10.0,200.0,0.0,0.0,28.0218,1.0,1.0,10_12_2014 level23_spatial_F+V 15_26 Block7-48.txt,37,37
4,0,32.0434,0,460,1105.0,2857.0,4205.0,651.0,10.0,200.0,0.0,0.0,33.4739,1.0,0.0,10_12_2014 level23_spatial_F+V 15_26 Block7-48.txt,37,37
5,0,37.9448,0,460,1105.0,2857.0,4205.0,851.0,10.0,200.0,0.0,0.0,38.89,1.0,1.0,10_12_2014 level23_spatial_F+V 15_26 Block7-48.txt,37,37
6,0,43.1803,1,730,2058.0,2857.0,4205.0,701.0,10.0,200.0,1.0,0.0,44.2924,0.0,2.0,10_12_2014 level23_spatial_F+V 15_26 Block7-48.txt,37,37
7,1,51.7763,1,730,2058.0,2857.0,4205.0,701.0,10.0,200.0,1.0,1.0,55.9408,1.0,2.0,10_12_2014 level23_spatial_F+V 15_26 Block7-48.txt,37,37
8,0,61.8982,0,730,2058.0,2857.0,4205.0,551.0,10.0,200.0,1.0,0.0,64.6916,0.0,2.0,10_12_2014 level23_spatial_F+V 15_26 Block7-48.txt,37,37
9,1,75.8764,0,730,2058.0,2857.0,4205.0,551.0,10.0,200.0,1.0,0.0,77.1934,0.0,2.0,10_12_2014 level23_spatial_F+V 15_26 Block7-48.txt,37,37
10,1,91.7923,0,730,2058.0,2857.0,4205.0,551.0,10.0,200.0,1.0,0.0,93.8683,0.0,2.0,10_12_2014 level23_spatial_F+V 15_26 Block7-48.txt,37,37
11,1,102.3613,0,730,2058.0,2857.0,4205.0,551.0,10.0,200.0,1.0,1.0,104.1498,1.0,2.0,10_12_2014 level23_spatial_F+V 15_26 Block7-48.txt,37,37
12,0,111.8463,0,730,2058.0,2857.0,4205.0,801.0,10.0,200.0,1.0,1.0,113.2476,1.0,1.0,10_12_2014 level23_spatial_F+V 15_26 Block7-48.txt,37,37
13,0,129.1467,0,730,2058.0,2857.0,4205.0,601.0,10.0,200.0,1.0,0.0,130.8039,0.0,3.0,10_12_2014 level23_spatial_F+V 15_26 Block7-48.txt,37,37
14,1,137.406,0,730,2058.0,2857.0,4205.0,601.0,10.0,200.0,1.0,1.0,138.6807,1.0,3.0,10_12_2014 level23_spatial_F+V 15_26 Block7-48.txt,37,37
15,0,150.8278,0,460,1105.0,2857.0,4205.0,901.0,10.0,200.0,0.0,0.0,152.2098,1.0,4.0,10_12_2014 level23_spatial_F+V 15_26 Block7-48.txt,37,37
16,0,156.1768,0,460,1105.0,2857.0,4205.0,951.0,10.0,200.0,0.0,0.0,157.1626,1.0,0.0,10_12_2014 level23_spatial_F+V 15_26 Block7-48.txt,37,37
17,0,161.004,0,730,2058.0,2857.0,4205.0,501.0,10.0,200.0,1.0,0.0,162.1834,0.0,5.0,10_12_2014 level23_spatial_F+V 15_26 Block7-48.txt,37,37
18,1,169.2649,0,730,2058.0,2857.0,4205.0,501.0,10.0,200.0,1.0,1.0,170.8901,1.0,5.0,10_12_2014 level23_spatial_F+V 15_26 Block7-48.txt,37,37
19,0,181.142,0,730,2058.0,2857.0,4205.0,551.0,10.0,200.0,1.0,0.0,182.48,0.0,5.0,10_12_2014 level23_spatial_F+V 15_26 Block7-48.txt,37,37
20,1,188.7231,0,730,2058.0,2857.0,4205.0,551.0,10.0,200.0,1.0,1.0,190.0286,1.0,5.0,10_12_2014 level23_spatial_F+V 15_26 Block7-48.txt,37,37
21,0,204.6863,0,730,2058.0,2857.0,4205.0,901.0,10.0,200.0,1.0,0.0,206.1924,0.0,1.0,10_12_2014 level23_spatial_F+V 15_26 Block7-48.txt,37,37
22,1,218.0934,0,730,2058.0,2857.0,4205.0,901.0,10.0,200.0,1.0,0.0,219.4312,0.0,1.0,10_12_2014 level23_spatial_F+V 15_26 Block7-48.txt,37,37
23,1,229.5189,0,730,2058.0,2857.0,4205.0,901.0,10.0,200.0,1.0,0.0,230.7073,0.0,1.0,10_12_2014 level23_spatial_F+V 15_26 Block7-48.txt,37,37
24,1,237.2149,0,730,2058.0,2857.0,4205.0,901.0,10.0,200.0,1.0,0.0,239.5447,0.0,1.0,10_12_2014 level23_spatial_F+V 15_26 Block7-48.txt,37,37
25,1,246.8076,0,730,2058.0,2857.0,4205.0,901.0,10.0,200.0,1.0,1.0,248.2614,1.0,1.0,10_12_2014 level23_spatial_F+V 15_26 Block7-48.txt,37,37
26,0,262.7787,0,730,2058.0,2857.0,4205.0,751.0,10.0,200.0,1.0,0.0,264.4607,0.0,2.0,10_12_2014 level23_spatial_F+V 15_26 Block7-48.txt,37,37
27,1,270.5757,0,730,2058.0,2857.0,4205.0,751.0,10.0,200.0,1.0,1.0,272.0544,1.0,2.0,10_12_2014 level23_spatial_F+V 15_26 Block7-48.txt,37,37
28,0,283.283,0,460,1105.0,2857.0,4205.0,801.0,10.0,200.0,0.0,0.0,284.4906,1.0,1.0,10_12_2014 level23_spatial_F+V 15_26 Block7-48.txt,37,37
29,0,289.0144,0,460,1105.0,2857.0,4205.0,951.0,10.0,200.0,0.0,0.0,289.8249,1.0,4.0,10_12_2014 level23_spatial_F+V 15_26 Block7-48.txt,37,37
30,0,294.0501,0,730,2058.0,2857.0,4205.0,1001.0,10.0,200.0,1.0,0.0,295.0513,0.0,0.0,10_12_2014 level23_spatial_F+V 15_26 Block7-48.txt,37,37
31,1,307.5677,0,730,2058.0,2857.0,4205.0,1001.0,10.0,200.0,1.0,1.0,308.5098,1.0,0.0,10_12_2014 level23_spatial_F+V 15_26 Block7-48.txt,37,37
32,0,319.2898,1,460,1105.0,2857.0,4205.0,851.0,10.0,200.0,0.0,1.0,320.7117,0.0,5.0,10_12_2014 level23_spatial_F+V 15_26 Block7-48.txt,37,37
33,1,329.2377,0,460,1105.0,2857.0,4205.0,851.0,10.0,200.0,0.0,0.0,331.0549,1.0,5.0,10_12_2014 level23_spatial_F+V 15_26 Block7-48.txt,37,37
34,0,335.2233,0,460,1105.0,2857.0,4205.0,601.0,10.0,200.0,0.0,0.0,336.407,1.0,5.0,10_12_2014 level23_spatial_F+V 15_26 Block7-48.txt,37,37
35,0,340.5548,0,460,1105.0,2857.0,4205.0,651.0,10.0,200.0,0.0,0.0,342.0833,1.0,2.0,10_12_2014 level23_spatial_F+V 15_26 Block7-48.txt,37,37
36,0,346.6259,0,730,2058.0,2857.0,4205.0,901.0,10.0,200.0,1.0,0.0,348.481,0.0,3.0,10_12_2014 level23_spatial_F+V 15_26 Block7-48.txt,37,37
37,1,363.8734,0,730,2058.0,2857.0,4205.0,901.0,10.0,200.0,1.0,1.0,364.6771,1.0,3.0,10_12_2014 level23_spatial_F+V 15_26 Block7-48.txt,37,37
38,0,377.2852,0,730,2058.0,2857.0,4205.0,1001.0,10.0,200.0,1.0,0.0,378.5368,0.0,5.0,10_12_2014 level23_spatial_F+V 15_26 Block7-48.txt,37,37
39,1,386.1497,0,730,2058.0,2857.0,4205.0,1001.0,10.0,200.0,1.0,1.0,387.1759,1.0,5.0,10_12_2014 level23_spatial_F+V 15_26 Block7-48.txt,37,37
40,0,394.9269,1,460,1105.0,2857.0,4205.0,551.0,10.0,200.0,0.0,0.0,396.6867,1.0,2.0,10_12_2014 level23_spatial_F+V 15_26 Block7-48.txt,37,37
41,0,400.7168,0,460,1105.0,2857.0,4205.0,651.0,10.0,200.0,0.0,0.0,402.1219,1.0,3.0,10_12_2014 level23_spatial_F+V 15_26 Block7-48.txt,37,37
42,0,406.4381,0,460,1105.0,2857.0,4205.0,951.0,10.0,200.0,0.0,0.0,407.6295,1.0,3.0,10_12_2014 level23_spatial_F+V 15_26 Block7-48.txt,37,37
43,0,412.9159,0,730,2058.0,2857.0,4205.0,851.0,10.0,200.0,1.0,0.0,414.5697,0.0,1.0,10_12_2014 level23_spatial_F+V 15_26 Block7-48.txt,37,37
44,1,424.0877,0,730,2058.0,2857.0,4205.0,851.0,10.0,200.0,1.0,1.0,425.6612,1.0,1.0,10_12_2014 level23_spatial_F+V 15_26 Block7-48.txt,37,37
45,0,435.6976,0,460,1105.0,2857.0,4205.0,601.0,10.0,200.0,0.0,0.0,437.2962,1.0,4.0,10_12_2014 level23_spatial_F+V 15_26 Block7-48.txt,37,37
46,0,441.9772,0,460,1105.0,2857.0,4205.0,801.0,10.0,200.0,0.0,0.0,443.009,1.0,3.0,10_12_2014 level23_spatial_F+V 15_26 Block7-48.txt,37,37
47,0,451.5469,0,460,1105.0,2857.0,4205.0,701.0,10.0,200.0,0.0,0.0,452.1965,1.0,0.0,10_12_2014 level23_spatial_F+V 15_26 Block7-48.txt,37,37
48,0,456.9982,0,730,2058.0,2857.0,4205.0,751.0,10.0,200.0,1.0,0.0,458.0973,0.0,0.0,10_12_2014 level23_spatial_F+V 15_26 Block7-48.txt,37,37
49,1,465.8041,0,730,2058.0,2857.0,4205.0,751.0,10.0,200.0,1.0,1.0,466.7714,1.0,0.0,10_12_2014 level23_spatial_F+V 15_26 Block7-48.txt,37,37
50,0,479.2596,0,730,2058.0,2857.0,4205.0,751.0,10.0,200.0,1.0,1.0,480.6269,1.0,4.0,10_12_2014 level23_spatial_F+V 15_26 Block7-48.txt,37,37
51,0,492.1807,1,730,2058.0,2857.0,4205.0,551.0,10.0,200.0,1.0,0.0,494.9579,0.0,4.0,10_12_2014 level23_spatial_F+V 15_26 Block7-48.txt,37,37
52,1,505.7836,0,730,2058.0,2857.0,4205.0,551.0,10.0,200.0,1.0,1.0,507.3886,1.0,4.0,10_12_2014 level23_spatial_F+V 15_26 Block7-48.txt,37,37
53,0,516.6918,0,730,2058.0,2857.0,4205.0,701.0,10.0,200.0,1.0,0.0,518.3545,0.0,3.0,10_12_2014 level23_spatial_F+V 15_26 Block7-48.txt,37,37
54,1,528.0658,0,730,2058.0,2857.0,4205.0,701.0,10.0,200.0,1.0,1.0,529.8824,1.0,3.0,10_12_2014 level23_spatial_F+V 15_26 Block7-48.txt,37,37
55,0,539.1587,0,730,2058.0,2857.0,4205.0,501.0,10.0,200.0,1.0,0.0,540.8659,0.0,0.0,10_12_2014 level23_spatial_F+V 15_26 Block7-48.txt,37,37
56,1,546.6532,0,730,2058.0,2857.0,4205.0,501.0,10.0,200.0,1.0,1.0,547.5951,1.0,0.0,10_12_2014 level23_spatial_F+V 15_26 Block7-48.txt,37,37
57,0,558.0031,0,460,1105.0,2857.0,4205.0,851.0,10.0,200.0,0.0,0.0,559.5796,1.0,5.0,10_12_2014 level23_spatial_F+V 15_26 Block7-48.txt,37,37
58,0,563.6007,0,460,1105.0,2857.0,4205.0,901.0,10.0,200.0,0.0,0.0,564.4061,1.0,2.0,10_12_2014 level23_spatial_F+V 15_26 Block7-48.txt,37,37
59,0,567.9947,0,730,2058.0,2857.0,4205.0,651.0,10.0,200.0,1.0,0.0,569.4395,0.0,4.0,10_12_2014 level23_spatial_F+V 15_26 Block7-48.txt,37,37
60,1,577.7351,0,730,2058.0,2857.0,4205.0,651.0,10.0,200.0,1.0,1.0,579.5588,1.0,4.0,10_12_2014 level23_spatial_F+V 15_26 Block7-48.txt,37,37
61,0,591.3187,0,730,2058.0,2857.0,4205.0,951.0,10.0,200.0,1.0,0.0,592.6713,0.0,2.0,10_12_2014 level23_spatial_F+V 15_26 Block7-48.txt,37,37
62,1,598.657,0,730,2058.0,2857.0,4205.0,951.0,10.0,200.0,1.0,1.0,599.5686,1.0,2.0,10_12_2014 level23_spatial_F+V 15_26 Block7-48.txt,37,37
63,0,608.2098,0,730,2058.0,2857.0,4205.0,1001.0,10.0,200.0,1.0,0.0,609.2088,0.0,3.0,10_12_2014 level23_spatial_F+V 15_26 Block7-48.txt,37,37
64,1,617.4136,0,730,2058.0,2857.0,4205.0,1001.0,10.0,200.0,1.0,1.0,618.9115,1.0,3.0,10_12_2014 level23_spatial_F+V 15_26 Block7-48.txt,37,37
65,0,629.0611,0,460,1105.0,2857.0,4205.0,601.0,10.0,200.0,0.0,0.0,630.6737,1.0,1.0,10_12_2014 level23_spatial_F+V 15_26 Block7-48.txt,37,37
66,0,634.5754,0,460,1105.0,2857.0,4205.0,701.0,10.0,200.0,0.0,0.0,635.8974,1.0,2.0,10_12_2014 level23_spatial_F+V 15_26 Block7-48.txt,37,37
67,0,640.3367,0,730,2058.0,2857.0,4205.0,751.0,10.0,200.0,1.0,0.0,641.8466,0.0,1.0,10_12_2014 level23_spatial_F+V 15_26 Block7-48.txt,37,37
68,1,650.0495,0,730,2058.0,2857.0,4205.0,751.0,10.0,200.0,1.0,1.0,651.0072,1.0,1.0,10_12_2014 level23_spatial_F+V 15_26 Block7-48.txt,37,37
69,0,660.4816,1,730,2058.0,2857.0,4205.0,851.0,10.0,200.0,1.0,0.0,662.3598,0.0,3.0,10_12_2014 level23_spatial_F+V 15_26 Block7-48.txt,37,37
70,1,669.1968,0,730,2058.0,2857.0,4205.0,851.0,10.0,200.0,1.0,1.0,671.284,1.0,3.0,10_12_2014 level23_spatial_F+V 15_26 Block7-48.txt,37,37
71,0,680.3579,0,460,1105.0,2857.0,4205.0,951.0,10.0,200.0,0.0,0.0,681.696,1.0,5.0,10_12_2014 level23_spatial_F+V 15_26 Block7-48.txt,37,37
72,0,689.8346,0,460,1105.0,2857.0,4205.0,651.0,10.0,200.0,0.0,0.0,691.4586,1.0,4.0,10_12_2014 level23_spatial_F+V 15_26 Block7-48.txt,37,37
73,0,696.2052,0,460,1105.0,2857.0,4205.0,1001.0,10.0,200.0,0.0,0.0,697.4752,1.0,1.0,10_12_2014 level23_spatial_F+V 15_26 Block7-48.txt,37,37
74,0,701.5131,0,730,2058.0,2857.0,4205.0,501.0,10.0,200.0,1.0,1.0,702.8903,1.0,4.0,10_12_2014 level23_spatial_F+V 15_26 Block7-48.txt,37,37
75,0,710.2756,0,460,1105.0,2857.0,4205.0,601.0,10.0,200.0,0.0,0.0,711.7376,1.0,4.0,10_12_2014 level23_spatial_F+V 15_26 Block7-48.txt,37,37
76,0,715.7145,0,730,2058.0,2857.0,4205.0,801.0,10.0,200.0,1.0,0.0,716.8546,0.0,1.0,10_12_2014 level23_spatial_F+V 15_26 Block7-48.txt,37,37
77,1,730.1971,0,730,2058.0,2857.0,4205.0,801.0,10.0,200.0,1.0,1.0,730.961,1.0,1.0,10_12_2014 level23_spatial_F+V 15_26 Block7-48.txt,37,37
78,0,739.8802,1,460,1105.0,2857.0,4205.0,551.0,10.0,200.0,0.0,0.0,743.4209,1.0,0.0,10_12_2014 level23_spatial_F+V 15_26 Block7-48.txt,37,37
79,0,747.4456,0,730,2058.0,2857.0,4205.0,501.0,10.0,200.0,1.0,0.0,749.8878,0.0,4.0,10_12_2014 level23_spatial_F+V 15_26 Block7-48.txt,37,37
80,1,759.2527,0,730,2058.0,2857.0,4205.0,501.0,10.0,200.0,1.0,0.0,760.6324,0.0,4.0,10_12_2014 level23_spatial_F+V 15_26 Block7-48.txt,37,37
81,1,783.7094,0,730,2058.0,2857.0,4205.0,501.0,10.0,200.0,1.0,1.0,785.7733,1.0,4.0,10_12_2014 level23_spatial_F+V 15_26 Block7-48.txt,37,37
82,0,792.9065,0,460,1105.0,2857.0,4205.0,601.0,10.0,200.0,0.0,0.0,794.6923,1.0,5.0,10_12_2014 level23_spatial_F+V 15_26 Block7-48.txt,37,37
83,0,797.6593,0,460,1105.0,2857.0,4205.0,751.0,10.0,200.0,0.0,0.0,799.4712,1.0,2.0,10_12_2014 level23_spatial_F+V 15_26 Block7-48.txt,37,37
84,0,803.3635,0,730,2058.0,2857.0,4205.0,701.0,10.0,200.0,1.0,0.0,804.5619,0.0,5.0,10_12_2014 level23_spatial_F+V 15_26 Block7-48.txt,37,37
85,1,845.8162,0,730,2058.0,2857.0,4205.0,701.0,10.0,200.0,1.0,1.0,867.7286,1.0,5.0,10_12_2014 level23_spatial_F+V 15_26 Block7-48.txt,37,37
86,0,877.917,1,730,2058.0,2857.0,4205.0,801.0,10.0,200.0,1.0,1.0,891.9924,1.0,0.0,10_12_2014 level23_spatial_F+V 15_26 Block7-48.txt,37,37
87,0,903.1672,0,730,2058.0,2857.0,4205.0,551.0,10.0,200.0,1.0,1.0,904.0425,1.0,1.0,10_12_2014 level23_spatial_F+V 15_26 Block7-48.txt,37,37
1,0,9.3983,0,730,2058.0,2857.0,4205.0,801.0,10.0,200.0,1.0,0.0,10.311,0.0,2.0,09_12_2014 level23_spatial_F+V 15_44 Block7-45.txt,37,37
2,1,16.2953,0,730,2058.0,2857.0,4205.0,801.0,10.0,200.0,1.0,0.0,17.241,0.0,2.0,09_12_2014 level23_spatial_F+V 15_44 Block7-45.txt,37,37
3,1,25.7224,0,730,2058.0,2857.0,4205.0,801.0,10.0,200.0,1.0,1.0,26.6928,1.0,2.0,09_12_2014 level23_spatial_F+V 15_44 Block7-45.txt,37,37
4,0,35.4594,1,460,1105.0,2857.0,4205.0,701.0,10.0,200.0,0.0,0.0,36.3281,1.0,0.0,09_12_2014 level23_spatial_F+V 15_44 Block7-45.txt,37,37
5,0,57.316,0,460,1105.0,2857.0,4205.0,651.0,10.0,200.0,0.0,0.0,58.7275,1.0,1.0,09_12_2014 level23_spatial_F+V 15_44 Block7-45.txt,37,37
6,0,68.8637,0,460,1105.0,2857.0,4205.0,551.0,10.0,200.0,0.0,1.0,70.5188,0.0,0.0,09_12_2014 level23_spatial_F+V 15_44 Block7-45.txt,37,37
7,1,77.643,0,460,1105.0,2857.0,4205.0,551.0,10.0,200.0,0.0,0.0,78.4412,1.0,0.0,09_12_2014 level23_spatial_F+V 15_44 Block7-45.txt,37,37
8,0,92.4132,0,460,1105.0,2857.0,4205.0,601.0,10.0,200.0,0.0,0.0,93.8012,1.0,4.0,09_12_2014 level23_spatial_F+V 15_44 Block7-45.txt,37,37
9,0,101.4108,0,460,1105.0,2857.0,4205.0,501.0,10.0,200.0,0.0,0.0,102.5736,1.0,5.0,09_12_2014 level23_spatial_F+V 15_44 Block7-45.txt,37,37
10,0,113.519,1,730,2058.0,2857.0,4205.0,751.0,10.0,200.0,1.0,1.0,115.4425,1.0,0.0,09_12_2014 level23_spatial_F+V 15_44 Block7-45.txt,37,37
11,0,127.4097,0,730,2058.0,2857.0,4205.0,901.0,10.0,200.0,1.0,1.0,128.5749,1.0,1.0,09_12_2014 level23_spatial_F+V 15_44 Block7-45.txt,37,37
12,0,136.5175,0,460,1105.0,2857.0,4205.0,851.0,10.0,200.0,0.0,1.0,137.3149,0.0,2.0,09_12_2014 level23_spatial_F+V 15_44 Block7-45.txt,37,37
13,1,161.4367,0,460,1105.0,2857.0,4205.0,851.0,10.0,200.0,0.0,1.0,162.6696,0.0,2.0,09_12_2014 level23_spatial_F+V 15_44 Block7-45.txt,37,37
14,1,171.4653,0,460,1105.0,2857.0,4205.0,851.0,10.0,200.0,0.0,0.0,172.2929,1.0,2.0,09_12_2014 level23_spatial_F+V 15_44 Block7-45.txt,37,37
15,0,187.7323,0,730,2058.0,2857.0,4205.0,1001.0,10.0,200.0,1.0,1.0,188.5577,1.0,0.0,09_12_2014 level23_spatial_F+V 15_44 Block7-45.txt,37,37
16,0,200.1789,1,730,2058.0,2857.0,4205.0,601.0,10.0,200.0,1.0,1.0,200.6303,1.0,5.0,09_12_2014 level23_spatial_F+V 15_44 Block7-45.txt,37,37
17,0,214.2075,0,460,1105.0,2857.0,4205.0,701.0,10.0,200.0,0.0,0.0,215.035,1.0,2.0,09_12_2014 level23_spatial_F+V 15_44 Block7-45.txt,37,37
18,0,236.6137,0,460,1105.0,2857.0,4205.0,551.0,10.0,200.0,0.0,0.0,238.0512,1.0,5.0,09_12_2014 level23_spatial_F+V 15_44 Block7-45.txt,37,37
19,0,255.484,0,460,1105.0,2857.0,4205.0,851.0,10.0,200.0,0.0,0.0,256.7745,1.0,5.0,09_12_2014 level23_spatial_F+V 15_44 Block7-45.txt,37,37
20,0,276.0192,0,730,2058.0,2857.0,4205.0,1001.0,10.0,200.0,1.0,0.0,276.9117,0.0,2.0,09_12_2014 level23_spatial_F+V 15_44 Block7-45.txt,37,37
21,1,284.4391,0,730,2058.0,2857.0,4205.0,1001.0,10.0,200.0,1.0,1.0,285.7237,1.0,2.0,09_12_2014 level23_spatial_F+V 15_44 Block7-45.txt,37,37
22,0,293.8556,0,460,1105.0,2857.0,4205.0,751.0,10.0,200.0,0.0,0.0,295.2747,1.0,1.0,09_12_2014 level23_spatial_F+V 15_44 Block7-45.txt,37,37
23,0,322.0204,0,460,1105.0,2857.0,4205.0,951.0,10.0,200.0,0.0,0.0,323.3585,1.0,4.0,09_12_2014 level23_spatial_F+V 15_44 Block7-45.txt,37,37
24,0,327.338,0,460,1105.0,2857.0,4205.0,651.0,10.0,200.0,0.0,0.0,328.6215,1.0,2.0,09_12_2014 level23_spatial_F+V 15_44 Block7-45.txt,37,37
25,0,339.7247,0,730,2058.0,2857.0,4205.0,901.0,10.0,200.0,1.0,1.0,340.4507,1.0,3.0,09_12_2014 level23_spatial_F+V 15_44 Block7-45.txt,37,37
26,0,349.8127,0,460,1105.0,2857.0,4205.0,801.0,10.0,200.0,0.0,0.0,350.9117,1.0,4.0,09_12_2014 level23_spatial_F+V 15_44 Block7-45.txt,37,37
27,0,355.4019,0,730,2058.0,2857.0,4205.0,901.0,10.0,200.0,1.0,1.0,356.4997,1.0,4.0,09_12_2014 level23_spatial_F+V 15_44 Block7-45.txt,37,37
28,0,362.7096,0,460,1105.0,2857.0,4205.0,651.0,10.0,200.0,0.0,1.0,363.5968,0.0,3.0,09_12_2014 level23_spatial_F+V 15_44 Block7-45.txt,37,37
29,1,372.6605,0,460,1105.0,2857.0,4205.0,651.0,10.0,200.0,0.0,0.0,374.0472,1.0,3.0,09_12_2014 level23_spatial_F+V 15_44 Block7-45.txt,37,37
30,0,378.4243,0,460,1105.0,2857.0,4205.0,601.0,10.0,200.0,0.0,1.0,379.5751,0.0,3.0,09_12_2014 level23_spatial_F+V 15_44 Block7-45.txt,37,37
31,1,385.257,0,460,1105.0,2857.0,4205.0,601.0,10.0,200.0,0.0,0.0,386.6694,1.0,3.0,09_12_2014 level23_spatial_F+V 15_44 Block7-45.txt,37,37
32,0,398.1402,0,730,2058.0,2857.0,4205.0,1001.0,10.0,200.0,1.0,0.0,399.0108,0.0,1.0,09_12_2014 level23_spatial_F+V 15_44 Block7-45.txt,37,37
33,1,405.3799,1,730,2058.0,2857.0,4205.0,1001.0,10.0,200.0,1.0,0.0,407.1958,0.0,1.0,09_12_2014 level23_spatial_F+V 15_44 Block7-45.txt,37,37
34,1,419.5507,0,730,2058.0,2857.0,4205.0,1001.0,10.0,200.0,1.0,1.0,420.5389,1.0,1.0,09_12_2014 level23_spatial_F+V 15_44 Block7-45.txt,37,37
35,0,435.0863,0,730,2058.0,2857.0,4205.0,801.0,10.0,200.0,1.0,0.0,436.568,0.0,3.0,09_12_2014 level23_spatial_F+V 15_44 Block7-45.txt,37,37
36,1,443.4221,0,730,2058.0,2857.0,4205.0,801.0,10.0,200.0,1.0,1.0,445.081,1.0,3.0,09_12_2014 level23_spatial_F+V 15_44 Block7-45.txt,37,37
37,0,450.7207,0,730,2058.0,2857.0,4205.0,701.0,10.0,200.0,1.0,1.0,452.5234,1.0,1.0,09_12_2014 level23_spatial_F+V 15_44 Block7-45.txt,37,37
38,0,484.1892,1,460,1105.0,2857.0,4205.0,851.0,10.0,200.0,0.0,1.0,489.2117,0.0,3.0,09_12_2014 level23_spatial_F+V 15_44 Block7-45.txt,37,37
39,1,496.347,0,460,1105.0,2857.0,4205.0,851.0,10.0,200.0,0.0,0.0,497.726,1.0,3.0,09_12_2014 level23_spatial_F+V 15_44 Block7-45.txt,37,37
40,0,502.043,1,460,1105.0,2857.0,4205.0,501.0,10.0,200.0,0.0,0.0,505.6409,1.0,1.0,09_12_2014 level23_spatial_F+V 15_44 Block7-45.txt,37,37
41,0,514.1501,0,730,2058.0,2857.0,4205.0,551.0,10.0,200.0,1.0,0.0,516.3576,0.0,3.0,09_12_2014 level23_spatial_F+V 15_44 Block7-45.txt,37,37
42,1,523.4348,0,730,2058.0,2857.0,4205.0,551.0,10.0,200.0,1.0,1.0,524.8859,1.0,3.0,09_12_2014 level23_spatial_F+V 15_44 Block7-45.txt,37,37
43,0,534.865,0,460,1105.0,2857.0,4205.0,951.0,10.0,200.0,0.0,0.0,536.4065,1.0,0.0,09_12_2014 level23_spatial_F+V 15_44 Block7-45.txt,37,37
44,0,541.6951,1,730,2058.0,2857.0,4205.0,551.0,10.0,200.0,1.0,0.0,546.4159,0.0,4.0,09_12_2014 level23_spatial_F+V 15_44 Block7-45.txt,37,37
45,1,560.4771,0,730,2058.0,2857.0,4205.0,551.0,10.0,200.0,1.0,0.0,562.3012,0.0,4.0,09_12_2014 level23_spatial_F+V 15_44 Block7-45.txt,37,37
46,1,583.2209,0,730,2058.0,2857.0,4205.0,551.0,10.0,200.0,1.0,0.0,584.2523,0.0,4.0,09_12_2014 level23_spatial_F+V 15_44 Block7-45.txt,37,37
47,1,590.6078,0,730,2058.0,2857.0,4205.0,551.0,10.0,200.0,1.0,0.0,591.8978,0.0,4.0,09_12_2014 level23_spatial_F+V 15_44 Block7-45.txt,37,37
48,1,600.2628,1,730,2058.0,2857.0,4205.0,551.0,10.0,200.0,1.0,1.0,605.8925,1.0,4.0,09_12_2014 level23_spatial_F+V 15_44 Block7-45.txt,37,37
49,0,618.472,1,730,2058.0,2857.0,4205.0,601.0,10.0,200.0,1.0,0.0,619.4104,0.0,0.0,09_12_2014 level23_spatial_F+V 15_44 Block7-45.txt,37,37
50,1,633.9193,0,730,2058.0,2857.0,4205.0,601.0,10.0,200.0,1.0,1.0,635.6814,1.0,0.0,09_12_2014 level23_spatial_F+V 15_44 Block7-45.txt,37,37
51,0,651.4522,0,730,2058.0,2857.0,4205.0,651.0,10.0,200.0,1.0,0.0,653.0528,0.0,5.0,09_12_2014 level23_spatial_F+V 15_44 Block7-45.txt,37,37
52,1,663.5996,0,730,2058.0,2857.0,4205.0,651.0,10.0,200.0,1.0,1.0,664.4693,1.0,5.0,09_12_2014 level23_spatial_F+V 15_44 Block7-45.txt,37,37
53,0,678.1658,0,730,2058.0,2857.0,4205.0,501.0,10.0,200.0,1.0,0.0,680.2594,0.0,5.0,09_12_2014 level23_spatial_F+V 15_44 Block7-45.txt,37,37
54,1,685.7925,0,730,2058.0,2857.0,4205.0,501.0,10.0,200.0,1.0,0.0,686.8435,0.0,5.0,09_12_2014 level23_spatial_F+V 15_44 Block7-45.txt,37,37
55,1,693.4748,0,730,2058.0,2857.0,4205.0,501.0,10.0,200.0,1.0,1.0,694.4783,1.0,5.0,09_12_2014 level23_spatial_F+V 15_44 Block7-45.txt,37,37
56,0,704.7564,0,730,2058.0,2857.0,4205.0,1001.0,10.0,200.0,1.0,0.0,705.9019,0.0,2.0,09_12_2014 level23_spatial_F+V 15_44 Block7-45.txt,37,37
57,1,723.4816,0,730,2058.0,2857.0,4205.0,1001.0,10.0,200.0,1.0,0.0,725.2568,0.0,2.0,09_12_2014 level23_spatial_F+V 15_44 Block7-45.txt,37,37
58,1,733.3229,0,730,2058.0,2857.0,4205.0,1001.0,10.0,200.0,1.0,1.0,735.7969,1.0,2.0,09_12_2014 level23_spatial_F+V 15_44 Block7-45.txt,37,37
59,0,748.0037,0,730,2058.0,2857.0,4205.0,801.0,10.0,200.0,1.0,0.0,748.8562,0.0,4.0,09_12_2014 level23_spatial_F+V 15_44 Block7-45.txt,37,37
60,1,759.4879,0,730,2058.0,2857.0,4205.0,801.0,10.0,200.0,1.0,1.0,760.1366,1.0,4.0,09_12_2014 level23_spatial_F+V 15_44 Block7-45.txt,37,37
61,0,773.6514,0,460,1105.0,2857.0,4205.0,701.0,10.0,200.0,0.0,0.0,774.7875,1.0,2.0,09_12_2014 level23_spatial_F+V 15_44 Block7-45.txt,37,37
62,0,779.4945,0,460,1105.0,2857.0,4205.0,751.0,10.0,200.0,0.0,0.0,780.6252,1.0,5.0,09_12_2014 level23_spatial_F+V 15_44 Block7-45.txt,37,37
63,0,791.1786,0,460,1105.0,2857.0,4205.0,951.0,10.0,200.0,0.0,0.0,792.8561,1.0,5.0,09_12_2014 level23_spatial_F+V 15_44 Block7-45.txt,37,37
64,0,797.4674,0,730,2058.0,2857.0,4205.0,851.0,10.0,200.0,1.0,0.0,798.4805,0.0,2.0,09_12_2014 level23_spatial_F+V 15_44 Block7-45.txt,37,37
65,1,806.6735,0,730,2058.0,2857.0,4205.0,851.0,10.0,200.0,1.0,1.0,807.3773,1.0,2.0,09_12_2014 level23_spatial_F+V 15_44 Block7-45.txt,37,37
66,0,813.8446,0,730,2058.0,2857.0,4205.0,701.0,10.0,200.0,1.0,0.0,814.6533,0.0,1.0,09_12_2014 level23_spatial_F+V 15_44 Block7-45.txt,37,37
67,1,844.2304,0,730,2058.0,2857.0,4205.0,701.0,10.0,200.0,1.0,1.0,845.0799,1.0,1.0,09_12_2014 level23_spatial_F+V 15_44 Block7-45.txt,37,37
68,0,863.2762,1,460,1105.0,2857.0,4205.0,951.0,10.0,200.0,0.0,0.0,864.8665,1.0,5.0,09_12_2014 level23_spatial_F+V 15_44 Block7-45.txt,37,37
69,0,869.5185,0,730,2058.0,2857.0,4205.0,801.0,10.0,200.0,1.0,0.0,870.4827,0.0,0.0,09_12_2014 level23_spatial_F+V 15_44 Block7-45.txt,37,37
70,1,877.1105,0,730,2058.0,2857.0,4205.0,801.0,10.0,200.0,1.0,1.0,879.0276,1.0,0.0,09_12_2014 level23_spatial_F+V 15_44 Block7-45.txt,37,37
71,0,893.5209,0,730,2058.0,2857.0,4205.0,501.0,10.0,200.0,1.0,1.0,895.197,1.0,5.0,09_12_2014 level23_spatial_F+V 15_44 Block7-45.txt,37,37
72,0,909.282,0,460,1105.0,2857.0,4205.0,1001.0,10.0,200.0,0.0,0.0,910.8834,1.0,1.0,09_12_2014 level23_spatial_F+V 15_44 Block7-45.txt,37,37
73,0,914.5384,0,460,1105.0,2857.0,4205.0,601.0,10.0,200.0,0.0,0.0,916.644,1.0,0.0,09_12_2014 level23_spatial_F+V 15_44 Block7-45.txt,37,37
74,0,921.3964,0,460,1105.0,2857.0,4205.0,551.0,10.0,200.0,0.0,0.0,923.0985,1.0,2.0,09_12_2014 level23_spatial_F+V 15_44 Block7-45.txt,37,37
75,0,927.9122,0,730,2058.0,2857.0,4205.0,851.0,10.0,200.0,1.0,0.0,929.3065,0.0,5.0,09_12_2014 level23_spatial_F+V 15_44 Block7-45.txt,37,37
76,1,966.2892,0,730,2058.0,2857.0,4205.0,851.0,10.0,200.0,1.0,0.0,967.3951,0.0,5.0,09_12_2014 level23_spatial_F+V 15_44 Block7-45.txt,37,37
1,0,10.6156,0,460,1105.0,2857.0,4205.0,901.0,10.0,200.0,0.0,0.0,11.7564,1.0,1.0,30_04_2015 level23_spatial_F+V 08_58 Block10-18.txt,37,37
2,0,16.6331,0,460,1105.0,2857.0,4205.0,1001.0,10.0,200.0,0.0,0.0,17.1996,1.0,3.0,30_04_2015 level23_spatial_F+V 08_58 Block10-18.txt,37,37
3,0,21.6309,0,460,1105.0,2857.0,4205.0,501.0,10.0,200.0,0.0,0.0,22.9475,1.0,2.0,30_04_2015 level23_spatial_F+V 08_58 Block10-18.txt,37,37
4,0,32.9868,0,730,2058.0,2857.0,4205.0,851.0,10.0,200.0,1.0,0.0,33.8142,0.0,5.0,30_04_2015 level23_spatial_F+V 08_58 Block10-18.txt,37,37
5,1,40.5912,0,730,2058.0,2857.0,4205.0,851.0,10.0,200.0,1.0,1.0,41.6642,1.0,5.0,30_04_2015 level23_spatial_F+V 08_58 Block10-18.txt,37,37
6,0,53.466,0,730,2058.0,2857.0,4205.0,601.0,10.0,200.0,1.0,0.0,54.1755,0.0,0.0,30_04_2015 level23_spatial_F+V 08_58 Block10-18.txt,37,37
7,1,68.2286,0,730,2058.0,2857.0,4205.0,601.0,10.0,200.0,1.0,0.0,69.4291,0.0,0.0,30_04_2015 level23_spatial_F+V 08_58 Block10-18.txt,37,37
8,1,75.388,0,730,2058.0,2857.0,4205.0,601.0,10.0,200.0,1.0,0.0,76.7698,0.0,0.0,30_04_2015 level23_spatial_F+V 08_58 Block10-18.txt,37,37
9,1,85.042,0,730,2058.0,2857.0,4205.0,601.0,10.0,200.0,1.0,1.0,85.6956,1.0,0.0,30_04_2015 level23_spatial_F+V 08_58 Block10-18.txt,37,37
10,0,102.3814,0,730,2058.0,2857.0,4205.0,801.0,10.0,200.0,1.0,1.0,103.224,1.0,1.0,30_04_2015 level23_spatial_F+V 08_58 Block10-18.txt,37,37
11,0,114.5013,0,460,1105.0,2857.0,4205.0,551.0,10.0,200.0,0.0,0.0,115.6473,1.0,4.0,30_04_2015 level23_spatial_F+V 08_58 Block10-18.txt,37,37
12,0,122.3544,0,730,2058.0,2857.0,4205.0,701.0,10.0,200.0,1.0,0.0,123.4922,0.0,4.0,30_04_2015 level23_spatial_F+V 08_58 Block10-18.txt,37,37
13,1,130.5522,0,730,2058.0,2857.0,4205.0,701.0,10.0,200.0,1.0,1.0,131.6302,1.0,4.0,30_04_2015 level23_spatial_F+V 08_58 Block10-18.txt,37,37
14,0,142.0846,0,730,2058.0,2857.0,4205.0,951.0,10.0,200.0,1.0,1.0,143.1626,1.0,3.0,30_04_2015 level23_spatial_F+V 08_58 Block10-18.txt,37,37
15,0,159.1386,0,460,1105.0,2857.0,4205.0,751.0,10.0,200.0,0.0,0.0,160.0379,1.0,0.0,30_04_2015 level23_spatial_F+V 08_58 Block10-18.txt,37,37
16,0,163.8737,0,730,2058.0,2857.0,4205.0,951.0,10.0,200.0,1.0,0.0,164.7674,0.0,1.0,30_04_2015 level23_spatial_F+V 08_58 Block10-18.txt,37,37
17,1,171.7917,0,730,2058.0,2857.0,4205.0,951.0,10.0,200.0,1.0,1.0,172.5237,1.0,1.0,30_04_2015 level23_spatial_F+V 08_58 Block10-18.txt,37,37
18,0,183.5136,0,460,1105.0,2857.0,4205.0,501.0,10.0,200.0,0.0,0.0,184.4638,1.0,2.0,30_04_2015 level23_spatial_F+V 08_58 Block10-18.txt,37,37
19,0,191.1565,0,730,2058.0,2857.0,4205.0,1001.0,10.0,200.0,1.0,1.0,192.0072,1.0,0.0,30_04_2015 level23_spatial_F+V 08_58 Block10-18.txt,37,37
20,0,203.2357,0,460,1105.0,2857.0,4205.0,801.0,10.0,200.0,0.0,0.0,203.9799,1.0,0.0,30_04_2015 level23_spatial_F+V 08_58 Block10-18.txt,37,37
21,0,207.3958,0,730,2058.0,2857.0,4205.0,601.0,10.0,200.0,1.0,0.0,208.6906,0.0,2.0,30_04_2015 level23_spatial_F+V 08_58 Block10-18.txt,37,37
22,1,215.303,0,730,2058.0,2857.0,4205.0,601.0,10.0,200.0,1.0,1.0,216.2366,1.0,2.0,30_04_2015 level23_spatial_F+V 08_58 Block10-18.txt,37,37
23,0,225.6546,1,460,1105.0,2857.0,4205.0,701.0,10.0,200.0,0.0,0.0,226.3952,1.0,1.0,30_04_2015 level23_spatial_F+V 08_58 Block10-18.txt,37,37
24,0,229.5313,0,460,1105.0,2857.0,4205.0,651.0,10.0,200.0,0.0,0.0,232.1637,1.0,5.0,30_04_2015 level23_spatial_F+V 08_58 Block10-18.txt,37,37
25,0,235.5064,0,730,2058.0,2857.0,4205.0,901.0,10.0,200.0,1.0,1.0,237.1269,1.0,5.0,30_04_2015 level23_spatial_F+V 08_58 Block10-18.txt,37,37
26,0,252.7539,0,730,2058.0,2857.0,4205.0,751.0,10.0,200.0,1.0,0.0,253.6313,0.0,5.0,30_04_2015 level23_spatial_F+V 08_58 Block10-18.txt,37,37
27,1,260.3752,0,730,2058.0,2857.0,4205.0,751.0,10.0,200.0,1.0,1.0,261.6931,1.0,5.0,30_04_2015 level23_spatial_F+V 08_58 Block10-18.txt,37,37
28,0,272.7386,1,730,2058.0,2857.0,4205.0,851.0,10.0,200.0,1.0,1.0,273.4497,1.0,4.0,30_04_2015 level23_spatial_F+V 08_58 Block10-18.txt,37,37
29,0,291.7703,0,460,1105.0,2857.0,4205.0,901.0,10.0,200.0,0.0,0.0,292.4375,1.0,3.0,30_04_2015 level23_spatial_F+V 08_58 Block10-18.txt,37,37
30,0,296.5465,1,460,1105.0,2857.0,4205.0,701.0,10.0,200.0,0.0,0.0,297.5236,1.0,1.0,30_04_2015 level23_spatial_F+V 08_58 Block10-18.txt,37,37
31,0,306.1528,0,460,1105.0,2857.0,4205.0,651.0,10.0,200.0,0.0,0.0,307.4158,1.0,5.0,30_04_2015 level23_spatial_F+V 08_58 Block10-18.txt,37,37
32,0,311.1959,0,460,1105.0,2857.0,4205.0,851.0,10.0,200.0,0.0,0.0,312.2846,1.0,3.0,30_04_2015 level23_spatial_F+V 08_58 Block10-18.txt,37,37
33,0,315.3496,0,730,2058.0,2857.0,4205.0,501.0,10.0,200.0,1.0,1.0,317.3868,1.0,2.0,30_04_2015 level23_spatial_F+V 08_58 Block10-18.txt,37,37
34,0,330.1638,0,460,1105.0,2857.0,4205.0,751.0,10.0,200.0,0.0,0.0,330.9568,1.0,4.0,30_04_2015 level23_spatial_F+V 08_58 Block10-18.txt,37,37
35,0,334.0134,0,460,1105.0,2857.0,4205.0,601.0,10.0,200.0,0.0,0.0,335.1751,1.0,5.0,30_04_2015 level23_spatial_F+V 08_58 Block10-18.txt,37,37
36,0,342.7153,0,730,2058.0,2857.0,4205.0,551.0,10.0,200.0,1.0,1.0,344.7293,1.0,3.0,30_04_2015 level23_spatial_F+V 08_58 Block10-18.txt,37,37
37,0,354.2709,0,730,2058.0,2857.0,4205.0,801.0,10.0,200.0,1.0,1.0,355.0325,1.0,2.0,30_04_2015 level23_spatial_F+V 08_58 Block10-18.txt,37,37
38,0,367.426,0,730,2058.0,2857.0,4205.0,951.0,10.0,200.0,1.0,1.0,368.6696,1.0,4.0,30_04_2015 level23_spatial_F+V 08_58 Block10-18.txt,37,37
39,0,381.4056,0,730,2058.0,2857.0,4205.0,751.0,10.0,200.0,1.0,0.0,382.7488,0.0,3.0,30_04_2015 level23_spatial_F+V 08_58 Block10-18.txt,37,37
40,1,396.2558,0,730,2058.0,2857.0,4205.0,751.0,10.0,200.0,1.0,1.0,398.2489,1.0,3.0,30_04_2015 level23_spatial_F+V 08_58 Block10-18.txt,37,37
41,0,408.7528,0,460,1105.0,2857.0,4205.0,901.0,10.0,200.0,0.0,0.0,409.5203,1.0,4.0,30_04_2015 level23_spatial_F+V 08_58 Block10-18.txt,37,37
42,0,412.5713,0,460,1105.0,2857.0,4205.0,601.0,10.0,200.0,0.0,0.0,413.5913,1.0,2.0,30_04_2015 level23_spatial_F+V 08_58 Block10-18.txt,37,37
43,0,420.3069,0,730,2058.0,2857.0,4205.0,651.0,10.0,200.0,1.0,1.0,421.7831,1.0,1.0,30_04_2015 level23_spatial_F+V 08_58 Block10-18.txt,37,37
44,0,432.2275,0,730,2058.0,2857.0,4205.0,701.0,10.0,200.0,1.0,1.0,433.1273,1.0,0.0,30_04_2015 level23_spatial_F+V 08_58 Block10-18.txt,37,37
45,0,445.6385,0,460,1105.0,2857.0,4205.0,951.0,10.0,200.0,0.0,1.0,446.5347,0.0,0.0,30_04_2015 level23_spatial_F+V 08_58 Block10-18.txt,37,37
46,1,456.4832,1,460,1105.0,2857.0,4205.0,951.0,10.0,200.0,0.0,1.0,460.3638,0.0,0.0,30_04_2015 level23_spatial_F+V 08_58 Block10-18.txt,37,37
47,1,468.6031,0,460,1105.0,2857.0,4205.0,951.0,10.0,200.0,0.0,0.0,469.5533,1.0,0.0,30_04_2015 level23_spatial_F+V 08_58 Block10-18.txt,37,37
48,0,472.7686,0,460,1105.0,2857.0,4205.0,501.0,10.0,200.0,0.0,0.0,474.4079,1.0,3.0,30_04_2015 level23_spatial_F+V 08_58 Block10-18.txt,37,37
49,0,478.0787,0,460,1105.0,2857.0,4205.0,551.0,10.0,200.0,0.0,0.0,479.25,1.0,5.0,30_04_2015 level23_spatial_F+V 08_58 Block10-18.txt,37,37
50,0,487.4789,0,730,2058.0,2857.0,4205.0,1001.0,10.0,200.0,1.0,1.0,488.6642,1.0,0.0,30_04_2015 level23_spatial_F+V 08_58 Block10-18.txt,37,37
51,0,499.2116,0,730,2058.0,2857.0,4205.0,801.0,10.0,200.0,1.0,1.0,500.359,1.0,5.0,30_04_2015 level23_spatial_F+V 08_58 Block10-18.txt,37,37
52,0,510.7846,0,730,2058.0,2857.0,4205.0,851.0,10.0,200.0,1.0,1.0,512.1575,1.0,4.0,30_04_2015 level23_spatial_F+V 08_58 Block10-18.txt,37,37
53,0,522.0241,0,460,1105.0,2857.0,4205.0,501.0,10.0,200.0,0.0,0.0,523.0406,1.0,0.0,30_04_2015 level23_spatial_F+V 08_58 Block10-18.txt,37,37
54,0,529.732,0,730,2058.0,2857.0,4205.0,1001.0,10.0,200.0,1.0,1.0,530.3885,1.0,5.0,30_04_2015 level23_spatial_F+V 08_58 Block10-18.txt,37,37
55,0,542.0515,0,460,1105.0,2857.0,4205.0,551.0,10.0,200.0,0.0,0.0,542.7737,1.0,3.0,30_04_2015 level23_spatial_F+V 08_58 Block10-18.txt,37,37
56,0,546.6894,0,730,2058.0,2857.0,4205.0,651.0,10.0,200.0,1.0,1.0,547.8298,1.0,2.0,30_04_2015 level23_spatial_F+V 08_58 Block10-18.txt,37,37
57,0,557.4722,0,730,2058.0,2857.0,4205.0,751.0,10.0,200.0,1.0,0.0,558.2253,0.0,3.0,30_04_2015 level23_spatial_F+V 08_58 Block10-18.txt,37,37
58,1,564.9814,1,730,2058.0,2857.0,4205.0,751.0,10.0,200.0,1.0,1.0,566.2582,1.0,3.0,30_04_2015 level23_spatial_F+V 08_58 Block10-18.txt,37,37
59,0,584.7825,1,730,2058.0,2857.0,4205.0,601.0,10.0,200.0,1.0,0.0,588.8679,0.0,5.0,30_04_2015 level23_spatial_F+V 08_58 Block10-18.txt,37,37
60,1,596.2092,0,730,2058.0,2857.0,4205.0,601.0,10.0,200.0,1.0,1.0,597.9265,1.0,5.0,30_04_2015 level23_spatial_F+V 08_58 Block10-18.txt,37,37
61,0,607.3595,0,730,2058.0,2857.0,4205.0,701.0,10.0,200.0,1.0,0.0,608.0356,0.0,1.0,30_04_2015 level23_spatial_F+V 08_58 Block10-18.txt,37,37
62,1,613.9413,0,730,2058.0,2857.0,4205.0,701.0,10.0,200.0,1.0,1.0,616.2238,1.0,1.0,30_04_2015 level23_spatial_F+V 08_58 Block10-18.txt,37,37
63,0,626.2542,0,460,1105.0,2857.0,4205.0,801.0,10.0,200.0,0.0,0.0,627.0509,1.0,5.0,30_04_2015 level23_spatial_F+V 08_58 Block10-18.txt,37,37
64,0,630.53,0,730,2058.0,2857.0,4205.0,951.0,10.0,200.0,1.0,0.0,631.1931,0.0,4.0,30_04_2015 level23_spatial_F+V 08_58 Block10-18.txt,37,37
65,1,641.3301,1,730,2058.0,2857.0,4205.0,951.0,10.0,200.0,1.0,1.0,645.7261,1.0,4.0,30_04_2015 level23_spatial_F+V 08_58 Block10-18.txt,37,37
66,0,657.613,0,460,1105.0,2857.0,4205.0,551.0,10.0,200.0,0.0,0.0,659.1654,1.0,1.0,30_04_2015 level23_spatial_F+V 08_58 Block10-18.txt,37,37
67,0,662.7783,0,460,1105.0,2857.0,4205.0,901.0,10.0,200.0,0.0,0.0,663.9696,1.0,2.0,30_04_2015 level23_spatial_F+V 08_58 Block10-18.txt,37,37
68,0,667.6502,0,460,1105.0,2857.0,4205.0,801.0,10.0,200.0,0.0,0.0,668.8675,1.0,4.0,30_04_2015 level23_spatial_F+V 08_58 Block10-18.txt,37,37
69,0,676.3396,0,460,1105.0,2857.0,4205.0,751.0,10.0,200.0,0.0,0.0,677.5796,1.0,0.0,30_04_2015 level23_spatial_F+V 08_58 Block10-18.txt,37,37
70,0,681.583,1,730,2058.0,2857.0,4205.0,951.0,10.0,200.0,1.0,1.0,685.6769,1.0,1.0,30_04_2015 level23_spatial_F+V 08_58 Block10-18.txt,37,37
71,0,700.6594,0,460,1105.0,2857.0,4205.0,851.0,10.0,200.0,0.0,0.0,701.8668,1.0,4.0,30_04_2015 level23_spatial_F+V 08_58 Block10-18.txt,37,37
72,0,705.421,0,730,2058.0,2857.0,4205.0,1001.0,10.0,200.0,1.0,1.0,707.603,1.0,3.0,30_04_2015 level23_spatial_F+V 08_58 Block10-18.txt,37,37
73,0,716.1722,1,730,2058.0,2857.0,4205.0,701.0,10.0,200.0,1.0,0.0,717.1161,0.0,2.0,30_04_2015 level23_spatial_F+V 08_58 Block10-18.txt,37,37
74,1,724.2029,1,730,2058.0,2857.0,4205.0,701.0,10.0,200.0,1.0,1.0,730.5686,1.0,2.0,30_04_2015 level23_spatial_F+V 08_58 Block10-18.txt,37,37
75,0,743.9841,1,730,2058.0,2857.0,4205.0,501.0,10.0,200.0,1.0,1.0,747.2556,1.0,3.0,30_04_2015 level23_spatial_F+V 08_58 Block10-18.txt,37,37
76,0,757.3394,1,730,2058.0,2857.0,4205.0,601.0,10.0,200.0,1.0,0.0,760.1234,0.0,1.0,30_04_2015 level23_spatial_F+V 08_58 Block10-18.txt,37,37
77,1,770.7882,0,730,2058.0,2857.0,4205.0,601.0,10.0,200.0,1.0,0.0,771.4303,0.0,1.0,30_04_2015 level23_spatial_F+V 08_58 Block10-18.txt,37,37
78,1,777.8569,0,730,2058.0,2857.0,4205.0,601.0,10.0,200.0,1.0,1.0,778.5835,1.0,1.0,30_04_2015 level23_spatial_F+V 08_58 Block10-18.txt,37,37
79,0,786.9766,0,730,2058.0,2857.0,4205.0,801.0,10.0,200.0,1.0,1.0,789.7245,1.0,0.0,30_04_2015 level23_spatial_F+V 08_58 Block10-18.txt,37,37
80,0,801.1262,1,460,1105.0,2857.0,4205.0,951.0,10.0,200.0,0.0,0.0,802.1283,1.0,2.0,30_04_2015 level23_spatial_F+V 08_58 Block10-18.txt,37,37
81,0,807.9562,0,730,2058.0,2857.0,4205.0,701.0,10.0,200.0,1.0,1.0,809.5316,1.0,0.0,30_04_2015 level23_spatial_F+V 08_58 Block10-18.txt,37,37
82,0,819.4961,0,730,2058.0,2857.0,4205.0,501.0,10.0,200.0,1.0,0.0,820.9038,0.0,2.0,30_04_2015 level23_spatial_F+V 08_58 Block10-18.txt,37,37
83,1,830.2078,0,730,2058.0,2857.0,4205.0,501.0,10.0,200.0,1.0,1.0,831.4325,1.0,2.0,30_04_2015 level23_spatial_F+V 08_58 Block10-18.txt,37,37
84,0,840.631,0,460,1105.0,2857.0,4205.0,751.0,10.0,200.0,0.0,0.0,841.5509,1.0,1.0,30_04_2015 level23_spatial_F+V 08_58 Block10-18.txt,37,37
85,0,844.4411,0,730,2058.0,2857.0,4205.0,551.0,10.0,200.0,1.0,0.0,846.3625,0.0,4.0,30_04_2015 level23_spatial_F+V 08_58 Block10-18.txt,37,37
86,1,852.1583,0,730,2058.0,2857.0,4205.0,551.0,10.0,200.0,1.0,0.0,853.2859,0.0,4.0,30_04_2015 level23_spatial_F+V 08_58 Block10-18.txt,37,37
87,1,860.4163,0,730,2058.0,2857.0,4205.0,551.0,10.0,200.0,1.0,1.0,861.563,1.0,4.0,30_04_2015 level23_spatial_F+V 08_58 Block10-18.txt,37,37
88,0,872.5754,0,460,1105.0,2857.0,4205.0,651.0,10.0,200.0,0.0,0.0,873.949,1.0,1.0,30_04_2015 level23_spatial_F+V 08_58 Block10-18.txt,37,37
89,0,877.2569,0,460,1105.0,2857.0,4205.0,1001.0,10.0,200.0,0.0,1.0,880.586,0.0,2.0,30_04_2015 level23_spatial_F+V 08_58 Block10-18.txt,37,37
90,1,887.2628,0,460,1105.0,2857.0,4205.0,1001.0,10.0,200.0,0.0,0.0,887.9448,1.0,2.0,30_04_2015 level23_spatial_F+V 08_58 Block10-18.txt,37,37
91,0,891.814,0,460,1105.0,2857.0,4205.0,901.0,10.0,200.0,0.0,0.0,893.4777,1.0,0.0,30_04_2015 level23_spatial_F+V 08_58 Block10-18.txt,37,37
92,0,896.9339,0,460,1105.0,2857.0,4205.0,601.0,10.0,200.0,0.0,0.0,898.3103,1.0,5.0,30_04_2015 level23_spatial_F+V 08_58 Block10-18.txt,37,37
93,0,902.1349,0,460,1105.0,2857.0,4205.0,901.0,10.0,200.0,0.0,0.0,903.3829,1.0,4.0,30_04_2015 level23_spatial_F+V 08_58 Block10-18.txt,37,37
94,0,906.7233,0,460,1105.0,2857.0,4205.0,601.0,10.0,200.0,0.0,0.0,908.875,1.0,3.0,30_04_2015 level23_spatial_F+V 08_58 Block10-18.txt,37,37
95,0,912.7268,0,460,1105.0,2857.0,4205.0,651.0,10.0,200.0,0.0,0.0,914.2566,1.0,2.0,30_04_2015 level23_spatial_F+V 08_58 Block10-18.txt,37,37
96,0,918.0914,0,460,1105.0,2857.0,4205.0,1001.0,10.0,200.0,0.0,0.0,919.7053,1.0,0.0,30_04_2015 level23_spatial_F+V 08_58 Block10-18.txt,37,37
97,0,923.3445,1,460,1105.0,2857.0,4205.0,751.0,10.0,200.0,0.0,0.0,925.4682,1.0,4.0,30_04_2015 level23_spatial_F+V 08_58 Block10-18.txt,37,37
98,0,928.8907,0,730,2058.0,2857.0,4205.0,701.0,10.0,200.0,1.0,1.0,930.6431,1.0,5.0,30_04_2015 level23_spatial_F+V 08_58 Block10-18.txt,37,37
99,0,938.8804,0,730,2058.0,2857.0,4205.0,851.0,10.0,200.0,1.0,1.0,939.9854,1.0,4.0,30_04_2015 level23_spatial_F+V 08_58 Block10-18.txt,37,37
100,0,949.7387,0,460,1105.0,2857.0,4205.0,801.0,10.0,200.0,0.0,0.0,950.8984,1.0,5.0,30_04_2015 level23_spatial_F+V 08_58 Block10-18.txt,37,37
101,0,953.9473,0,730,2058.0,2857.0,4205.0,501.0,10.0,200.0,1.0,0.0,956.1047,0.0,3.0,30_04_2015 level23_spatial_F+V 08_58 Block10-18.txt,37,37
102,1,966.1856,0,730,2058.0,2857.0,4205.0,501.0,10.0,200.0,1.0,1.0,968.6122,1.0,3.0,30_04_2015 level23_spatial_F+V 08_58 Block10-18.txt,37,37
103,0,980.2764,0,460,1105.0,2857.0,4205.0,951.0,10.0,200.0,0.0,0.0,981.1984,1.0,3.0,30_04_2015 level23_spatial_F+V 08_58 Block10-18.txt,37,37
104,0,984.6388,0,730,2058.0,2857.0,4205.0,751.0,10.0,200.0,1.0,1.0,986.1779,1.0,5.0,30_04_2015 level23_spatial_F+V 08_58 Block10-18.txt,37,37
105,0,995.0184,0,460,1105.0,2857.0,4205.0,901.0,10.0,200.0,0.0,0.0,996.8169,1.0,4.0,30_04_2015 level23_spatial_F+V 08_58 Block10-18.txt,37,37
106,0,1000.3612,0,460,1105.0,2857.0,4205.0,1001.0,10.0,200.0,0.0,0.0,1001.8564,1.0,1.0,30_04_2015 level23_spatial_F+V 08_58 Block10-18.txt,37,37
107,0,1004.9724,1,460,1105.0,2857.0,4205.0,551.0,10.0,200.0,0.0,0.0,1007.1228,1.0,2.0,30_04_2015 level23_spatial_F+V 08_58 Block10-18.txt,37,37
108,0,1009.7842,0,460,1105.0,2857.0,4205.0,501.0,10.0,200.0,0.0,0.0,1012.5377,1.0,0.0,30_04_2015 level23_spatial_F+V 08_58 Block10-18.txt,37,37
109,0,1016.503,0,730,2058.0,2857.0,4205.0,951.0,10.0,200.0,1.0,0.0,1017.7492,0.0,0.0,30_04_2015 level23_spatial_F+V 08_58 Block10-18.txt,37,37
110,1,1027.0503,0,730,2058.0,2857.0,4205.0,951.0,10.0,200.0,1.0,1.0,1028.3899,1.0,0.0,30_04_2015 level23_spatial_F+V 08_58 Block10-18.txt,37,37
111,0,1037.7596,0,730,2058.0,2857.0,4205.0,701.0,10.0,200.0,1.0,1.0,1038.9914,1.0,5.0,30_04_2015 level23_spatial_F+V 08_58 Block10-18.txt,37,37
112,0,1047.3277,1,730,2058.0,2857.0,4205.0,801.0,10.0,200.0,1.0,0.0,1049.3936,0.0,2.0,30_04_2015 level23_spatial_F+V 08_58 Block10-18.txt,37,37
113,1,1063.6943,0,730,2058.0,2857.0,4205.0,801.0,10.0,200.0,1.0,1.0,1065.6895,1.0,2.0,30_04_2015 level23_spatial_F+V 08_58 Block10-18.txt,37,37
114,0,1074.9723,0,730,2058.0,2857.0,4205.0,601.0,10.0,200.0,1.0,1.0,1076.806,1.0,0.0,30_04_2015 level23_spatial_F+V 08_58 Block10-18.txt,37,37
115,0,1091.7348,0,730,2058.0,2857.0,4205.0,651.0,10.0,200.0,1.0,0.0,1093.166,0.0,1.0,30_04_2015 level23_spatial_F+V 08_58 Block10-18.txt,37,37
116,1,1102.1944,1,730,2058.0,2857.0,4205.0,651.0,10.0,200.0,1.0,1.0,1105.0805,1.0,1.0,30_04_2015 level23_spatial_F+V 08_58 Block10-18.txt,37,37
117,0,1115.7349,0,460,1105.0,2857.0,4205.0,751.0,10.0,200.0,0.0,0.0,1117.0465,1.0,3.0,30_04_2015 level23_spatial_F+V 08_58 Block10-18.txt,37,37
118,0,1123.7951,0,460,1105.0,2857.0,4205.0,551.0,10.0,200.0,0.0,0.0,1125.2766,1.0,1.0,30_04_2015 level23_spatial_F+V 08_58 Block10-18.txt,37,37
119,0,1128.898,1,460,1105.0,2857.0,4205.0,951.0,10.0,200.0,0.0,1.0,1131.3027,0.0,3.0,30_04_2015 level23_spatial_F+V 08_58 Block10-18.txt,37,37
120,1,1138.1893,0,460,1105.0,2857.0,4205.0,951.0,10.0,200.0,0.0,0.0,1140.0862,1.0,3.0,30_04_2015 level23_spatial_F+V 08_58 Block10-18.txt,37,37
121,0,1143.8374,0,460,1105.0,2857.0,4205.0,701.0,10.0,200.0,0.0,0.0,1145.0167,1.0,1.0,30_04_2015 level23_spatial_F+V 08_58 Block10-18.txt,37,37
122,0,1153.4199,0,730,2058.0,2857.0,4205.0,851.0,10.0,200.0,1.0,0.0,1155.6117,0.0,3.0,30_04_2015 level23_spatial_F+V 08_58 Block10-18.txt,37,37
123,1,1162.3163,0,730,2058.0,2857.0,4205.0,851.0,10.0,200.0,1.0,1.0,1163.097,1.0,3.0,30_04_2015 level23_spatial_F+V 08_58 Block10-18.txt,37,37
124,0,1175.7665,0,730,2058.0,2857.0,4205.0,901.0,10.0,200.0,1.0,0.0,1177.3262,0.0,1.0,30_04_2015 level23_spatial_F+V 08_58 Block10-18.txt,37,37
125,1,1184.1197,0,730,2058.0,2857.0,4205.0,901.0,10.0,200.0,1.0,0.0,1185.6736,0.0,1.0,30_04_2015 level23_spatial_F+V 08_58 Block10-18.txt,37,37
126,1,1192.0323,1,730,2058.0,2857.0,4205.0,901.0,10.0,200.0,1.0,1.0,1194.0977,1.0,1.0,30_04_2015 level23_spatial_F+V 08_58 Block10-18.txt,37,37
127,0,1204.1564,0,460,1105.0,2857.0,4205.0,651.0,10.0,200.0,0.0,0.0,1206.0409,1.0,0.0,30_04_2015 level23_spatial_F+V 08_58 Block10-18.txt,37,37
128,0,1209.972,1,730,2058.0,2857.0,4205.0,1001.0,10.0,200.0,1.0,0.0,1214.6642,0.0,1.0,30_04_2015 level23_spatial_F+V 08_58 Block10-18.txt,37,37
129,1,1241.3486,0,730,2058.0,2857.0,4205.0,1001.0,10.0,200.0,1.0,1.0,1243.2732,1.0,1.0,30_04_2015 level23_spatial_F+V 08_58 Block10-18.txt,37,37
130,0,1255.7447,1,730,2058.0,2857.0,4205.0,501.0,10.0,200.0,1.0,1.0,1258.2703,1.0,4.0,30_04_2015 level23_spatial_F+V 08_58 Block10-18.txt,37,37
131,0,1264.8921,0,460,1105.0,2857.0,4205.0,601.0,10.0,200.0,0.0,0.0,1266.4842,1.0,2.0,30_04_2015 level23_spatial_F+V 08_58 Block10-18.txt,37,37
132,0,1269.3921,0,460,1105.0,2857.0,4205.0,551.0,10.0,200.0,0.0,0.0,1270.5553,1.0,5.0,30_04_2015 level23_spatial_F+V 08_58 Block10-18.txt,37,37
133,0,1274.0136,0,460,1105.0,2857.0,4205.0,1001.0,10.0,200.0,0.0,0.0,1275.236,1.0,5.0,30_04_2015 level23_spatial_F+V 08_58 Block10-18.txt,37,37
134,0,1278.4321,0,730,2058.0,2857.0,4205.0,801.0,10.0,200.0,1.0,0.0,1280.541,0.0,4.0,30_04_2015 level23_spatial_F+V 08_58 Block10-18.txt,37,37
135,1,1286.9032,0,730,2058.0,2857.0,4205.0,801.0,10.0,200.0,1.0,1.0,1288.6131,1.0,4.0,30_04_2015 level23_spatial_F+V 08_58 Block10-18.txt,37,37
136,0,1295.9399,0,460,1105.0,2857.0,4205.0,501.0,10.0,200.0,0.0,0.0,1297.2743,1.0,4.0,30_04_2015 level23_spatial_F+V 08_58 Block10-18.txt,37,37
137,0,1300.7086,0,730,2058.0,2857.0,4205.0,851.0,10.0,200.0,1.0,0.0,1301.9668,0.0,0.0,30_04_2015 level23_spatial_F+V 08_58 Block10-18.txt,37,37
138,1,1315.3981,0,730,2058.0,2857.0,4205.0,851.0,10.0,200.0,1.0,1.0,1317.2636,1.0,0.0,30_04_2015 level23_spatial_F+V 08_58 Block10-18.txt,37,37
139,0,1330.0802,0,730,2058.0,2857.0,4205.0,651.0,10.0,200.0,1.0,0.0,1331.3556,0.0,2.0,30_04_2015 level23_spatial_F+V 08_58 Block10-18.txt,37,37
140,1,1340.0877,0,730,2058.0,2857.0,4205.0,651.0,10.0,200.0,1.0,0.0,1341.0885,0.0,2.0,30_04_2015 level23_spatial_F+V 08_58 Block10-18.txt,37,37
141,1,1352.6509,0,730,2058.0,2857.0,4205.0,651.0,10.0,200.0,1.0,0.0,1353.6437,0.0,2.0,30_04_2015 level23_spatial_F+V 08_58 Block10-18.txt,37,37
142,1,1360.2624,0,730,2058.0,2857.0,4205.0,651.0,10.0,200.0,1.0,1.0,1361.2823,1.0,2.0,30_04_2015 level23_spatial_F+V 08_58 Block10-18.txt,37,37
143,0,1371.3704,1,730,2058.0,2857.0,4205.0,701.0,10.0,200.0,1.0,1.0,1375.8659,1.0,2.0,30_04_2015 level23_spatial_F+V 08_58 Block10-18.txt,37,37
144,0,1383.8887,0,730,2058.0,2857.0,4205.0,751.0,10.0,200.0,1.0,0.0,1385.7674,0.0,3.0,30_04_2015 level23_spatial_F+V 08_58 Block10-18.txt,37,37
145,1,1401.9849,0,730,2058.0,2857.0,4205.0,751.0,10.0,200.0,1.0,1.0,1403.5919,1.0,3.0,30_04_2015 level23_spatial_F+V 08_58 Block10-18.txt,37,37
146,0,1412.5282,0,460,1105.0,2857.0,4205.0,951.0,10.0,200.0,0.0,0.0,1413.7044,1.0,2.0,30_04_2015 level23_spatial_F+V 08_58 Block10-18.txt,37,37
147,0,1416.4582,0,730,2058.0,2857.0,4205.0,601.0,10.0,200.0,1.0,0.0,1418.9224,0.0,0.0,30_04_2015 level23_spatial_F+V 08_58 Block10-18.txt,37,37
148,1,1432.6358,0,730,2058.0,2857.0,4205.0,601.0,10.0,200.0,1.0,1.0,1433.8166,1.0,0.0,30_04_2015 level23_spatial_F+V 08_58 Block10-18.txt,37,37
149,0,1441.6095,0,730,2058.0,2857.0,4205.0,601.0,10.0,200.0,1.0,0.0,1442.342,0.0,1.0,30_04_2015 level23_spatial_F+V 08_58 Block10-18.txt,37,37
1,0,14.1024,1,460,1105.0,2857.0,4205.0,851.0,10.0,200.0,0.0,0.0,16.1002,1.0,2.0,09_01_2015 level23_spatial_F+V 09_25 Block7-70.txt,37,37
2,0,21.0177,0,460,1105.0,2857.0,4205.0,701.0,10.0,200.0,0.0,0.0,21.8001,1.0,0.0,09_01_2015 level23_spatial_F+V 09_25 Block7-70.txt,37,37
3,0,30.9499,0,730,2058.0,2857.0,4205.0,551.0,10.0,200.0,1.0,1.0,32.2925,1.0,0.0,09_01_2015 level23_spatial_F+V 09_25 Block7-70.txt,37,37
4,0,36.814,0,730,2058.0,2857.0,4205.0,951.0,10.0,200.0,1.0,1.0,37.9328,1.0,4.0,09_01_2015 level23_spatial_F+V 09_25 Block7-70.txt,37,37
5,0,53.6991,0,460,1105.0,2857.0,4205.0,651.0,10.0,200.0,0.0,0.0,54.9539,1.0,3.0,09_01_2015 level23_spatial_F+V 09_25 Block7-70.txt,37,37
6,0,66.6325,1,460,1105.0,2857.0,4205.0,751.0,10.0,200.0,0.0,0.0,68.076,1.0,4.0,09_01_2015 level23_spatial_F+V 09_25 Block7-70.txt,37,37
7,0,76.6079,0,460,1105.0,2857.0,4205.0,1001.0,10.0,200.0,0.0,0.0,77.7313,1.0,5.0,09_01_2015 level23_spatial_F+V 09_25 Block7-70.txt,37,37
8,0,85.1342,1,460,1105.0,2857.0,4205.0,501.0,10.0,200.0,0.0,0.0,86.503,1.0,0.0,09_01_2015 level23_spatial_F+V 09_25 Block7-70.txt,37,37
9,0,92.3038,0,730,2058.0,2857.0,4205.0,601.0,10.0,200.0,1.0,1.0,94.4351,1.0,5.0,09_01_2015 level23_spatial_F+V 09_25 Block7-70.txt,37,37
10,0,103.8227,0,730,2058.0,2857.0,4205.0,801.0,10.0,200.0,1.0,0.0,105.0741,0.0,2.0,09_01_2015 level23_spatial_F+V 09_25 Block7-70.txt,37,37
11,1,111.313,0,730,2058.0,2857.0,4205.0,801.0,10.0,200.0,1.0,1.0,112.0359,1.0,2.0,09_01_2015 level23_spatial_F+V 09_25 Block7-70.txt,37,37
12,0,121.5184,0,730,2058.0,2857.0,4205.0,851.0,10.0,200.0,1.0,0.0,122.563,0.0,2.0,09_01_2015 level23_spatial_F+V 09_25 Block7-70.txt,37,37
13,1,131.6172,0,730,2058.0,2857.0,4205.0,851.0,10.0,200.0,1.0,1.0,132.3919,1.0,2.0,09_01_2015 level23_spatial_F+V 09_25 Block7-70.txt,37,37
14,0,141.347,0,730,2058.0,2857.0,4205.0,801.0,10.0,200.0,1.0,0.0,142.3998,0.0,1.0,09_01_2015 level23_spatial_F+V 09_25 Block7-70.txt,37,37
15,1,152.0835,0,730,2058.0,2857.0,4205.0,801.0,10.0,200.0,1.0,0.0,153.3685,0.0,1.0,09_01_2015 level23_spatial_F+V 09_25 Block7-70.txt,37,37
16,1,162.5993,0,730,2058.0,2857.0,4205.0,801.0,10.0,200.0,1.0,0.0,163.5737,0.0,1.0,09_01_2015 level23_spatial_F+V 09_25 Block7-70.txt,37,37
17,1,169.8664,0,730,2058.0,2857.0,4205.0,801.0,10.0,200.0,1.0,1.0,171.3274,1.0,1.0,09_01_2015 level23_spatial_F+V 09_25 Block7-70.txt,37,37
18,0,179.6934,0,460,1105.0,2857.0,4205.0,701.0,10.0,200.0,0.0,0.0,180.9013,1.0,0.0,09_01_2015 level23_spatial_F+V 09_25 Block7-70.txt,37,37
19,0,186.4236,1,460,1105.0,2857.0,4205.0,501.0,10.0,200.0,0.0,0.0,187.6206,1.0,4.0,09_01_2015 level23_spatial_F+V 09_25 Block7-70.txt,37,37
20,0,193.7826,0,460,1105.0,2857.0,4205.0,651.0,10.0,200.0,0.0,0.0,195.8161,1.0,3.0,09_01_2015 level23_spatial_F+V 09_25 Block7-70.txt,37,37
21,0,200.9956,0,460,1105.0,2857.0,4205.0,751.0,10.0,200.0,0.0,0.0,202.2862,1.0,5.0,09_01_2015 level23_spatial_F+V 09_25 Block7-70.txt,37,37
22,0,207.0291,0,460,1105.0,2857.0,4205.0,601.0,10.0,200.0,0.0,0.0,208.3172,1.0,1.0,09_01_2015 level23_spatial_F+V 09_25 Block7-70.txt,37,37
23,0,213.723,0,730,2058.0,2857.0,4205.0,901.0,10.0,200.0,1.0,0.0,215.575,0.0,3.0,09_01_2015 level23_spatial_F+V 09_25 Block7-70.txt,37,37
24,1,224.3518,0,730,2058.0,2857.0,4205.0,901.0,10.0,200.0,1.0,1.0,225.0104,1.0,3.0,09_01_2015 level23_spatial_F+V 09_25 Block7-70.txt,37,37
25,0,233.0799,0,460,1105.0,2857.0,4205.0,1001.0,10.0,200.0,0.0,0.0,234.3587,1.0,5.0,09_01_2015 level23_spatial_F+V 09_25 Block7-70.txt,37,37
26,0,241.1579,0,730,2058.0,2857.0,4205.0,551.0,10.0,200.0,1.0,1.0,242.2412,1.0,4.0,09_01_2015 level23_spatial_F+V 09_25 Block7-70.txt,37,37
27,0,251.326,1,730,2058.0,2857.0,4205.0,801.0,10.0,200.0,1.0,0.0,252.2206,0.0,0.0,09_01_2015 level23_spatial_F+V 09_25 Block7-70.txt,37,37
28,1,261.2138,0,730,2058.0,2857.0,4205.0,801.0,10.0,200.0,1.0,1.0,262.7977,1.0,0.0,09_01_2015 level23_spatial_F+V 09_25 Block7-70.txt,37,37
29,0,270.59,0,460,1105.0,2857.0,4205.0,551.0,10.0,200.0,0.0,0.0,271.8853,1.0,2.0,09_01_2015 level23_spatial_F+V 09_25 Block7-70.txt,37,37
30,0,275.7288,0,730,2058.0,2857.0,4205.0,701.0,10.0,200.0,1.0,0.0,277.0023,0.0,4.0,09_01_2015 level23_spatial_F+V 09_25 Block7-70.txt,37,37
31,1,284.4674,0,730,2058.0,2857.0,4205.0,701.0,10.0,200.0,1.0,1.0,285.7628,1.0,4.0,09_01_2015 level23_spatial_F+V 09_25 Block7-70.txt,37,37
32,0,293.1265,1,460,1105.0,2857.0,4205.0,751.0,10.0,200.0,0.0,0.0,294.3598,1.0,2.0,09_01_2015 level23_spatial_F+V 09_25 Block7-70.txt,37,37
33,0,299.1714,0,460,1105.0,2857.0,4205.0,901.0,10.0,200.0,0.0,0.0,301.2715,1.0,4.0,09_01_2015 level23_spatial_F+V 09_25 Block7-70.txt,37,37
34,0,306.7937,0,730,2058.0,2857.0,4205.0,1001.0,10.0,200.0,1.0,0.0,307.3754,0.0,2.0,09_01_2015 level23_spatial_F+V 09_25 Block7-70.txt,37,37
35,1,318.0713,0,730,2058.0,2857.0,4205.0,1001.0,10.0,200.0,1.0,1.0,319.1989,1.0,2.0,09_01_2015 level23_spatial_F+V 09_25 Block7-70.txt,37,37
36,0,327.0482,0,460,1105.0,2857.0,4205.0,651.0,10.0,200.0,0.0,1.0,328.8052,0.0,3.0,09_01_2015 level23_spatial_F+V 09_25 Block7-70.txt,37,37
37,1,340.3445,0,460,1105.0,2857.0,4205.0,651.0,10.0,200.0,0.0,0.0,341.9978,1.0,3.0,09_01_2015 level23_spatial_F+V 09_25 Block7-70.txt,37,37
38,0,347.2801,0,730,2058.0,2857.0,4205.0,601.0,10.0,200.0,1.0,0.0,348.7031,0.0,1.0,09_01_2015 level23_spatial_F+V 09_25 Block7-70.txt,37,37
39,1,355.414,0,730,2058.0,2857.0,4205.0,601.0,10.0,200.0,1.0,1.0,356.5272,1.0,1.0,09_01_2015 level23_spatial_F+V 09_25 Block7-70.txt,37,37
40,0,363.5637,0,460,1105.0,2857.0,4205.0,851.0,10.0,200.0,0.0,0.0,364.6277,1.0,1.0,09_01_2015 level23_spatial_F+V 09_25 Block7-70.txt,37,37
41,0,369.0258,0,460,1105.0,2857.0,4205.0,501.0,10.0,200.0,0.0,0.0,370.4963,1.0,1.0,09_01_2015 level23_spatial_F+V 09_25 Block7-70.txt,37,37
42,0,374.9108,0,730,2058.0,2857.0,4205.0,701.0,10.0,200.0,1.0,0.0,376.5114,0.0,5.0,09_01_2015 level23_spatial_F+V 09_25 Block7-70.txt,37,37
43,1,382.8659,0,730,2058.0,2857.0,4205.0,701.0,10.0,200.0,1.0,1.0,384.1893,1.0,5.0,09_01_2015 level23_spatial_F+V 09_25 Block7-70.txt,37,37
44,0,392.7922,0,730,2058.0,2857.0,4205.0,501.0,10.0,200.0,1.0,1.0,394.2583,1.0,0.0,09_01_2015 level23_spatial_F+V 09_25 Block7-70.txt,37,37
45,0,404.1071,0,730,2058.0,2857.0,4205.0,601.0,10.0,200.0,1.0,0.0,405.4415,0.0,1.0,09_01_2015 level23_spatial_F+V 09_25 Block7-70.txt,37,37
46,1,414.0408,0,730,2058.0,2857.0,4205.0,601.0,10.0,200.0,1.0,1.0,415.5157,1.0,1.0,09_01_2015 level23_spatial_F+V 09_25 Block7-70.txt,37,37
47,0,424.2342,0,730,2058.0,2857.0,4205.0,901.0,10.0,200.0,1.0,0.0,425.1471,0.0,3.0,09_01_2015 level23_spatial_F+V 09_25 Block7-70.txt,37,37
48,1,432.8836,0,730,2058.0,2857.0,4205.0,901.0,10.0,200.0,1.0,1.0,433.9142,1.0,3.0,09_01_2015 level23_spatial_F+V 09_25 Block7-70.txt,37,37
49,0,445.887,1,730,2058.0,2857.0,4205.0,851.0,10.0,200.0,1.0,0.0,447.1501,0.0,3.0,09_01_2015 level23_spatial_F+V 09_25 Block7-70.txt,37,37
50,1,453.1174,0,730,2058.0,2857.0,4205.0,851.0,10.0,200.0,1.0,1.0,454.1107,1.0,3.0,09_01_2015 level23_spatial_F+V 09_25 Block7-70.txt,37,37
51,0,464.7829,0,730,2058.0,2857.0,4205.0,651.0,10.0,200.0,1.0,1.0,465.9446,1.0,5.0,09_01_2015 level23_spatial_F+V 09_25 Block7-70.txt,37,37
52,0,473.1759,0,730,2058.0,2857.0,4205.0,1001.0,10.0,200.0,1.0,0.0,474.0839,0.0,2.0,09_01_2015 level23_spatial_F+V 09_25 Block7-70.txt,37,37
53,1,481.1531,0,730,2058.0,2857.0,4205.0,1001.0,10.0,200.0,1.0,1.0,481.9199,1.0,2.0,09_01_2015 level23_spatial_F+V 09_25 Block7-70.txt,37,37
54,0,488.5078,0,460,1105.0,2857.0,4205.0,801.0,10.0,200.0,0.0,0.0,489.7841,1.0,2.0,09_01_2015 level23_spatial_F+V 09_25 Block7-70.txt,37,37
55,0,494.7993,0,460,1105.0,2857.0,4205.0,951.0,10.0,200.0,0.0,0.0,495.7848,1.0,1.0,09_01_2015 level23_spatial_F+V 09_25 Block7-70.txt,37,37
56,0,500.7163,0,460,1105.0,2857.0,4205.0,751.0,10.0,200.0,0.0,0.0,501.6741,1.0,0.0,09_01_2015 level23_spatial_F+V 09_25 Block7-70.txt,37,37
57,0,507.0144,0,460,1105.0,2857.0,4205.0,651.0,10.0,200.0,0.0,0.0,508.273,1.0,2.0,09_01_2015 level23_spatial_F+V 09_25 Block7-70.txt,37,37
58,0,512.4796,0,460,1105.0,2857.0,4205.0,501.0,10.0,200.0,0.0,0.0,514.1956,1.0,3.0,09_01_2015 level23_spatial_F+V 09_25 Block7-70.txt,37,37
59,0,518.9275,0,460,1105.0,2857.0,4205.0,1001.0,10.0,200.0,0.0,0.0,519.9891,1.0,1.0,09_01_2015 level23_spatial_F+V 09_25 Block7-70.txt,37,37
60,0,523.8116,0,730,2058.0,2857.0,4205.0,551.0,10.0,200.0,1.0,1.0,525.4783,1.0,4.0,09_01_2015 level23_spatial_F+V 09_25 Block7-70.txt,37,37
61,0,532.0455,0,460,1105.0,2857.0,4205.0,701.0,10.0,200.0,0.0,1.0,533.0884,0.0,5.0,09_01_2015 level23_spatial_F+V 09_25 Block7-70.txt,37,37
62,1,544.1885,0,460,1105.0,2857.0,4205.0,701.0,10.0,200.0,0.0,0.0,545.101,1.0,5.0,09_01_2015 level23_spatial_F+V 09_25 Block7-70.txt,37,37
63,0,549.7577,0,730,2058.0,2857.0,4205.0,751.0,10.0,200.0,1.0,0.0,550.7525,0.0,1.0,09_01_2015 level23_spatial_F+V 09_25 Block7-70.txt,37,37
64,1,560.5204,0,730,2058.0,2857.0,4205.0,751.0,10.0,200.0,1.0,0.0,561.6766,0.0,1.0,09_01_2015 level23_spatial_F+V 09_25 Block7-70.txt,37,37
65,1,577.37,0,730,2058.0,2857.0,4205.0,751.0,10.0,200.0,1.0,0.0,578.3674,0.0,1.0,09_01_2015 level23_spatial_F+V 09_25 Block7-70.txt,37,37
66,1,588.7641,1,730,2058.0,2857.0,4205.0,751.0,10.0,200.0,1.0,1.0,590.6144,1.0,1.0,09_01_2015 level23_spatial_F+V 09_25 Block7-70.txt,37,37
67,0,600.1539,0,460,1105.0,2857.0,4205.0,801.0,10.0,200.0,0.0,1.0,601.4625,0.0,4.0,09_01_2015 level23_spatial_F+V 09_25 Block7-70.txt,37,37
68,1,609.9933,0,460,1105.0,2857.0,4205.0,801.0,10.0,200.0,0.0,0.0,611.0473,1.0,4.0,09_01_2015 level23_spatial_F+V 09_25 Block7-70.txt,37,37
69,0,616.382,0,460,1105.0,2857.0,4205.0,901.0,10.0,200.0,0.0,0.0,617.2478,1.0,5.0,09_01_2015 level23_spatial_F+V 09_25 Block7-70.txt,37,37
70,0,621.9851,0,460,1105.0,2857.0,4205.0,951.0,10.0,200.0,0.0,0.0,622.8548,1.0,5.0,09_01_2015 level23_spatial_F+V 09_25 Block7-70.txt,37,37
71,0,627.4071,0,730,2058.0,2857.0,4205.0,851.0,10.0,200.0,1.0,1.0,628.5402,1.0,5.0,09_01_2015 level23_spatial_F+V 09_25 Block7-70.txt,37,37
72,0,636.4006,0,730,2058.0,2857.0,4205.0,601.0,10.0,200.0,1.0,0.0,637.3706,0.0,0.0,09_01_2015 level23_spatial_F+V 09_25 Block7-70.txt,37,37
73,1,645.8154,0,730,2058.0,2857.0,4205.0,601.0,10.0,200.0,1.0,1.0,647.0821,1.0,0.0,09_01_2015 level23_spatial_F+V 09_25 Block7-70.txt,37,37
74,0,656.2575,1,730,2058.0,2857.0,4205.0,851.0,10.0,200.0,1.0,0.0,657.3638,0.0,1.0,09_01_2015 level23_spatial_F+V 09_25 Block7-70.txt,37,37
75,1,667.9423,0,730,2058.0,2857.0,4205.0,851.0,10.0,200.0,1.0,1.0,668.7745,1.0,1.0,09_01_2015 level23_spatial_F+V 09_25 Block7-70.txt,37,37
76,0,679.0285,0,460,1105.0,2857.0,4205.0,501.0,10.0,200.0,0.0,0.0,680.3998,1.0,0.0,09_01_2015 level23_spatial_F+V 09_25 Block7-70.txt,37,37
77,0,684.6076,0,730,2058.0,2857.0,4205.0,701.0,10.0,200.0,1.0,1.0,685.908,1.0,4.0,09_01_2015 level23_spatial_F+V 09_25 Block7-70.txt,37,37
78,0,694.3202,0,460,1105.0,2857.0,4205.0,951.0,10.0,200.0,0.0,0.0,695.5409,1.0,4.0,09_01_2015 level23_spatial_F+V 09_25 Block7-70.txt,37,37
79,0,700.0919,0,730,2058.0,2857.0,4205.0,751.0,10.0,200.0,1.0,1.0,702.8839,1.0,5.0,09_01_2015 level23_spatial_F+V 09_25 Block7-70.txt,37,37
80,0,712.8181,0,730,2058.0,2857.0,4205.0,901.0,10.0,200.0,1.0,0.0,714.0594,0.0,0.0,09_01_2015 level23_spatial_F+V 09_25 Block7-70.txt,37,37
81,1,721.5974,0,730,2058.0,2857.0,4205.0,901.0,10.0,200.0,1.0,1.0,722.7546,1.0,0.0,09_01_2015 level23_spatial_F+V 09_25 Block7-70.txt,37,37
82,0,730.7901,0,460,1105.0,2857.0,4205.0,801.0,10.0,200.0,0.0,0.0,732.3956,1.0,0.0,09_01_2015 level23_spatial_F+V 09_25 Block7-70.txt,37,37
83,0,738.3864,0,460,1105.0,2857.0,4205.0,1001.0,10.0,200.0,0.0,0.0,739.3122,1.0,3.0,09_01_2015 level23_spatial_F+V 09_25 Block7-70.txt,37,37
84,0,743.7301,0,730,2058.0,2857.0,4205.0,651.0,10.0,200.0,1.0,0.0,744.8224,0.0,0.0,09_01_2015 level23_spatial_F+V 09_25 Block7-70.txt,37,37
85,1,753.0101,0,730,2058.0,2857.0,4205.0,651.0,10.0,200.0,1.0,1.0,754.487,1.0,0.0,09_01_2015 level23_spatial_F+V 09_25 Block7-70.txt,37,37
86,0,761.6996,1,730,2058.0,2857.0,4205.0,851.0,10.0,200.0,1.0,1.0,762.9827,1.0,4.0,09_01_2015 level23_spatial_F+V 09_25 Block7-70.txt,37,37
87,0,770.6264,0,460,1105.0,2857.0,4205.0,801.0,10.0,200.0,0.0,0.0,772.6577,1.0,4.0,09_01_2015 level23_spatial_F+V 09_25 Block7-70.txt,37,37
88,0,777.4287,0,730,2058.0,2857.0,4205.0,651.0,10.0,200.0,1.0,0.0,779.1563,0.0,2.0,09_01_2015 level23_spatial_F+V 09_25 Block7-70.txt,37,37
89,1,795.4401,0,730,2058.0,2857.0,4205.0,651.0,10.0,200.0,1.0,0.0,797.2957,0.0,2.0,09_01_2015 level23_spatial_F+V 09_25 Block7-70.txt,37,37
90,1,806.6261,0,730,2058.0,2857.0,4205.0,651.0,10.0,200.0,1.0,1.0,807.7269,1.0,2.0,09_01_2015 level23_spatial_F+V 09_25 Block7-70.txt,37,37
91,0,815.8766,0,730,2058.0,2857.0,4205.0,1001.0,10.0,200.0,1.0,1.0,816.6734,1.0,2.0,09_01_2015 level23_spatial_F+V 09_25 Block7-70.txt,37,37
92,0,825.515,0,730,2058.0,2857.0,4205.0,951.0,10.0,200.0,1.0,0.0,826.2521,0.0,1.0,09_01_2015 level23_spatial_F+V 09_25 Block7-70.txt,37,37
93,1,836.1646,0,730,2058.0,2857.0,4205.0,951.0,10.0,200.0,1.0,0.0,837.3145,0.0,1.0,09_01_2015 level23_spatial_F+V 09_25 Block7-70.txt,37,37
94,1,843.9153,0,730,2058.0,2857.0,4205.0,951.0,10.0,200.0,1.0,1.0,844.9914,1.0,1.0,09_01_2015 level23_spatial_F+V 09_25 Block7-70.txt,37,37
95,0,857.6062,0,730,2058.0,2857.0,4205.0,701.0,10.0,200.0,1.0,0.0,859.248,0.0,3.0,09_01_2015 level23_spatial_F+V 09_25 Block7-70.txt,37,37
96,1,873.1723,0,730,2058.0,2857.0,4205.0,701.0,10.0,200.0,1.0,1.0,874.4824,1.0,3.0,09_01_2015 level23_spatial_F+V 09_25 Block7-70.txt,37,37
97,0,884.7839,0,730,2058.0,2857.0,4205.0,751.0,10.0,200.0,1.0,0.0,886.2756,0.0,5.0,09_01_2015 level23_spatial_F+V 09_25 Block7-70.txt,37,37
98,1,894.6569,0,730,2058.0,2857.0,4205.0,751.0,10.0,200.0,1.0,1.0,895.7691,1.0,5.0,09_01_2015 level23_spatial_F+V 09_25 Block7-70.txt,37,37
99,0,903.9002,0,460,1105.0,2857.0,4205.0,501.0,10.0,200.0,0.0,0.0,905.3676,1.0,1.0,09_01_2015 level23_spatial_F+V 09_25 Block7-70.txt,37,37
100,0,910.5323,0,460,1105.0,2857.0,4205.0,901.0,10.0,200.0,0.0,0.0,911.6878,1.0,2.0,09_01_2015 level23_spatial_F+V 09_25 Block7-70.txt,37,37
101,0,917.3253,0,460,1105.0,2857.0,4205.0,601.0,10.0,200.0,0.0,0.0,918.8917,1.0,3.0,09_01_2015 level23_spatial_F+V 09_25 Block7-70.txt,37,37
102,0,924.131,0,730,2058.0,2857.0,4205.0,751.0,10.0,200.0,1.0,0.0,925.6477,0.0,3.0,09_01_2015 level23_spatial_F+V 09_25 Block7-70.txt,37,37
103,1,932.9655,0,730,2058.0,2857.0,4205.0,751.0,10.0,200.0,1.0,1.0,934.4043,1.0,3.0,09_01_2015 level23_spatial_F+V 09_25 Block7-70.txt,37,37
104,0,942.5878,1,730,2058.0,2857.0,4205.0,551.0,10.0,200.0,1.0,0.0,944.4878,0.0,3.0,09_01_2015 level23_spatial_F+V 09_25 Block7-70.txt,37,37
105,1,958.5036,1,730,2058.0,2857.0,4205.0,551.0,10.0,200.0,1.0,0.0,963.4586,0.0,3.0,09_01_2015 level23_spatial_F+V 09_25 Block7-70.txt,37,37
106,1,969.4288,0,730,2058.0,2857.0,4205.0,551.0,10.0,200.0,1.0,1.0,971.5289,1.0,3.0,09_01_2015 level23_spatial_F+V 09_25 Block7-70.txt,37,37
107,0,979.5587,0,460,1105.0,2857.0,4205.0,851.0,10.0,200.0,0.0,0.0,981.3789,1.0,3.0,09_01_2015 level23_spatial_F+V 09_25 Block7-70.txt,37,37
108,0,986.3155,0,730,2058.0,2857.0,4205.0,801.0,10.0,200.0,1.0,0.0,987.6031,0.0,5.0,09_01_2015 level23_spatial_F+V 09_25 Block7-70.txt,37,37
109,1,995.4261,0,730,2058.0,2857.0,4205.0,801.0,10.0,200.0,1.0,1.0,996.8473,1.0,5.0,09_01_2015 level23_spatial_F+V 09_25 Block7-70.txt,37,37
110,0,1007.6226,0,460,1105.0,2857.0,4205.0,901.0,10.0,200.0,0.0,0.0,1009.4839,1.0,5.0,09_01_2015 level23_spatial_F+V 09_25 Block7-70.txt,37,37
111,0,1014.0197,0,730,2058.0,2857.0,4205.0,651.0,10.0,200.0,1.0,0.0,1015.5908,0.0,0.0,09_01_2015 level23_spatial_F+V 09_25 Block7-70.txt,37,37
112,1,1025.9239,0,730,2058.0,2857.0,4205.0,651.0,10.0,200.0,1.0,1.0,1027.6063,1.0,0.0,09_01_2015 level23_spatial_F+V 09_25 Block7-70.txt,37,37
113,0,1037.1092,0,730,2058.0,2857.0,4205.0,701.0,10.0,200.0,1.0,0.0,1038.6492,0.0,1.0,09_01_2015 level23_spatial_F+V 09_25 Block7-70.txt,37,37
114,1,1045.1484,0,730,2058.0,2857.0,4205.0,701.0,10.0,200.0,1.0,1.0,1046.2814,1.0,1.0,09_01_2015 level23_spatial_F+V 09_25 Block7-70.txt,37,37
115,0,1056.5266,0,730,2058.0,2857.0,4205.0,951.0,10.0,200.0,1.0,1.0,1057.514,1.0,5.0,09_01_2015 level23_spatial_F+V 09_25 Block7-70.txt,37,37
116,0,1069.5093,0,460,1105.0,2857.0,4205.0,501.0,10.0,200.0,0.0,0.0,1071.7605,1.0,2.0,09_01_2015 level23_spatial_F+V 09_25 Block7-70.txt,37,37
117,0,1077.3204,0,730,2058.0,2857.0,4205.0,601.0,10.0,200.0,1.0,0.0,1078.6429,0.0,2.0,09_01_2015 level23_spatial_F+V 09_25 Block7-70.txt,37,37
118,1,1085.3079,1,730,2058.0,2857.0,4205.0,601.0,10.0,200.0,1.0,1.0,1089.2861,1.0,2.0,09_01_2015 level23_spatial_F+V 09_25 Block7-70.txt,37,37
119,0,1101.575,0,730,2058.0,2857.0,4205.0,1001.0,10.0,200.0,1.0,0.0,1103.2563,0.0,0.0,09_01_2015 level23_spatial_F+V 09_25 Block7-70.txt,37,37
120,1,1109.9186,0,730,2058.0,2857.0,4205.0,1001.0,10.0,200.0,1.0,1.0,1111.4896,1.0,0.0,09_01_2015 level23_spatial_F+V 09_25 Block7-70.txt,37,37
121,0,1120.8969,0,460,1105.0,2857.0,4205.0,601.0,10.0,200.0,0.0,0.0,1122.5281,1.0,1.0,09_01_2015 level23_spatial_F+V 09_25 Block7-70.txt,37,37
122,0,1127.7599,0,730,2058.0,2857.0,4205.0,851.0,10.0,200.0,1.0,0.0,1129.256,0.0,1.0,09_01_2015 level23_spatial_F+V 09_25 Block7-70.txt,37,37
123,1,1138.022,0,730,2058.0,2857.0,4205.0,851.0,10.0,200.0,1.0,1.0,1139.6125,1.0,1.0,09_01_2015 level23_spatial_F+V 09_25 Block7-70.txt,37,37
124,0,1148.1013,0,460,1105.0,2857.0,4205.0,701.0,10.0,200.0,0.0,0.0,1150.3201,1.0,0.0,09_01_2015 level23_spatial_F+V 09_25 Block7-70.txt,37,37
125,0,1156.7565,0,730,2058.0,2857.0,4205.0,501.0,10.0,200.0,1.0,1.0,1158.6471,1.0,1.0,09_01_2015 level23_spatial_F+V 09_25 Block7-70.txt,37,37
126,0,1167.8335,0,730,2058.0,2857.0,4205.0,551.0,10.0,200.0,1.0,0.0,1169.667,0.0,3.0,09_01_2015 level23_spatial_F+V 09_25 Block7-70.txt,37,37
127,1,1178.0415,0,730,2058.0,2857.0,4205.0,551.0,10.0,200.0,1.0,1.0,1179.7404,1.0,3.0,09_01_2015 level23_spatial_F+V 09_25 Block7-70.txt,37,37
128,0,1190.9213,0,730,2058.0,2857.0,4205.0,901.0,10.0,200.0,1.0,1.0,1193.1463,1.0,4.0,09_01_2015 level23_spatial_F+V 09_25 Block7-70.txt,37,37
129,0,1204.683,0,730,2058.0,2857.0,4205.0,651.0,10.0,200.0,1.0,0.0,1206.2796,0.0,2.0,09_01_2015 level23_spatial_F+V 09_25 Block7-70.txt,37,37
130,1,1215.7152,0,730,2058.0,2857.0,4205.0,651.0,10.0,200.0,1.0,1.0,1217.2046,1.0,2.0,09_01_2015 level23_spatial_F+V 09_25 Block7-70.txt,37,37
131,0,1228.6185,0,460,1105.0,2857.0,4205.0,951.0,10.0,200.0,0.0,0.0,1231.0052,1.0,2.0,09_01_2015 level23_spatial_F+V 09_25 Block7-70.txt,37,37
132,0,1235.8082,1,730,2058.0,2857.0,4205.0,801.0,10.0,200.0,1.0,1.0,1237.8535,1.0,5.0,09_01_2015 level23_spatial_F+V 09_25 Block7-70.txt,37,37
133,0,1247.6333,0,730,2058.0,2857.0,4205.0,851.0,10.0,200.0,1.0,1.0,1249.0469,1.0,4.0,09_01_2015 level23_spatial_F+V 09_25 Block7-70.txt,37,37
134,0,1258.8972,0,460,1105.0,2857.0,4205.0,651.0,10.0,200.0,0.0,0.0,1260.8482,1.0,4.0,09_01_2015 level23_spatial_F+V 09_25 Block7-70.txt,37,37
135,0,1266.2615,0,460,1105.0,2857.0,4205.0,551.0,10.0,200.0,0.0,0.0,1267.8985,1.0,5.0,09_01_2015 level23_spatial_F+V 09_25 Block7-70.txt,37,37
136,0,1272.5059,0,460,1105.0,2857.0,4205.0,901.0,10.0,200.0,0.0,0.0,1273.8666,1.0,0.0,09_01_2015 level23_spatial_F+V 09_25 Block7-70.txt,37,37
137,0,1280.301,0,460,1105.0,2857.0,4205.0,501.0,10.0,200.0,0.0,0.0,1282.0109,1.0,0.0,09_01_2015 level23_spatial_F+V 09_25 Block7-70.txt,37,37
138,0,1287.4822,0,730,2058.0,2857.0,4205.0,951.0,10.0,200.0,1.0,0.0,1288.9019,0.0,3.0,09_01_2015 level23_spatial_F+V 09_25 Block7-70.txt,37,37
139,1,1296.5894,0,730,2058.0,2857.0,4205.0,951.0,10.0,200.0,1.0,1.0,1297.8047,1.0,3.0,09_01_2015 level23_spatial_F+V 09_25 Block7-70.txt,37,37
140,0,1306.7149,0,460,1105.0,2857.0,4205.0,751.0,10.0,200.0,0.0,0.0,1308.2549,1.0,4.0,09_01_2015 level23_spatial_F+V 09_25 Block7-70.txt,37,37
141,0,1313.4636,0,460,1105.0,2857.0,4205.0,1001.0,10.0,200.0,0.0,0.0,1314.8407,1.0,3.0,09_01_2015 level23_spatial_F+V 09_25 Block7-70.txt,37,37
142,0,1319.5022,0,460,1105.0,2857.0,4205.0,801.0,10.0,200.0,0.0,0.0,1321.2374,1.0,4.0,09_01_2015 level23_spatial_F+V 09_25 Block7-70.txt,37,37
143,0,1326.2478,0,460,1105.0,2857.0,4205.0,701.0,10.0,200.0,0.0,0.0,1328.0363,1.0,3.0,09_01_2015 level23_spatial_F+V 09_25 Block7-70.txt,37,37
144,0,1333.0972,0,730,2058.0,2857.0,4205.0,901.0,10.0,200.0,1.0,0.0,1334.6406,0.0,2.0,09_01_2015 level23_spatial_F+V 09_25 Block7-70.txt,37,37
145,1,1342.219,0,730,2058.0,2857.0,4205.0,901.0,10.0,200.0,1.0,1.0,1343.3336,1.0,2.0,09_01_2015 level23_spatial_F+V 09_25 Block7-70.txt,37,37
146,0,1353.5913,0,730,2058.0,2857.0,4205.0,1001.0,10.0,200.0,1.0,0.0,1354.905,0.0,3.0,09_01_2015 level23_spatial_F+V 09_25 Block7-70.txt,37,37
147,1,1364.3784,0,730,2058.0,2857.0,4205.0,1001.0,10.0,200.0,1.0,1.0,1365.3396,1.0,3.0,09_01_2015 level23_spatial_F+V 09_25 Block7-70.txt,37,37
148,0,1373.905,0,460,1105.0,2857.0,4205.0,751.0,10.0,200.0,0.0,1.0,1375.5382,0.0,1.0,09_01_2015 level23_spatial_F+V 09_25 Block7-70.txt,37,37
149,1,1381.7435,0,460,1105.0,2857.0,4205.0,751.0,10.0,200.0,0.0,0.0,1383.5118,1.0,1.0,09_01_2015 level23_spatial_F+V 09_25 Block7-70.txt,37,37
150,0,1388.5624,0,730,2058.0,2857.0,4205.0,951.0,10.0,200.0,1.0,0.0,1389.8319,0.0,0.0,09_01_2015 level23_spatial_F+V 09_25 Block7-70.txt,37,37
151,1,1408.6085,1,730,2058.0,2857.0,4205.0,951.0,10.0,200.0,1.0,1.0,1413.0761,1.0,0.0,09_01_2015 level23_spatial_F+V 09_25 Block7-70.txt,37,37
152,0,1421.1662,0,460,1105.0,2857.0,4205.0,801.0,10.0,200.0,0.0,0.0,1422.7595,1.0,2.0,09_01_2015 level23_spatial_F+V 09_25 Block7-70.txt,37,37
153,0,1427.2897,0,460,1105.0,2857.0,4205.0,851.0,10.0,200.0,0.0,0.0,1428.6902,1.0,5.0,09_01_2015 level23_spatial_F+V 09_25 Block7-70.txt,37,37
154,0,1433.5982,0,460,1105.0,2857.0,4205.0,501.0,10.0,200.0,0.0,0.0,1435.0562,1.0,1.0,09_01_2015 level23_spatial_F+V 09_25 Block7-70.txt,37,37
155,0,1441.435,0,730,2058.0,2857.0,4205.0,701.0,10.0,200.0,1.0,1.0,1443.2353,1.0,4.0,09_01_2015 level23_spatial_F+V 09_25 Block7-70.txt,37,37
156,0,1452.6315,0,730,2058.0,2857.0,4205.0,551.0,10.0,200.0,1.0,0.0,1453.6439,0.0,1.0,09_01_2015 level23_spatial_F+V 09_25 Block7-70.txt,37,37
157,1,1478.3817,0,730,2058.0,2857.0,4205.0,551.0,10.0,200.0,1.0,0.0,1479.2054,0.0,1.0,09_01_2015 level23_spatial_F+V 09_25 Block7-70.txt,37,37
158,1,1527.579,0,730,2058.0,2857.0,4205.0,551.0,10.0,200.0,1.0,0.0,1528.5602,0.0,1.0,09_01_2015 level23_spatial_F+V 09_25 Block7-70.txt,37,37
159,1,1612.1651,1,730,2058.0,2857.0,4205.0,551.0,10.0,200.0,1.0,0.0,1621.1332,0.0,1.0,09_01_2015 level23_spatial_F+V 09_25 Block7-70.txt,37,37
1,0,4.8341,0,460,1105.0,2857.0,4205.0,551.0,-5.0,200.0,0.0,1.0,5.6723,0.0,4.0,31_03_2014 level23_spatial_F+V 15_25 Block4-62.txt,37,37
2,1,17.6002,0,460,1105.0,2857.0,4205.0,551.0,-5.0,200.0,0.0,0.0,19.3771,1.0,4.0,31_03_2014 level23_spatial_F+V 15_25 Block4-62.txt,37,37
3,0,25.7834,0,460,1105.0,2857.0,4205.0,701.0,-5.0,200.0,0.0,0.0,26.2671,1.0,0.0,31_03_2014 level23_spatial_F+V 15_25 Block4-62.txt,37,37
4,0,32.0523,0,460,1105.0,2857.0,4205.0,1001.0,-5.0,200.0,0.0,0.0,32.6963,1.0,5.0,31_03_2014 level23_spatial_F+V 15_25 Block4-62.txt,37,37
5,0,41.5408,0,730,2058.0,2857.0,4205.0,751.0,-5.0,200.0,1.0,1.0,42.2884,1.0,3.0,31_03_2014 level23_spatial_F+V 15_25 Block4-62.txt,37,37
6,0,46.4502,0,730,2058.0,2857.0,4205.0,501.0,-5.0,200.0,1.0,1.0,47.4948,1.0,4.0,31_03_2014 level23_spatial_F+V 15_25 Block4-62.txt,37,37
7,0,51.483,0,460,1105.0,2857.0,4205.0,601.0,-5.0,200.0,0.0,0.0,53.2968,1.0,1.0,31_03_2014 level23_spatial_F+V 15_25 Block4-62.txt,37,37
8,0,58.5716,0,460,1105.0,2857.0,4205.0,651.0,-5.0,200.0,0.0,0.0,59.0471,1.0,3.0,31_03_2014 level23_spatial_F+V 15_25 Block4-62.txt,37,37
9,0,67.6687,1,460,1105.0,2857.0,4205.0,851.0,-5.0,200.0,0.0,0.0,68.5553,1.0,3.0,31_03_2014 level23_spatial_F+V 15_25 Block4-62.txt,37,37
10,0,73.9667,0,730,2058.0,2857.0,4205.0,901.0,-5.0,200.0,1.0,1.0,74.7296,1.0,2.0,31_03_2014 level23_spatial_F+V 15_25 Block4-62.txt,37,37
11,0,78.6731,0,730,2058.0,2857.0,4205.0,801.0,-5.0,200.0,1.0,0.0,79.5256,0.0,1.0,31_03_2014 level23_spatial_F+V 15_25 Block4-62.txt,37,37
12,1,85.5568,0,730,2058.0,2857.0,4205.0,801.0,-5.0,200.0,1.0,1.0,86.3779,1.0,1.0,31_03_2014 level23_spatial_F+V 15_25 Block4-62.txt,37,37
13,0,90.1877,0,730,2058.0,2857.0,4205.0,501.0,-5.0,200.0,1.0,1.0,92.6467,1.0,4.0,31_03_2014 level23_spatial_F+V 15_25 Block4-62.txt,37,37
14,0,96.326,0,730,2058.0,2857.0,4205.0,701.0,-5.0,200.0,1.0,0.0,97.1728,0.0,0.0,31_03_2014 level23_spatial_F+V 15_25 Block4-62.txt,37,37
15,1,105.8389,0,730,2058.0,2857.0,4205.0,701.0,-5.0,200.0,1.0,1.0,106.6122,1.0,0.0,31_03_2014 level23_spatial_F+V 15_25 Block4-62.txt,37,37
16,0,110.6119,0,730,2058.0,2857.0,4205.0,551.0,-5.0,200.0,1.0,1.0,112.1679,1.0,0.0,31_03_2014 level23_spatial_F+V 15_25 Block4-62.txt,37,37
17,0,116.9394,0,460,1105.0,2857.0,4205.0,801.0,-5.0,200.0,0.0,0.0,118.9911,1.0,2.0,31_03_2014 level23_spatial_F+V 15_25 Block4-62.txt,37,37
18,0,124.5372,0,730,2058.0,2857.0,4205.0,851.0,-5.0,200.0,1.0,1.0,125.104,1.0,2.0,31_03_2014 level23_spatial_F+V 15_25 Block4-62.txt,37,37
19,0,128.8343,0,730,2058.0,2857.0,4205.0,751.0,-5.0,200.0,1.0,1.0,129.6428,1.0,5.0,31_03_2014 level23_spatial_F+V 15_25 Block4-62.txt,37,37
20,0,133.5898,0,460,1105.0,2857.0,4205.0,901.0,-5.0,200.0,0.0,0.0,134.2172,1.0,0.0,31_03_2014 level23_spatial_F+V 15_25 Block4-62.txt,37,37
21,0,139.6348,0,730,2058.0,2857.0,4205.0,651.0,-5.0,200.0,1.0,1.0,140.6428,1.0,4.0,31_03_2014 level23_spatial_F+V 15_25 Block4-62.txt,37,37
22,0,144.7627,0,460,1105.0,2857.0,4205.0,601.0,-5.0,200.0,0.0,0.0,145.5361,1.0,5.0,31_03_2014 level23_spatial_F+V 15_25 Block4-62.txt,37,37
23,0,154.1885,1,730,2058.0,2857.0,4205.0,1001.0,-5.0,200.0,1.0,1.0,154.6363,1.0,5.0,31_03_2014 level23_spatial_F+V 15_25 Block4-62.txt,37,37
24,0,158.61,0,460,1105.0,2857.0,4205.0,801.0,-5.0,200.0,0.0,0.0,159.8428,1.0,1.0,31_03_2014 level23_spatial_F+V 15_25 Block4-62.txt,37,37
25,0,164.3386,0,730,2058.0,2857.0,4205.0,501.0,-5.0,200.0,1.0,1.0,165.6131,1.0,5.0,31_03_2014 level23_spatial_F+V 15_25 Block4-62.txt,37,37
26,0,169.1339,0,460,1105.0,2857.0,4205.0,651.0,-5.0,200.0,0.0,1.0,170.3541,0.0,2.0,31_03_2014 level23_spatial_F+V 15_25 Block4-62.txt,37,37
27,1,176.4987,0,460,1105.0,2857.0,4205.0,651.0,-5.0,200.0,0.0,0.0,177.4228,1.0,2.0,31_03_2014 level23_spatial_F+V 15_25 Block4-62.txt,37,37
28,0,182.2655,0,460,1105.0,2857.0,4205.0,901.0,-5.0,200.0,0.0,0.0,183.8326,1.0,2.0,31_03_2014 level23_spatial_F+V 15_25 Block4-62.txt,37,37
29,0,191.2452,0,730,2058.0,2857.0,4205.0,1001.0,-5.0,200.0,1.0,0.0,191.8278,0.0,3.0,31_03_2014 level23_spatial_F+V 15_25 Block4-62.txt,37,37
30,1,203.2156,1,730,2058.0,2857.0,4205.0,1001.0,-5.0,200.0,1.0,1.0,203.7266,1.0,3.0,31_03_2014 level23_spatial_F+V 15_25 Block4-62.txt,37,37
31,0,207.8562,0,730,2058.0,2857.0,4205.0,751.0,-5.0,200.0,1.0,1.0,211.8124,1.0,3.0,31_03_2014 level23_spatial_F+V 15_25 Block4-62.txt,37,37
32,0,214.747,0,460,1105.0,2857.0,4205.0,551.0,-5.0,200.0,0.0,1.0,219.0072,0.0,0.0,31_03_2014 level23_spatial_F+V 15_25 Block4-62.txt,37,37
33,1,228.3365,0,460,1105.0,2857.0,4205.0,551.0,-5.0,200.0,0.0,0.0,229.7056,1.0,0.0,31_03_2014 level23_spatial_F+V 15_25 Block4-62.txt,37,37
34,0,236.0223,0,730,2058.0,2857.0,4205.0,701.0,-5.0,200.0,1.0,1.0,236.7163,1.0,0.0,31_03_2014 level23_spatial_F+V 15_25 Block4-62.txt,37,37
35,0,240.6654,0,730,2058.0,2857.0,4205.0,601.0,-5.0,200.0,1.0,1.0,241.3836,1.0,2.0,31_03_2014 level23_spatial_F+V 15_25 Block4-62.txt,37,37
36,0,246.6293,0,460,1105.0,2857.0,4205.0,951.0,-5.0,200.0,0.0,0.0,247.2831,1.0,5.0,31_03_2014 level23_spatial_F+V 15_25 Block4-62.txt,37,37
37,0,253.8311,0,730,2058.0,2857.0,4205.0,701.0,-5.0,200.0,1.0,0.0,255.4763,0.0,1.0,31_03_2014 level23_spatial_F+V 15_25 Block4-62.txt,37,37
38,1,261.5843,0,730,2058.0,2857.0,4205.0,701.0,-5.0,200.0,1.0,1.0,262.6544,1.0,1.0,31_03_2014 level23_spatial_F+V 15_25 Block4-62.txt,37,37
39,0,267.4635,0,460,1105.0,2857.0,4205.0,751.0,-5.0,200.0,0.0,1.0,270.045,0.0,3.0,31_03_2014 level23_spatial_F+V 15_25 Block4-62.txt,37,37
40,1,285.2968,0,460,1105.0,2857.0,4205.0,751.0,-5.0,200.0,0.0,0.0,285.9767,1.0,3.0,31_03_2014 level23_spatial_F+V 15_25 Block4-62.txt,37,37
41,0,292.5097,0,730,2058.0,2857.0,4205.0,851.0,-5.0,200.0,1.0,0.0,293.2766,0.0,1.0,31_03_2014 level23_spatial_F+V 15_25 Block4-62.txt,37,37
42,1,299.7565,0,730,2058.0,2857.0,4205.0,851.0,-5.0,200.0,1.0,1.0,300.1072,1.0,1.0,31_03_2014 level23_spatial_F+V 15_25 Block4-62.txt,37,37
43,0,303.8145,0,460,1105.0,2857.0,4205.0,501.0,-5.0,200.0,0.0,0.0,305.5376,1.0,4.0,31_03_2014 level23_spatial_F+V 15_25 Block4-62.txt,37,37
44,0,311.44,1,460,1105.0,2857.0,4205.0,901.0,-5.0,200.0,0.0,0.0,312.0934,1.0,1.0,31_03_2014 level23_spatial_F+V 15_25 Block4-62.txt,37,37
45,0,318.3729,0,460,1105.0,2857.0,4205.0,801.0,-5.0,200.0,0.0,0.0,319.6189,1.0,4.0,31_03_2014 level23_spatial_F+V 15_25 Block4-62.txt,37,37
46,0,325.7984,0,460,1105.0,2857.0,4205.0,951.0,-5.0,200.0,0.0,0.0,327.4186,1.0,5.0,31_03_2014 level23_spatial_F+V 15_25 Block4-62.txt,37,37
47,0,333.4954,0,460,1105.0,2857.0,4205.0,1001.0,-5.0,200.0,0.0,1.0,334.2002,0.0,2.0,31_03_2014 level23_spatial_F+V 15_25 Block4-62.txt,37,37
48,1,349.1236,0,460,1105.0,2857.0,4205.0,1001.0,-5.0,200.0,0.0,0.0,351.2313,1.0,2.0,31_03_2014 level23_spatial_F+V 15_25 Block4-62.txt,37,37
49,0,357.9868,0,730,2058.0,2857.0,4205.0,651.0,-5.0,200.0,1.0,1.0,359.0574,1.0,3.0,31_03_2014 level23_spatial_F+V 15_25 Block4-62.txt,37,37
50,0,363.1479,0,460,1105.0,2857.0,4205.0,551.0,-5.0,200.0,0.0,0.0,364.4958,1.0,4.0,31_03_2014 level23_spatial_F+V 15_25 Block4-62.txt,37,37
51,0,369.9489,0,730,2058.0,2857.0,4205.0,551.0,-5.0,200.0,1.0,1.0,370.7233,1.0,2.0,31_03_2014 level23_spatial_F+V 15_25 Block4-62.txt,37,37
52,0,374.7714,0,730,2058.0,2857.0,4205.0,701.0,-5.0,200.0,1.0,1.0,375.3709,1.0,0.0,31_03_2014 level23_spatial_F+V 15_25 Block4-62.txt,37,37
53,0,382.2031,0,460,1105.0,2857.0,4205.0,601.0,-5.0,200.0,0.0,0.0,383.5956,1.0,3.0,31_03_2014 level23_spatial_F+V 15_25 Block4-62.txt,37,37
54,0,390.2505,0,730,2058.0,2857.0,4205.0,751.0,-5.0,200.0,1.0,0.0,391.2006,0.0,0.0,31_03_2014 level23_spatial_F+V 15_25 Block4-62.txt,37,37
55,1,407.1777,0,730,2058.0,2857.0,4205.0,751.0,-5.0,200.0,1.0,1.0,407.949,1.0,0.0,31_03_2014 level23_spatial_F+V 15_25 Block4-62.txt,37,37
56,0,411.6596,1,460,1105.0,2857.0,4205.0,901.0,-5.0,200.0,0.0,1.0,412.9176,0.0,0.0,31_03_2014 level23_spatial_F+V 15_25 Block4-62.txt,37,37
57,1,427.8602,0,460,1105.0,2857.0,4205.0,901.0,-5.0,200.0,0.0,0.0,429.0185,1.0,0.0,31_03_2014 level23_spatial_F+V 15_25 Block4-62.txt,37,37
58,0,434.7032,0,460,1105.0,2857.0,4205.0,501.0,-5.0,200.0,0.0,1.0,435.4576,0.0,2.0,31_03_2014 level23_spatial_F+V 15_25 Block4-62.txt,37,37
59,1,444.0857,0,460,1105.0,2857.0,4205.0,501.0,-5.0,200.0,0.0,0.0,447.7805,1.0,2.0,31_03_2014 level23_spatial_F+V 15_25 Block4-62.txt,37,37
60,0,453.8333,0,460,1105.0,2857.0,4205.0,851.0,-5.0,200.0,0.0,1.0,454.7802,0.0,1.0,31_03_2014 level23_spatial_F+V 15_25 Block4-62.txt,37,37
61,1,462.2334,0,460,1105.0,2857.0,4205.0,851.0,-5.0,200.0,0.0,0.0,463.4994,1.0,1.0,31_03_2014 level23_spatial_F+V 15_25 Block4-62.txt,37,37
62,0,469.9571,0,730,2058.0,2857.0,4205.0,651.0,-5.0,200.0,1.0,1.0,470.808,1.0,5.0,31_03_2014 level23_spatial_F+V 15_25 Block4-62.txt,37,37
63,0,474.5504,0,730,2058.0,2857.0,4205.0,951.0,-5.0,200.0,1.0,1.0,475.1009,1.0,2.0,31_03_2014 level23_spatial_F+V 15_25 Block4-62.txt,37,37
64,0,489.2335,0,730,2058.0,2857.0,4205.0,1001.0,-5.0,200.0,1.0,0.0,490.2615,0.0,1.0,31_03_2014 level23_spatial_F+V 15_25 Block4-62.txt,37,37
65,1,498.5086,0,730,2058.0,2857.0,4205.0,1001.0,-5.0,200.0,1.0,1.0,498.8763,1.0,1.0,31_03_2014 level23_spatial_F+V 15_25 Block4-62.txt,37,37
66,0,505.54,0,730,2058.0,2857.0,4205.0,701.0,-5.0,200.0,1.0,1.0,506.0796,1.0,5.0,31_03_2014 level23_spatial_F+V 15_25 Block4-62.txt,37,37
67,0,511.3083,0,460,1105.0,2857.0,4205.0,601.0,-5.0,200.0,0.0,0.0,512.4017,1.0,5.0,31_03_2014 level23_spatial_F+V 15_25 Block4-62.txt,37,37
68,0,518.6426,0,730,2058.0,2857.0,4205.0,751.0,-5.0,200.0,1.0,1.0,519.2811,1.0,4.0,31_03_2014 level23_spatial_F+V 15_25 Block4-62.txt,37,37
69,0,535.3322,0,730,2058.0,2857.0,4205.0,901.0,-5.0,200.0,1.0,1.0,535.8915,1.0,1.0,31_03_2014 level23_spatial_F+V 15_25 Block4-62.txt,37,37
70,0,540.7732,0,460,1105.0,2857.0,4205.0,951.0,-5.0,200.0,0.0,0.0,541.4887,1.0,3.0,31_03_2014 level23_spatial_F+V 15_25 Block4-62.txt,37,37
71,0,546.9179,1,730,2058.0,2857.0,4205.0,501.0,-5.0,200.0,1.0,1.0,547.6606,1.0,4.0,31_03_2014 level23_spatial_F+V 15_25 Block4-62.txt,37,37
72,0,551.0524,0,730,2058.0,2857.0,4205.0,1001.0,-5.0,200.0,1.0,1.0,553.6849,1.0,5.0,31_03_2014 level23_spatial_F+V 15_25 Block4-62.txt,37,37
73,0,556.8097,0,460,1105.0,2857.0,4205.0,551.0,-5.0,200.0,0.0,1.0,559.0388,0.0,4.0,31_03_2014 level23_spatial_F+V 15_25 Block4-62.txt,37,37
74,1,565.4822,1,460,1105.0,2857.0,4205.0,551.0,-5.0,200.0,0.0,0.0,567.3169,1.0,4.0,31_03_2014 level23_spatial_F+V 15_25 Block4-62.txt,37,37
75,0,572.6917,0,730,2058.0,2857.0,4205.0,851.0,-5.0,200.0,1.0,1.0,575.374,1.0,4.0,31_03_2014 level23_spatial_F+V 15_25 Block4-62.txt,37,37
76,0,580.0456,0,730,2058.0,2857.0,4205.0,801.0,-5.0,200.0,1.0,0.0,581.262,0.0,1.0,31_03_2014 level23_spatial_F+V 15_25 Block4-62.txt,37,37
77,1,589.6181,0,730,2058.0,2857.0,4205.0,801.0,-5.0,200.0,1.0,0.0,591.2921,0.0,1.0,31_03_2014 level23_spatial_F+V 15_25 Block4-62.txt,37,37
78,1,599.595,0,730,2058.0,2857.0,4205.0,801.0,-5.0,200.0,1.0,1.0,600.2785,1.0,1.0,31_03_2014 level23_spatial_F+V 15_25 Block4-62.txt,37,37
79,0,604.1649,0,730,2058.0,2857.0,4205.0,851.0,-5.0,200.0,1.0,1.0,605.1638,1.0,3.0,31_03_2014 level23_spatial_F+V 15_25 Block4-62.txt,37,37
80,0,630.0747,0,730,2058.0,2857.0,4205.0,701.0,-5.0,200.0,1.0,1.0,630.4802,1.0,2.0,31_03_2014 level23_spatial_F+V 15_25 Block4-62.txt,37,37
81,0,634.1798,0,460,1105.0,2857.0,4205.0,601.0,-5.0,200.0,0.0,1.0,635.4814,0.0,4.0,31_03_2014 level23_spatial_F+V 15_25 Block4-62.txt,37,37
82,1,658.9721,0,460,1105.0,2857.0,4205.0,601.0,-5.0,200.0,0.0,0.0,660.9514,1.0,4.0,31_03_2014 level23_spatial_F+V 15_25 Block4-62.txt,37,37
83,0,666.3613,1,460,1105.0,2857.0,4205.0,801.0,-5.0,200.0,0.0,1.0,666.9242,0.0,1.0,31_03_2014 level23_spatial_F+V 15_25 Block4-62.txt,37,37
84,1,740.2553,0,460,1105.0,2857.0,4205.0,801.0,-5.0,200.0,0.0,1.0,744.4727,0.0,1.0,31_03_2014 level23_spatial_F+V 15_25 Block4-62.txt,37,37
1,0,21.6267,0,730,2058.0,2857.0,4205.0,501.0,-5.0,200.0,1.0,1.0,22.4438,1.0,3.0,31_01_2014 level23_spatial_F+V 08_39 Block4-12.txt,37,37
2,0,25.6699,0,460,1105.0,2857.0,4205.0,751.0,-5.0,200.0,0.0,1.0,26.6087,0.0,2.0,31_01_2014 level23_spatial_F+V 08_39 Block4-12.txt,37,37
3,1,33.5873,0,460,1105.0,2857.0,4205.0,751.0,-5.0,200.0,0.0,0.0,35.6144,1.0,2.0,31_01_2014 level23_spatial_F+V 08_39 Block4-12.txt,37,37
4,0,37.968,0,460,1105.0,2857.0,4205.0,551.0,-5.0,200.0,0.0,1.0,38.8611,0.0,1.0,31_01_2014 level23_spatial_F+V 08_39 Block4-12.txt,37,37
5,1,48.6847,0,460,1105.0,2857.0,4205.0,551.0,-5.0,200.0,0.0,0.0,52.5548,1.0,1.0,31_01_2014 level23_spatial_F+V 08_39 Block4-12.txt,37,37
6,0,56.661,1,730,2058.0,2857.0,4205.0,901.0,-5.0,200.0,1.0,1.0,59.5815,1.0,1.0,31_01_2014 level23_spatial_F+V 08_39 Block4-12.txt,37,37
7,0,65.4243,0,460,1105.0,2857.0,4205.0,601.0,-5.0,200.0,0.0,1.0,67.0967,0.0,2.0,31_01_2014 level23_spatial_F+V 08_39 Block4-12.txt,37,37
8,1,90.8717,0,460,1105.0,2857.0,4205.0,601.0,-5.0,200.0,0.0,0.0,92.0301,1.0,2.0,31_01_2014 level23_spatial_F+V 08_39 Block4-12.txt,37,37
9,0,98.9059,0,730,2058.0,2857.0,4205.0,1001.0,-5.0,200.0,1.0,0.0,100.4391,0.0,2.0,31_01_2014 level23_spatial_F+V 08_39 Block4-12.txt,37,37
10,1,109.2354,0,730,2058.0,2857.0,4205.0,1001.0,-5.0,200.0,1.0,1.0,110.3019,1.0,2.0,31_01_2014 level23_spatial_F+V 08_39 Block4-12.txt,37,37
11,0,115.0028,0,460,1105.0,2857.0,4205.0,851.0,-5.0,200.0,0.0,0.0,116.0638,1.0,0.0,31_01_2014 level23_spatial_F+V 08_39 Block4-12.txt,37,37
12,0,124.3207,0,460,1105.0,2857.0,4205.0,701.0,-5.0,200.0,0.0,0.0,125.4359,1.0,2.0,31_01_2014 level23_spatial_F+V 08_39 Block4-12.txt,37,37
13,0,131.0584,0,730,2058.0,2857.0,4205.0,651.0,-5.0,200.0,1.0,1.0,132.6191,1.0,0.0,31_01_2014 level23_spatial_F+V 08_39 Block4-12.txt,37,37
14,0,137.1586,0,730,2058.0,2857.0,4205.0,801.0,-5.0,200.0,1.0,0.0,139.1396,0.0,0.0,31_01_2014 level23_spatial_F+V 08_39 Block4-12.txt,37,37
15,1,151.1226,0,730,2058.0,2857.0,4205.0,801.0,-5.0,200.0,1.0,1.0,151.9762,1.0,0.0,31_01_2014 level23_spatial_F+V 08_39 Block4-12.txt,37,37
16,0,156.7263,0,460,1105.0,2857.0,4205.0,501.0,-5.0,200.0,0.0,0.0,158.9095,1.0,1.0,31_01_2014 level23_spatial_F+V 08_39 Block4-12.txt,37,37
17,0,164.6964,1,460,1105.0,2857.0,4205.0,951.0,-5.0,200.0,0.0,0.0,167.0956,1.0,3.0,31_01_2014 level23_spatial_F+V 08_39 Block4-12.txt,37,37
18,0,173.0124,0,730,2058.0,2857.0,4205.0,801.0,-5.0,200.0,1.0,1.0,174.6706,1.0,1.0,31_01_2014 level23_spatial_F+V 08_39 Block4-12.txt,37,37
19,0,179.0918,0,730,2058.0,2857.0,4205.0,601.0,-5.0,200.0,1.0,1.0,180.4302,1.0,1.0,31_01_2014 level23_spatial_F+V 08_39 Block4-12.txt,37,37
20,0,185.6416,0,460,1105.0,2857.0,4205.0,701.0,-5.0,200.0,0.0,1.0,186.9802,0.0,3.0,31_01_2014 level23_spatial_F+V 08_39 Block4-12.txt,37,37
21,1,193.8721,0,460,1105.0,2857.0,4205.0,701.0,-5.0,200.0,0.0,0.0,195.6431,1.0,3.0,31_01_2014 level23_spatial_F+V 08_39 Block4-12.txt,37,37
22,0,201.6402,0,460,1105.0,2857.0,4205.0,1001.0,-5.0,200.0,0.0,0.0,203.1024,1.0,0.0,31_01_2014 level23_spatial_F+V 08_39 Block4-12.txt,37,37
23,0,208.7846,0,730,2058.0,2857.0,4205.0,901.0,-5.0,200.0,1.0,0.0,209.8442,0.0,3.0,31_01_2014 level23_spatial_F+V 08_39 Block4-12.txt,37,37
24,1,218.0965,0,730,2058.0,2857.0,4205.0,901.0,-5.0,200.0,1.0,1.0,218.7684,1.0,3.0,31_01_2014 level23_spatial_F+V 08_39 Block4-12.txt,37,37
25,0,223.3482,0,730,2058.0,2857.0,4205.0,851.0,-5.0,200.0,1.0,1.0,224.2943,1.0,0.0,31_01_2014 level23_spatial_F+V 08_39 Block4-12.txt,37,37
26,0,229.4427,0,460,1105.0,2857.0,4205.0,651.0,-5.0,200.0,0.0,0.0,230.2977,1.0,3.0,31_01_2014 level23_spatial_F+V 08_39 Block4-12.txt,37,37
27,0,236.8231,0,730,2058.0,2857.0,4205.0,751.0,-5.0,200.0,1.0,1.0,237.6023,1.0,2.0,31_01_2014 level23_spatial_F+V 08_39 Block4-12.txt,37,37
28,0,241.6147,0,730,2058.0,2857.0,4205.0,651.0,-5.0,200.0,1.0,1.0,242.5931,1.0,3.0,31_01_2014 level23_spatial_F+V 08_39 Block4-12.txt,37,37
29,0,247.3276,1,460,1105.0,2857.0,4205.0,701.0,-5.0,200.0,0.0,0.0,249.2302,1.0,0.0,31_01_2014 level23_spatial_F+V 08_39 Block4-12.txt,37,37
30,0,254.8634,0,730,2058.0,2857.0,4205.0,501.0,-5.0,200.0,1.0,1.0,258.8788,1.0,2.0,31_01_2014 level23_spatial_F+V 08_39 Block4-12.txt,37,37
31,0,263.3997,0,460,1105.0,2857.0,4205.0,951.0,-5.0,200.0,0.0,1.0,265.8556,0.0,1.0,31_01_2014 level23_spatial_F+V 08_39 Block4-12.txt,37,37
32,1,279.6305,0,460,1105.0,2857.0,4205.0,951.0,-5.0,200.0,0.0,0.0,280.8024,1.0,1.0,31_01_2014 level23_spatial_F+V 08_39 Block4-12.txt,37,37
33,0,286.309,0,730,2058.0,2857.0,4205.0,901.0,-5.0,200.0,1.0,1.0,287.6139,1.0,0.0,31_01_2014 level23_spatial_F+V 08_39 Block4-12.txt,37,37
34,0,291.9597,0,730,2058.0,2857.0,4205.0,1001.0,-5.0,200.0,1.0,1.0,292.5497,1.0,1.0,31_01_2014 level23_spatial_F+V 08_39 Block4-12.txt,37,37
35,0,297.1932,0,730,2058.0,2857.0,4205.0,551.0,-5.0,200.0,1.0,0.0,298.5145,0.0,2.0,31_01_2014 level23_spatial_F+V 08_39 Block4-12.txt,37,37
36,1,308.0801,0,730,2058.0,2857.0,4205.0,551.0,-5.0,200.0,1.0,1.0,309.5492,1.0,2.0,31_01_2014 level23_spatial_F+V 08_39 Block4-12.txt,37,37
37,0,315.9233,0,730,2058.0,2857.0,4205.0,751.0,-5.0,200.0,1.0,1.0,316.668,1.0,2.0,31_01_2014 level23_spatial_F+V 08_39 Block4-12.txt,37,37
38,0,321.7361,0,460,1105.0,2857.0,4205.0,601.0,-5.0,200.0,0.0,0.0,322.9777,1.0,0.0,31_01_2014 level23_spatial_F+V 08_39 Block4-12.txt,37,37
39,0,328.1264,0,460,1105.0,2857.0,4205.0,801.0,-5.0,200.0,0.0,1.0,329.2577,0.0,2.0,31_01_2014 level23_spatial_F+V 08_39 Block4-12.txt,37,37
40,1,338.2831,0,460,1105.0,2857.0,4205.0,801.0,-5.0,200.0,0.0,1.0,339.7521,0.0,2.0,31_01_2014 level23_spatial_F+V 08_39 Block4-12.txt,37,37
41,1,349.484,0,460,1105.0,2857.0,4205.0,801.0,-5.0,200.0,0.0,0.0,351.8491,1.0,2.0,31_01_2014 level23_spatial_F+V 08_39 Block4-12.txt,37,37
42,0,357.8084,0,460,1105.0,2857.0,4205.0,901.0,-5.0,200.0,0.0,0.0,359.2038,1.0,3.0,31_01_2014 level23_spatial_F+V 08_39 Block4-12.txt,37,37
43,0,365.2721,0,730,2058.0,2857.0,4205.0,701.0,-5.0,200.0,1.0,1.0,366.3747,1.0,3.0,31_01_2014 level23_spatial_F+V 08_39 Block4-12.txt,37,37
44,0,370.4464,0,730,2058.0,2857.0,4205.0,501.0,-5.0,200.0,1.0,0.0,371.8425,0.0,0.0,31_01_2014 level23_spatial_F+V 08_39 Block4-12.txt,37,37
45,1,381.5255,0,730,2058.0,2857.0,4205.0,501.0,-5.0,200.0,1.0,1.0,382.2345,1.0,0.0,31_01_2014 level23_spatial_F+V 08_39 Block4-12.txt,37,37
46,0,387.33,0,460,1105.0,2857.0,4205.0,601.0,-5.0,200.0,0.0,1.0,388.5147,0.0,1.0,31_01_2014 level23_spatial_F+V 08_39 Block4-12.txt,37,37
47,1,399.1463,0,460,1105.0,2857.0,4205.0,601.0,-5.0,200.0,0.0,1.0,400.3693,0.0,1.0,31_01_2014 level23_spatial_F+V 08_39 Block4-12.txt,37,37
48,1,408.2884,0,460,1105.0,2857.0,4205.0,601.0,-5.0,200.0,0.0,0.0,409.6822,1.0,1.0,31_01_2014 level23_spatial_F+V 08_39 Block4-12.txt,37,37
49,0,415.1747,0,460,1105.0,2857.0,4205.0,651.0,-5.0,200.0,0.0,0.0,417.6018,1.0,1.0,31_01_2014 level23_spatial_F+V 08_39 Block4-12.txt,37,37
50,0,425.0607,0,460,1105.0,2857.0,4205.0,801.0,-5.0,200.0,0.0,0.0,426.9668,1.0,1.0,31_01_2014 level23_spatial_F+V 08_39 Block4-12.txt,37,37
51,0,433.3784,0,460,1105.0,2857.0,4205.0,851.0,-5.0,200.0,0.0,0.0,434.5192,1.0,0.0,31_01_2014 level23_spatial_F+V 08_39 Block4-12.txt,37,37
52,0,440.8382,0,730,2058.0,2857.0,4205.0,751.0,-5.0,200.0,1.0,1.0,442.2613,1.0,1.0,31_01_2014 level23_spatial_F+V 08_39 Block4-12.txt,37,37
53,0,447.0373,0,730,2058.0,2857.0,4205.0,951.0,-5.0,200.0,1.0,1.0,447.479,1.0,0.0,31_01_2014 level23_spatial_F+V 08_39 Block4-12.txt,37,37
54,0,459.2726,0,460,1105.0,2857.0,4205.0,1001.0,-5.0,200.0,0.0,0.0,460.7015,1.0,3.0,31_01_2014 level23_spatial_F+V 08_39 Block4-12.txt,37,37
55,0,466.2916,0,730,2058.0,2857.0,4205.0,551.0,-5.0,200.0,1.0,0.0,468.1685,0.0,1.0,31_01_2014 level23_spatial_F+V 08_39 Block4-12.txt,37,37
56,1,475.2136,0,730,2058.0,2857.0,4205.0,551.0,-5.0,200.0,1.0,1.0,476.2698,1.0,1.0,31_01_2014 level23_spatial_F+V 08_39 Block4-12.txt,37,37
57,0,481.011,0,730,2058.0,2857.0,4205.0,851.0,-5.0,200.0,1.0,1.0,481.8197,1.0,3.0,31_01_2014 level23_spatial_F+V 08_39 Block4-12.txt,37,37
58,0,489.9726,0,730,2058.0,2857.0,4205.0,1001.0,-5.0,200.0,1.0,1.0,490.5095,1.0,3.0,31_01_2014 level23_spatial_F+V 08_39 Block4-12.txt,37,37
59,0,495.2924,0,460,1105.0,2857.0,4205.0,701.0,-5.0,200.0,0.0,0.0,496.884,1.0,3.0,31_01_2014 level23_spatial_F+V 08_39 Block4-12.txt,37,37
60,0,503.8761,0,460,1105.0,2857.0,4205.0,801.0,-5.0,200.0,0.0,1.0,504.7095,0.0,0.0,31_01_2014 level23_spatial_F+V 08_39 Block4-12.txt,37,37
61,1,515.0986,0,460,1105.0,2857.0,4205.0,801.0,-5.0,200.0,0.0,0.0,516.8937,1.0,0.0,31_01_2014 level23_spatial_F+V 08_39 Block4-12.txt,37,37
62,0,522.2936,0,460,1105.0,2857.0,4205.0,901.0,-5.0,200.0,0.0,0.0,523.7109,1.0,2.0,31_01_2014 level23_spatial_F+V 08_39 Block4-12.txt,37,37
63,0,531.1756,0,460,1105.0,2857.0,4205.0,501.0,-5.0,200.0,0.0,0.0,533.1517,1.0,2.0,31_01_2014 level23_spatial_F+V 08_39 Block4-12.txt,37,37
64,0,539.1184,1,730,2058.0,2857.0,4205.0,601.0,-5.0,200.0,1.0,1.0,540.0581,1.0,2.0,31_01_2014 level23_spatial_F+V 08_39 Block4-12.txt,37,37
65,0,544.0372,0,730,2058.0,2857.0,4205.0,651.0,-5.0,200.0,1.0,1.0,545.5964,1.0,1.0,31_01_2014 level23_spatial_F+V 08_39 Block4-12.txt,37,37
66,0,550.2718,0,730,2058.0,2857.0,4205.0,951.0,-5.0,200.0,1.0,1.0,551.7812,1.0,3.0,31_01_2014 level23_spatial_F+V 08_39 Block4-12.txt,37,37
67,0,556.8732,0,460,1105.0,2857.0,4205.0,701.0,-5.0,200.0,0.0,1.0,557.652,0.0,3.0,31_01_2014 level23_spatial_F+V 08_39 Block4-12.txt,37,37
68,1,564.8641,1,460,1105.0,2857.0,4205.0,701.0,-5.0,200.0,0.0,0.0,570.2331,1.0,3.0,31_01_2014 level23_spatial_F+V 08_39 Block4-12.txt,37,37
69,0,576.1842,0,730,2058.0,2857.0,4205.0,551.0,-5.0,200.0,1.0,0.0,577.8321,0.0,0.0,31_01_2014 level23_spatial_F+V 08_39 Block4-12.txt,37,37
70,1,585.4061,0,730,2058.0,2857.0,4205.0,551.0,-5.0,200.0,1.0,1.0,587.9459,1.0,0.0,31_01_2014 level23_spatial_F+V 08_39 Block4-12.txt,37,37
71,0,593.273,0,460,1105.0,2857.0,4205.0,1001.0,-5.0,200.0,0.0,1.0,594.5632,0.0,1.0,31_01_2014 level23_spatial_F+V 08_39 Block4-12.txt,37,37
72,1,610.5458,0,460,1105.0,2857.0,4205.0,1001.0,-5.0,200.0,0.0,0.0,612.0572,1.0,1.0,31_01_2014 level23_spatial_F+V 08_39 Block4-12.txt,37,37
73,0,617.3968,1,730,2058.0,2857.0,4205.0,801.0,-5.0,200.0,1.0,1.0,618.4797,1.0,1.0,31_01_2014 level23_spatial_F+V 08_39 Block4-12.txt,37,37
74,0,623.113,0,730,2058.0,2857.0,4205.0,751.0,-5.0,200.0,1.0,0.0,624.7046,0.0,2.0,31_01_2014 level23_spatial_F+V 08_39 Block4-12.txt,37,37
75,1,634.1076,0,730,2058.0,2857.0,4205.0,751.0,-5.0,200.0,1.0,1.0,635.1049,1.0,2.0,31_01_2014 level23_spatial_F+V 08_39 Block4-12.txt,37,37
76,0,639.8003,0,460,1105.0,2857.0,4205.0,851.0,-5.0,200.0,0.0,1.0,640.4563,0.0,2.0,31_01_2014 level23_spatial_F+V 08_39 Block4-12.txt,37,37
77,1,648.2571,0,460,1105.0,2857.0,4205.0,851.0,-5.0,200.0,0.0,0.0,651.5248,1.0,2.0,31_01_2014 level23_spatial_F+V 08_39 Block4-12.txt,37,37
78,0,656.9377,0,730,2058.0,2857.0,4205.0,501.0,-5.0,200.0,1.0,1.0,657.9106,1.0,1.0,31_01_2014 level23_spatial_F+V 08_39 Block4-12.txt,37,37
79,0,662.4574,0,460,1105.0,2857.0,4205.0,901.0,-5.0,200.0,0.0,1.0,663.8018,0.0,0.0,31_01_2014 level23_spatial_F+V 08_39 Block4-12.txt,37,37
80,1,681.185,0,460,1105.0,2857.0,4205.0,901.0,-5.0,200.0,0.0,0.0,682.7344,1.0,0.0,31_01_2014 level23_spatial_F+V 08_39 Block4-12.txt,37,37
81,0,688.5295,0,460,1105.0,2857.0,4205.0,601.0,-5.0,200.0,0.0,0.0,690.9243,1.0,0.0,31_01_2014 level23_spatial_F+V 08_39 Block4-12.txt,37,37
82,0,697.5468,0,460,1105.0,2857.0,4205.0,651.0,-5.0,200.0,0.0,1.0,698.734,0.0,0.0,31_01_2014 level23_spatial_F+V 08_39 Block4-12.txt,37,37
83,1,711.7338,0,460,1105.0,2857.0,4205.0,651.0,-5.0,200.0,0.0,0.0,714.0318,1.0,0.0,31_01_2014 level23_spatial_F+V 08_39 Block4-12.txt,37,37
84,0,722.311,0,460,1105.0,2857.0,4205.0,1001.0,-5.0,200.0,0.0,1.0,723.3645,0.0,1.0,31_01_2014 level23_spatial_F+V 08_39 Block4-12.txt,37,37
85,1,729.8535,0,460,1105.0,2857.0,4205.0,1001.0,-5.0,200.0,0.0,0.0,731.3086,1.0,1.0,31_01_2014 level23_spatial_F+V 08_39 Block4-12.txt,37,37
86,0,738.3558,0,730,2058.0,2857.0,4205.0,801.0,-5.0,200.0,1.0,1.0,739.2275,1.0,3.0,31_01_2014 level23_spatial_F+V 08_39 Block4-12.txt,37,37
87,0,747.7655,1,730,2058.0,2857.0,4205.0,951.0,-5.0,200.0,1.0,1.0,748.4762,1.0,2.0,31_01_2014 level23_spatial_F+V 08_39 Block4-12.txt,37,37
88,0,754.3219,0,460,1105.0,2857.0,4205.0,651.0,-5.0,200.0,0.0,0.0,756.1307,1.0,3.0,31_01_2014 level23_spatial_F+V 08_39 Block4-12.txt,37,37
89,0,764.5178,0,460,1105.0,2857.0,4205.0,751.0,-5.0,200.0,0.0,0.0,766.7243,1.0,1.0,31_01_2014 level23_spatial_F+V 08_39 Block4-12.txt,37,37
90,0,771.6375,0,730,2058.0,2857.0,4205.0,701.0,-5.0,200.0,1.0,0.0,773.6896,0.0,0.0,31_01_2014 level23_spatial_F+V 08_39 Block4-12.txt,37,37
91,1,780.5543,0,730,2058.0,2857.0,4205.0,701.0,-5.0,200.0,1.0,1.0,781.6633,1.0,0.0,31_01_2014 level23_spatial_F+V 08_39 Block4-12.txt,37,37
92,0,787.0303,0,460,1105.0,2857.0,4205.0,901.0,-5.0,200.0,0.0,0.0,788.3292,1.0,2.0,31_01_2014 level23_spatial_F+V 08_39 Block4-12.txt,37,37
93,0,794.994,1,730,2058.0,2857.0,4205.0,851.0,-5.0,200.0,1.0,1.0,796.1595,1.0,2.0,31_01_2014 level23_spatial_F+V 08_39 Block4-12.txt,37,37
94,0,801.0745,0,730,2058.0,2857.0,4205.0,601.0,-5.0,200.0,1.0,1.0,805.9917,1.0,3.0,31_01_2014 level23_spatial_F+V 08_39 Block4-12.txt,37,37
95,0,810.7875,0,460,1105.0,2857.0,4205.0,551.0,-5.0,200.0,0.0,1.0,811.8794,0.0,2.0,31_01_2014 level23_spatial_F+V 08_39 Block4-12.txt,37,37
96,1,823.2239,0,460,1105.0,2857.0,4205.0,551.0,-5.0,200.0,0.0,0.0,825.2414,1.0,2.0,31_01_2014 level23_spatial_F+V 08_39 Block4-12.txt,37,37
97,0,831.5386,0,730,2058.0,2857.0,4205.0,501.0,-5.0,200.0,1.0,0.0,833.6674,0.0,0.0,31_01_2014 level23_spatial_F+V 08_39 Block4-12.txt,37,37
98,1,843.4947,0,730,2058.0,2857.0,4205.0,501.0,-5.0,200.0,1.0,1.0,844.5079,1.0,0.0,31_01_2014 level23_spatial_F+V 08_39 Block4-12.txt,37,37
99,0,848.5702,0,460,1105.0,2857.0,4205.0,551.0,-5.0,200.0,0.0,1.0,850.092,0.0,3.0,31_01_2014 level23_spatial_F+V 08_39 Block4-12.txt,37,37
100,1,866.6584,0,460,1105.0,2857.0,4205.0,551.0,-5.0,200.0,0.0,0.0,867.983,1.0,3.0,31_01_2014 level23_spatial_F+V 08_39 Block4-12.txt,37,37
101,0,873.4738,0,730,2058.0,2857.0,4205.0,851.0,-5.0,200.0,1.0,0.0,874.4841,0.0,2.0,31_01_2014 level23_spatial_F+V 08_39 Block4-12.txt,37,37
102,1,881.5914,1,730,2058.0,2857.0,4205.0,851.0,-5.0,200.0,1.0,1.0,882.0849,1.0,2.0,31_01_2014 level23_spatial_F+V 08_39 Block4-12.txt,37,37
103,0,887.0333,0,730,2058.0,2857.0,4205.0,701.0,-5.0,200.0,1.0,1.0,888.1358,1.0,3.0,31_01_2014 level23_spatial_F+V 08_39 Block4-12.txt,37,37
104,0,895.4433,0,460,1105.0,2857.0,4205.0,951.0,-5.0,200.0,0.0,1.0,897.5875,0.0,3.0,31_01_2014 level23_spatial_F+V 08_39 Block4-12.txt,37,37
105,1,905.4738,0,460,1105.0,2857.0,4205.0,951.0,-5.0,200.0,0.0,0.0,906.9447,1.0,3.0,31_01_2014 level23_spatial_F+V 08_39 Block4-12.txt,37,37
106,0,913.4841,0,460,1105.0,2857.0,4205.0,901.0,-5.0,200.0,0.0,1.0,914.4748,0.0,1.0,31_01_2014 level23_spatial_F+V 08_39 Block4-12.txt,37,37
107,1,923.9125,0,460,1105.0,2857.0,4205.0,901.0,-5.0,200.0,0.0,0.0,925.7838,1.0,1.0,31_01_2014 level23_spatial_F+V 08_39 Block4-12.txt,37,37
108,0,933.5575,0,730,2058.0,2857.0,4205.0,601.0,-5.0,200.0,1.0,1.0,934.8786,1.0,0.0,31_01_2014 level23_spatial_F+V 08_39 Block4-12.txt,37,37
109,0,939.5243,0,460,1105.0,2857.0,4205.0,651.0,-5.0,200.0,0.0,1.0,940.3006,0.0,2.0,31_01_2014 level23_spatial_F+V 08_39 Block4-12.txt,37,37
110,1,948.4327,0,460,1105.0,2857.0,4205.0,651.0,-5.0,200.0,0.0,0.0,951.2522,1.0,2.0,31_01_2014 level23_spatial_F+V 08_39 Block4-12.txt,37,37
111,0,955.9409,0,730,2058.0,2857.0,4205.0,801.0,-5.0,200.0,1.0,0.0,957.3494,0.0,0.0,31_01_2014 level23_spatial_F+V 08_39 Block4-12.txt,37,37
112,1,963.4569,0,730,2058.0,2857.0,4205.0,801.0,-5.0,200.0,1.0,1.0,964.4563,1.0,0.0,31_01_2014 level23_spatial_F+V 08_39 Block4-12.txt,37,37
113,0,970.0515,1,730,2058.0,2857.0,4205.0,1001.0,-5.0,200.0,1.0,1.0,970.5415,1.0,1.0,31_01_2014 level23_spatial_F+V 08_39 Block4-12.txt,37,37
114,0,976.1824,0,460,1105.0,2857.0,4205.0,901.0,-5.0,200.0,0.0,1.0,985.3897,0.0,1.0,31_01_2014 level23_spatial_F+V 08_39 Block4-12.txt,37,37
115,1,995.4939,0,460,1105.0,2857.0,4205.0,901.0,-5.0,200.0,0.0,0.0,997.2229,1.0,1.0,31_01_2014 level23_spatial_F+V 08_39 Block4-12.txt,37,37
116,0,1002.7519,0,460,1105.0,2857.0,4205.0,801.0,-5.0,200.0,0.0,1.0,1003.8499,0.0,2.0,31_01_2014 level23_spatial_F+V 08_39 Block4-12.txt,37,37
117,1,1011.1655,0,460,1105.0,2857.0,4205.0,801.0,-5.0,200.0,0.0,1.0,1011.8896,0.0,2.0,31_01_2014 level23_spatial_F+V 08_39 Block4-12.txt,37,37
118,1,1018.9197,0,460,1105.0,2857.0,4205.0,801.0,-5.0,200.0,0.0,0.0,1020.0755,1.0,2.0,31_01_2014 level23_spatial_F+V 08_39 Block4-12.txt,37,37
119,0,1024.9782,0,460,1105.0,2857.0,4205.0,701.0,-5.0,200.0,0.0,0.0,1026.2895,1.0,3.0,31_01_2014 level23_spatial_F+V 08_39 Block4-12.txt,37,37
120,0,1031.267,0,730,2058.0,2857.0,4205.0,751.0,-5.0,200.0,1.0,1.0,1032.8339,1.0,2.0,31_01_2014 level23_spatial_F+V 08_39 Block4-12.txt,37,37
121,0,1038.0444,0,460,1105.0,2857.0,4205.0,501.0,-5.0,200.0,0.0,1.0,1039.3306,0.0,0.0,31_01_2014 level23_spatial_F+V 08_39 Block4-12.txt,37,37
122,1,1045.8167,0,460,1105.0,2857.0,4205.0,501.0,-5.0,200.0,0.0,0.0,1047.7613,1.0,0.0,31_01_2014 level23_spatial_F+V 08_39 Block4-12.txt,37,37
123,0,1053.262,1,460,1105.0,2857.0,4205.0,551.0,-5.0,200.0,0.0,0.0,1059.1025,1.0,0.0,31_01_2014 level23_spatial_F+V 08_39 Block4-12.txt,37,37
124,0,1070.0952,1,730,2058.0,2857.0,4205.0,1001.0,-5.0,200.0,1.0,1.0,1070.8124,1.0,1.0,31_01_2014 level23_spatial_F+V 08_39 Block4-12.txt,37,37
125,0,1076.5127,0,730,2058.0,2857.0,4205.0,951.0,-5.0,200.0,1.0,1.0,1080.4174,1.0,3.0,31_01_2014 level23_spatial_F+V 08_39 Block4-12.txt,37,37
126,0,1084.4345,0,460,1105.0,2857.0,4205.0,601.0,-5.0,200.0,0.0,1.0,1085.5569,0.0,2.0,31_01_2014 level23_spatial_F+V 08_39 Block4-12.txt,37,37
127,1,1102.1615,0,460,1105.0,2857.0,4205.0,601.0,-5.0,200.0,0.0,1.0,1103.1674,0.0,2.0,31_01_2014 level23_spatial_F+V 08_39 Block4-12.txt,37,37
1,0,3.5538,0,460,1105.0,2857.0,4205.0,651.0,10.0,200.0,0.0,0.0,4.5455,1.0,2.0,12_01_2015 level23_spatial_F+V 09_32 Block7-74.txt,37,37
2,0,11.1629,0,730,2058.0,2857.0,4205.0,851.0,10.0,200.0,1.0,0.0,11.8103,0.0,2.0,12_01_2015 level23_spatial_F+V 09_32 Block7-74.txt,37,37
3,1,22.6503,0,730,2058.0,2857.0,4205.0,851.0,10.0,200.0,1.0,1.0,23.4109,1.0,2.0,12_01_2015 level23_spatial_F+V 09_32 Block7-74.txt,37,37
4,0,34.1854,1,730,2058.0,2857.0,4205.0,751.0,10.0,200.0,1.0,1.0,35.3868,1.0,2.0,12_01_2015 level23_spatial_F+V 09_32 Block7-74.txt,37,37
5,0,44.8967,1,460,1105.0,2857.0,4205.0,551.0,10.0,200.0,0.0,0.0,46.951,1.0,5.0,12_01_2015 level23_spatial_F+V 09_32 Block7-74.txt,37,37
6,0,51.4979,0,730,2058.0,2857.0,4205.0,951.0,10.0,200.0,1.0,0.0,52.3398,0.0,1.0,12_01_2015 level23_spatial_F+V 09_32 Block7-74.txt,37,37
7,1,68.3338,0,730,2058.0,2857.0,4205.0,951.0,10.0,200.0,1.0,0.0,69.116,0.0,1.0,12_01_2015 level23_spatial_F+V 09_32 Block7-74.txt,37,37
8,1,80.548,0,730,2058.0,2857.0,4205.0,951.0,10.0,200.0,1.0,1.0,81.5846,1.0,1.0,12_01_2015 level23_spatial_F+V 09_32 Block7-74.txt,37,37
9,0,90.1066,0,730,2058.0,2857.0,4205.0,901.0,10.0,200.0,1.0,1.0,91.2111,1.0,5.0,12_01_2015 level23_spatial_F+V 09_32 Block7-74.txt,37,37
10,0,102.6484,0,460,1105.0,2857.0,4205.0,801.0,10.0,200.0,0.0,1.0,103.8428,0.0,0.0,12_01_2015 level23_spatial_F+V 09_32 Block7-74.txt,37,37
11,1,109.7703,0,460,1105.0,2857.0,4205.0,801.0,10.0,200.0,0.0,0.0,110.9824,1.0,0.0,12_01_2015 level23_spatial_F+V 09_32 Block7-74.txt,37,37
12,0,120.7317,0,460,1105.0,2857.0,4205.0,601.0,10.0,200.0,0.0,0.0,121.9989,1.0,4.0,12_01_2015 level23_spatial_F+V 09_32 Block7-74.txt,37,37
13,0,132.0796,0,730,2058.0,2857.0,4205.0,1001.0,10.0,200.0,1.0,1.0,132.951,1.0,3.0,12_01_2015 level23_spatial_F+V 09_32 Block7-74.txt,37,37
14,0,141.5302,0,460,1105.0,2857.0,4205.0,701.0,10.0,200.0,0.0,0.0,142.7267,1.0,3.0,12_01_2015 level23_spatial_F+V 09_32 Block7-74.txt,37,37
15,0,146.8199,0,460,1105.0,2857.0,4205.0,1001.0,10.0,200.0,0.0,1.0,147.4177,0.0,2.0,12_01_2015 level23_spatial_F+V 09_32 Block7-74.txt,37,37
16,1,154.1085,0,460,1105.0,2857.0,4205.0,1001.0,10.0,200.0,0.0,0.0,155.3391,1.0,2.0,12_01_2015 level23_spatial_F+V 09_32 Block7-74.txt,37,37
17,0,160.1152,0,730,2058.0,2857.0,4205.0,901.0,10.0,200.0,1.0,0.0,161.2048,0.0,2.0,12_01_2015 level23_spatial_F+V 09_32 Block7-74.txt,37,37
18,1,168.4981,0,730,2058.0,2857.0,4205.0,901.0,10.0,200.0,1.0,1.0,169.2754,1.0,2.0,12_01_2015 level23_spatial_F+V 09_32 Block7-74.txt,37,37
19,0,177.1491,0,730,2058.0,2857.0,4205.0,501.0,10.0,200.0,1.0,1.0,178.4658,1.0,4.0,12_01_2015 level23_spatial_F+V 09_32 Block7-74.txt,37,37
20,0,186.9757,0,730,2058.0,2857.0,4205.0,801.0,10.0,200.0,1.0,1.0,188.0489,1.0,4.0,12_01_2015 level23_spatial_F+V 09_32 Block7-74.txt,37,37
21,0,198.2625,0,730,2058.0,2857.0,4205.0,701.0,10.0,200.0,1.0,0.0,199.1747,0.0,1.0,12_01_2015 level23_spatial_F+V 09_32 Block7-74.txt,37,37
22,1,207.6226,0,730,2058.0,2857.0,4205.0,701.0,10.0,200.0,1.0,1.0,208.7719,1.0,1.0,12_01_2015 level23_spatial_F+V 09_32 Block7-74.txt,37,37
23,0,216.1871,0,730,2058.0,2857.0,4205.0,851.0,10.0,200.0,1.0,0.0,217.0353,0.0,1.0,12_01_2015 level23_spatial_F+V 09_32 Block7-74.txt,37,37
24,1,227.2794,0,730,2058.0,2857.0,4205.0,851.0,10.0,200.0,1.0,0.0,228.374,0.0,1.0,12_01_2015 level23_spatial_F+V 09_32 Block7-74.txt,37,37
25,1,238.1692,0,730,2058.0,2857.0,4205.0,851.0,10.0,200.0,1.0,1.0,238.9675,1.0,1.0,12_01_2015 level23_spatial_F+V 09_32 Block7-74.txt,37,37
26,0,247.22,0,460,1105.0,2857.0,4205.0,601.0,10.0,200.0,0.0,0.0,248.5547,1.0,5.0,12_01_2015 level23_spatial_F+V 09_32 Block7-74.txt,37,37
27,0,252.725,0,460,1105.0,2857.0,4205.0,751.0,10.0,200.0,0.0,0.0,253.6718,1.0,4.0,12_01_2015 level23_spatial_F+V 09_32 Block7-74.txt,37,37
28,0,257.5056,0,730,2058.0,2857.0,4205.0,651.0,10.0,200.0,1.0,0.0,258.5136,0.0,3.0,12_01_2015 level23_spatial_F+V 09_32 Block7-74.txt,37,37
29,1,267.478,0,730,2058.0,2857.0,4205.0,651.0,10.0,200.0,1.0,1.0,268.6402,1.0,3.0,12_01_2015 level23_spatial_F+V 09_32 Block7-74.txt,37,37
