Trial,CorrectionTrial,StartTime,CenterReward,F1,F2,F3,F4,HoldTime,Atten,Pitch,Side,Response,RespTime,Correct,SpatialMask,originalFile,LeftTemperature,RightTemperature
1,0,8.3086,0,460,1105,2857,4205,701,-15.0,200,1,0,17.1538,0,0,17_07_2014 level23_spatial_Clio 14_56 log.txt,37,37
2,1,24.9341,0,460,1105,2857,4205,701,-15.0,200,1,1,25.3511,1,0,17_07_2014 level23_spatial_Clio 14_56 log.txt,37,37
3,0,38.9245,0,730,2058,2857,4205,601,-15.0,200,0,0,39.6077,1,0,17_07_2014 level23_spatial_Clio 14_56 log.txt,37,37
4,0,47.5368,0,730,2058,2857,4205,651,-15.0,200,0,0,48.2321,1,4,17_07_2014 level23_spatial_Clio 14_56 log.txt,37,37
5,0,57.3617,0,730,2058,2857,4205,551,-15.0,200,0,0,58.8833,1,3,17_07_2014 level23_spatial_Clio 14_56 log.txt,37,37
6,0,69.679,0,460,1105,2857,4205,1001,-15.0,200,1,1,70.0262,1,5,17_07_2014 level23_spatial_Clio 14_56 log.txt,37,37
7,0,84.4448,1,460,1105,2857,4205,901,-15.0,200,1,0,85.4922,0,2,17_07_2014 level23_spatial_Clio 14_56 log.txt,37,37
8,1,94.3686,0,460,1105,2857,4205,901,-15.0,200,1,0,96.2301,0,2,17_07_2014 level23_spatial_Clio 14_56 log.txt,37,37
9,1,105.4368,0,460,1105,2857,4205,901,-15.0,200,1,1,105.6729,1,2,17_07_2014 level23_spatial_Clio 14_56 log.txt,37,37
10,0,122.3063,0,460,1105,2857,4205,851,-15.0,200,1,0,124.1795,0,0,17_07_2014 level23_spatial_Clio 14_56 log.txt,37,37
11,1,135.3137,0,460,1105,2857,4205,851,-15.0,200,1,0,136.7067,0,0,17_07_2014 level23_spatial_Clio 14_56 log.txt,37,37
12,1,142.911,0,460,1105,2857,4205,851,-15.0,200,1,1,143.2474,1,0,17_07_2014 level23_spatial_Clio 14_56 log.txt,37,37
13,0,159.0599,0,730,2058,2857,4205,751,-15.0,200,0,1,161.8921,0,1,17_07_2014 level23_spatial_Clio 14_56 log.txt,37,37
14,1,168.8948,0,730,2058,2857,4205,751,-15.0,200,0,1,169.1111,0,1,17_07_2014 level23_spatial_Clio 14_56 log.txt,37,37
15,1,176.5027,0,730,2058,2857,4205,751,-15.0,200,0,0,177.9159,1,1,17_07_2014 level23_spatial_Clio 14_56 log.txt,37,37
16,0,189.21,0,460,1105,2857,4205,951,-15.0,200,1,0,190.8959,0,4,17_07_2014 level23_spatial_Clio 14_56 log.txt,37,37
17,1,195.7432,0,460,1105,2857,4205,951,-15.0,200,1,0,200.8537,0,4,17_07_2014 level23_spatial_Clio 14_56 log.txt,37,37
18,1,206.5969,0,460,1105,2857,4205,951,-15.0,200,1,1,206.9933,1,4,17_07_2014 level23_spatial_Clio 14_56 log.txt,37,37
19,0,215.447,0,460,1105,2857,4205,501,-15.0,200,1,0,217.5828,0,4,17_07_2014 level23_spatial_Clio 14_56 log.txt,37,37
20,1,223.0036,0,460,1105,2857,4205,501,-15.0,200,1,1,227.3639,1,4,17_07_2014 level23_spatial_Clio 14_56 log.txt,37,37
21,0,238.3752,0,460,1105,2857,4205,901,-15.0,200,1,1,238.6426,1,3,17_07_2014 level23_spatial_Clio 14_56 log.txt,37,37
22,0,255.5795,1,730,2058,2857,4205,751,-15.0,200,0,0,256.9035,1,2,17_07_2014 level23_spatial_Clio 14_56 log.txt,37,37
23,0,263.5679,0,460,1105,2857,4205,851,-15.0,200,1,0,266.2251,0,3,17_07_2014 level23_spatial_Clio 14_56 log.txt,37,37
24,1,280.1721,0,460,1105,2857,4205,851,-15.0,200,1,1,280.4978,1,3,17_07_2014 level23_spatial_Clio 14_56 log.txt,37,37
25,0,292.5423,0,460,1105,2857,4205,651,-15.0,200,1,0,294.6271,0,5,17_07_2014 level23_spatial_Clio 14_56 log.txt,37,37
26,1,299.6963,0,460,1105,2857,4205,651,-15.0,200,1,1,300.2932,1,5,17_07_2014 level23_spatial_Clio 14_56 log.txt,37,37
27,0,321.7389,0,730,2058,2857,4205,801,-15.0,200,0,0,322.677,1,4,17_07_2014 level23_spatial_Clio 14_56 log.txt,37,37
28,0,327.5918,0,730,2058,2857,4205,551,-15.0,200,0,0,328.7801,1,5,17_07_2014 level23_spatial_Clio 14_56 log.txt,37,37
29,0,337.675,1,460,1105,2857,4205,601,-15.0,200,1,1,338.2582,1,3,17_07_2014 level23_spatial_Clio 14_56 log.txt,37,37
30,0,349.4591,0,460,1105,2857,4205,1001,-15.0,200,1,1,351.541,1,2,17_07_2014 level23_spatial_Clio 14_56 log.txt,37,37
31,0,367.3903,0,730,2058,2857,4205,951,-15.0,200,0,0,368.6122,1,1,17_07_2014 level23_spatial_Clio 14_56 log.txt,37,37
32,0,375.0405,0,730,2058,2857,4205,701,-15.0,200,0,0,375.9326,1,5,17_07_2014 level23_spatial_Clio 14_56 log.txt,37,37
33,0,384.5129,0,730,2058,2857,4205,501,-15.0,200,0,0,386.0225,1,4,17_07_2014 level23_spatial_Clio 14_56 log.txt,37,37
34,0,394.2285,0,730,2058,2857,4205,951,-15.0,200,0,0,395.2722,1,3,17_07_2014 level23_spatial_Clio 14_56 log.txt,37,37
35,0,403.0556,0,460,1105,2857,4205,701,-15.0,200,1,1,403.4019,1,1,17_07_2014 level23_spatial_Clio 14_56 log.txt,37,37
36,0,413.5373,0,460,1105,2857,4205,1001,-15.0,200,1,0,415.8143,0,4,17_07_2014 level23_spatial_Clio 14_56 log.txt,37,37
37,1,422.1874,0,460,1105,2857,4205,1001,-15.0,200,1,1,422.4997,1,4,17_07_2014 level23_spatial_Clio 14_56 log.txt,37,37
38,0,435.3565,1,460,1105,2857,4205,651,-15.0,200,1,0,436.509,0,1,17_07_2014 level23_spatial_Clio 14_56 log.txt,37,37
39,1,445.4773,0,460,1105,2857,4205,651,-15.0,200,1,1,446.0848,1,1,17_07_2014 level23_spatial_Clio 14_56 log.txt,37,37
40,0,459.5296,0,730,2058,2857,4205,801,-15.0,200,0,0,460.4197,1,0,17_07_2014 level23_spatial_Clio 14_56 log.txt,37,37
41,0,470.8028,0,730,2058,2857,4205,751,-15.0,200,0,0,474.7146,1,2,17_07_2014 level23_spatial_Clio 14_56 log.txt,37,37
42,0,486.3345,0,730,2058,2857,4205,601,-15.0,200,0,0,487.4143,1,2,17_07_2014 level23_spatial_Clio 14_56 log.txt,37,37
43,0,493.0301,0,460,1105,2857,4205,851,-15.0,200,1,1,493.8608,1,1,17_07_2014 level23_spatial_Clio 14_56 log.txt,37,37
44,0,510.116,0,460,1105,2857,4205,901,-15.0,200,1,0,510.8686,0,2,17_07_2014 level23_spatial_Clio 14_56 log.txt,37,37
45,1,523.1185,0,460,1105,2857,4205,901,-15.0,200,1,1,523.3681,1,2,17_07_2014 level23_spatial_Clio 14_56 log.txt,37,37
46,0,545.2125,0,730,2058,2857,4205,951,-15.0,200,0,0,549.1914,1,1,17_07_2014 level23_spatial_Clio 14_56 log.txt,37,37
47,0,554.9374,0,460,1105,2857,4205,1001,-15.0,200,1,1,555.3952,1,5,17_07_2014 level23_spatial_Clio 14_56 log.txt,37,37
48,0,559.1905,0,730,2058,2857,4205,651,-15.0,200,0,0,559.9697,1,3,17_07_2014 level23_spatial_Clio 14_56 log.txt,37,37
49,0,568.5894,0,730,2058,2857,4205,801,-15.0,200,0,0,570.0672,1,0,17_07_2014 level23_spatial_Clio 14_56 log.txt,37,37
50,0,577.6313,0,460,1105,2857,4205,701,-15.0,200,1,0,578.724,0,0,17_07_2014 level23_spatial_Clio 14_56 log.txt,37,37
51,1,583.6779,0,460,1105,2857,4205,701,-15.0,200,1,1,584.107,1,0,17_07_2014 level23_spatial_Clio 14_56 log.txt,37,37
52,0,588.7471,0,730,2058,2857,4205,601,-15.0,200,0,0,590.3223,1,5,17_07_2014 level23_spatial_Clio 14_56 log.txt,37,37
53,0,595.9659,1,460,1105,2857,4205,851,-15.0,200,1,0,596.8588,0,3,17_07_2014 level23_spatial_Clio 14_56 log.txt,37,37
54,1,600.8549,0,460,1105,2857,4205,851,-15.0,200,1,0,603.5019,0,3,17_07_2014 level23_spatial_Clio 14_56 log.txt,37,37
55,1,613.5075,0,460,1105,2857,4205,851,-15.0,200,1,0,614.5903,0,3,17_07_2014 level23_spatial_Clio 14_56 log.txt,37,37
56,1,629.6847,0,460,1105,2857,4205,851,-15.0,200,1,1,630.0378,1,3,17_07_2014 level23_spatial_Clio 14_56 log.txt,37,37
57,0,635.6575,0,460,1105,2857,4205,751,-15.0,200,1,0,636.7643,0,1,17_07_2014 level23_spatial_Clio 14_56 log.txt,37,37
58,1,642.2639,0,460,1105,2857,4205,751,-15.0,200,1,1,642.7691,1,1,17_07_2014 level23_spatial_Clio 14_56 log.txt,37,37
59,0,645.9211,0,460,1105,2857,4205,501,-15.0,200,1,1,646.4714,1,2,17_07_2014 level23_spatial_Clio 14_56 log.txt,37,37
60,0,649.8165,0,460,1105,2857,4205,901,-15.0,200,1,1,650.2016,1,4,17_07_2014 level23_spatial_Clio 14_56 log.txt,37,37
61,0,653.8981,0,730,2058,2857,4205,551,-15.0,200,0,0,654.9919,1,5,17_07_2014 level23_spatial_Clio 14_56 log.txt,37,37
62,0,659.6504,0,730,2058,2857,4205,501,-15.0,200,0,1,660.1285,0,1,17_07_2014 level23_spatial_Clio 14_56 log.txt,37,37
63,1,666.0033,0,730,2058,2857,4205,501,-15.0,200,0,1,666.8222,0,1,17_07_2014 level23_spatial_Clio 14_56 log.txt,37,37
64,1,671.2986,1,730,2058,2857,4205,501,-15.0,200,0,0,674.8777,1,1,17_07_2014 level23_spatial_Clio 14_56 log.txt,37,37
65,0,680.2238,0,460,1105,2857,4205,601,-15.0,200,1,0,681.1006,0,1,17_07_2014 level23_spatial_Clio 14_56 log.txt,37,37
66,1,685.9862,1,460,1105,2857,4205,601,-15.0,200,1,1,686.3082,1,1,17_07_2014 level23_spatial_Clio 14_56 log.txt,37,37
67,0,692.7132,0,460,1105,2857,4205,851,-15.0,200,1,1,693.9931,1,4,17_07_2014 level23_spatial_Clio 14_56 log.txt,37,37
68,0,697.6682,0,730,2058,2857,4205,651,-15.0,200,0,0,698.438,1,0,17_07_2014 level23_spatial_Clio 14_56 log.txt,37,37
69,0,703.0884,0,460,1105,2857,4205,751,-15.0,200,1,0,704.3364,0,0,17_07_2014 level23_spatial_Clio 14_56 log.txt,37,37
70,1,710.3463,0,460,1105,2857,4205,751,-15.0,200,1,1,710.6663,1,0,17_07_2014 level23_spatial_Clio 14_56 log.txt,37,37
71,0,729.0408,0,730,2058,2857,4205,901,-15.0,200,0,1,733.9692,0,0,17_07_2014 level23_spatial_Clio 14_56 log.txt,37,37
72,1,746.3574,0,730,2058,2857,4205,901,-15.0,200,0,0,747.5527,1,0,17_07_2014 level23_spatial_Clio 14_56 log.txt,37,37
73,0,755.7761,0,460,1105,2857,4205,951,-15.0,200,1,1,756.1076,1,5,17_07_2014 level23_spatial_Clio 14_56 log.txt,37,37
74,0,778.8751,0,730,2058,2857,4205,1001,-15.0,200,0,1,779.1671,0,2,17_07_2014 level23_spatial_Clio 14_56 log.txt,37,37
75,1,783.9847,0,730,2058,2857,4205,1001,-15.0,200,0,0,785.4188,1,2,17_07_2014 level23_spatial_Clio 14_56 log.txt,37,37
76,0,792.7366,0,460,1105,2857,4205,801,-15.0,200,1,1,793.0858,1,0,17_07_2014 level23_spatial_Clio 14_56 log.txt,37,37
77,0,818.0905,1,730,2058,2857,4205,1001,-15.0,200,0,1,819.1229,0,3,17_07_2014 level23_spatial_Clio 14_56 log.txt,37,37
78,1,843.6249,0,730,2058,2857,4205,1001,-15.0,200,0,1,844.3511,0,3,17_07_2014 level23_spatial_Clio 14_56 log.txt,37,37
79,1,849.9245,0,730,2058,2857,4205,1001,-15.0,200,0,0,851.3835,1,3,17_07_2014 level23_spatial_Clio 14_56 log.txt,37,37
80,0,856.8976,0,730,2058,2857,4205,751,-15.0,200,0,0,857.9763,1,0,17_07_2014 level23_spatial_Clio 14_56 log.txt,37,37
81,0,867.7118,0,730,2058,2857,4205,601,-15.0,200,0,0,868.9295,1,3,17_07_2014 level23_spatial_Clio 14_56 log.txt,37,37
82,0,873.9863,0,460,1105,2857,4205,801,-15.0,200,1,1,874.7503,1,3,17_07_2014 level23_spatial_Clio 14_56 log.txt,37,37
83,0,881.1426,0,460,1105,2857,4205,701,-15.0,200,1,1,881.7019,1,1,17_07_2014 level23_spatial_Clio 14_56 log.txt,37,37
84,0,892.3529,0,460,1105,2857,4205,951,-15.0,200,1,1,892.9012,1,4,17_07_2014 level23_spatial_Clio 14_56 log.txt,37,37
85,0,899.951,0,730,2058,2857,4205,851,-15.0,200,0,0,900.7257,1,4,17_07_2014 level23_spatial_Clio 14_56 log.txt,37,37
86,0,905.6705,0,730,2058,2857,4205,551,-15.0,200,0,0,906.6196,1,2,17_07_2014 level23_spatial_Clio 14_56 log.txt,37,37
87,0,916.8471,0,460,1105,2857,4205,901,-15.0,200,1,1,917.2571,1,0,17_07_2014 level23_spatial_Clio 14_56 log.txt,37,37
88,0,920.8056,0,730,2058,2857,4205,501,-15.0,200,0,0,922.0095,1,4,17_07_2014 level23_spatial_Clio 14_56 log.txt,37,37
89,0,927.0156,0,730,2058,2857,4205,801,-15.0,200,0,1,927.4317,0,1,17_07_2014 level23_spatial_Clio 14_56 log.txt,37,37
90,1,939.4382,0,730,2058,2857,4205,801,-15.0,200,0,0,940.5233,1,1,17_07_2014 level23_spatial_Clio 14_56 log.txt,37,37
91,0,945.2074,0,460,1105,2857,4205,901,-15.0,200,1,1,945.7435,1,5,17_07_2014 level23_spatial_Clio 14_56 log.txt,37,37
92,0,957.2711,0,460,1105,2857,4205,851,-15.0,200,1,1,957.7497,1,2,17_07_2014 level23_spatial_Clio 14_56 log.txt,37,37
93,0,961.4298,0,730,2058,2857,4205,651,-15.0,200,0,0,962.645,1,1,17_07_2014 level23_spatial_Clio 14_56 log.txt,37,37
94,0,968.7092,0,730,2058,2857,4205,601,-15.0,200,0,0,970.2819,1,3,17_07_2014 level23_spatial_Clio 14_56 log.txt,37,37
95,0,975.3416,0,730,2058,2857,4205,701,-15.0,200,0,0,975.7974,1,2,17_07_2014 level23_spatial_Clio 14_56 log.txt,37,37
96,0,981.2392,0,730,2058,2857,4205,751,-15.0,200,0,0,982.754,1,5,17_07_2014 level23_spatial_Clio 14_56 log.txt,37,37
97,0,988.1389,0,460,1105,2857,4205,551,-15.0,200,1,1,988.631,1,2,17_07_2014 level23_spatial_Clio 14_56 log.txt,37,37
98,0,992.4792,0,730,2058,2857,4205,1001,-15.0,200,0,0,993.1667,1,4,17_07_2014 level23_spatial_Clio 14_56 log.txt,37,37
99,0,998.3746,0,460,1105,2857,4205,501,-15.0,200,1,1,998.9639,1,5,17_07_2014 level23_spatial_Clio 14_56 log.txt,37,37
100,0,1002.9851,0,460,1105,2857,4205,851,-15.0,200,1,1,1003.4151,1,3,17_07_2014 level23_spatial_Clio 14_56 log.txt,37,37
101,0,1011.2352,0,730,2058,2857,4205,901,-15.0,200,0,0,1012.8238,1,5,17_07_2014 level23_spatial_Clio 14_56 log.txt,37,37
102,0,1018.0393,0,460,1105,2857,4205,751,-15.0,200,1,1,1018.9308,1,4,17_07_2014 level23_spatial_Clio 14_56 log.txt,37,37
103,0,1022.6651,0,730,2058,2857,4205,1001,-15.0,200,0,0,1023.4576,1,4,17_07_2014 level23_spatial_Clio 14_56 log.txt,37,37
104,0,1028.4501,1,730,2058,2857,4205,601,-15.0,200,0,0,1031.7245,1,1,17_07_2014 level23_spatial_Clio 14_56 log.txt,37,37
105,0,1037.3313,0,460,1105,2857,4205,501,-15.0,200,1,1,1038.1955,1,4,17_07_2014 level23_spatial_Clio 14_56 log.txt,37,37
106,0,1041.9047,0,730,2058,2857,4205,701,-15.0,200,0,0,1043.1986,1,3,17_07_2014 level23_spatial_Clio 14_56 log.txt,37,37
107,0,1048.0603,0,730,2058,2857,4205,551,-15.0,200,0,0,1049.5227,1,2,17_07_2014 level23_spatial_Clio 14_56 log.txt,37,37
108,0,1055.5139,0,730,2058,2857,4205,651,-15.0,200,0,0,1056.799,1,5,17_07_2014 level23_spatial_Clio 14_56 log.txt,37,37
109,0,1062.0895,0,460,1105,2857,4205,801,-15.0,200,1,1,1062.4714,1,0,17_07_2014 level23_spatial_Clio 14_56 log.txt,37,37
110,0,1066.9653,0,460,1105,2857,4205,751,-15.0,200,1,1,1067.3353,1,5,17_07_2014 level23_spatial_Clio 14_56 log.txt,37,37
111,0,1076.2636,0,460,1105,2857,4205,801,-15.0,200,1,0,1077.0783,0,1,17_07_2014 level23_spatial_Clio 14_56 log.txt,37,37
112,1,1081.7715,0,460,1105,2857,4205,801,-15.0,200,1,1,1082.2617,1,1,17_07_2014 level23_spatial_Clio 14_56 log.txt,37,37
113,0,1101.6951,0,460,1105,2857,4205,901,-15.0,200,1,1,1102.1495,1,3,17_07_2014 level23_spatial_Clio 14_56 log.txt,37,37
114,0,1118.1807,0,460,1105,2857,4205,1001,-15.0,200,1,1,1118.7211,1,0,17_07_2014 level23_spatial_Clio 14_56 log.txt,37,37
115,0,1126.3241,0,460,1105,2857,4205,951,-15.0,200,1,1,1126.6589,1,2,17_07_2014 level23_spatial_Clio 14_56 log.txt,37,37
116,0,1131.7021,0,460,1105,2857,4205,601,-15.0,200,1,1,1132.2705,1,1,17_07_2014 level23_spatial_Clio 14_56 log.txt,37,37
117,0,1136.0919,1,730,2058,2857,4205,501,-15.0,200,0,0,1137.4436,1,0,17_07_2014 level23_spatial_Clio 14_56 log.txt,37,37
118,0,1141.8181,0,730,2058,2857,4205,701,-15.0,200,0,0,1144.5714,1,0,17_07_2014 level23_spatial_Clio 14_56 log.txt,37,37
119,0,1150.1213,0,460,1105,2857,4205,851,-15.0,200,1,1,1151.1507,1,3,17_07_2014 level23_spatial_Clio 14_56 log.txt,37,37
120,0,1155.0801,0,730,2058,2857,4205,551,-15.0,200,0,1,1155.6885,0,1,17_07_2014 level23_spatial_Clio 14_56 log.txt,37,37
121,1,1159.5912,0,730,2058,2857,4205,551,-15.0,200,0,1,1160.1799,0,1,17_07_2014 level23_spatial_Clio 14_56 log.txt,37,37
122,1,1164.3102,0,730,2058,2857,4205,551,-15.0,200,0,0,1165.8161,1,1,17_07_2014 level23_spatial_Clio 14_56 log.txt,37,37
123,0,1170.5328,0,730,2058,2857,4205,1001,-15.0,200,0,0,1171.2419,1,4,17_07_2014 level23_spatial_Clio 14_56 log.txt,37,37
124,0,1176.0956,0,730,2058,2857,4205,801,-15.0,200,0,1,1176.5771,0,3,17_07_2014 level23_spatial_Clio 14_56 log.txt,37,37
125,1,1188.1578,0,730,2058,2857,4205,801,-15.0,200,0,0,1189.8431,1,3,17_07_2014 level23_spatial_Clio 14_56 log.txt,37,37
126,0,1194.6441,0,460,1105,2857,4205,751,-15.0,200,1,1,1195.2791,1,3,17_07_2014 level23_spatial_Clio 14_56 log.txt,37,37
127,0,1206.1963,0,460,1105,2857,4205,701,-15.0,200,1,1,1206.5722,1,4,17_07_2014 level23_spatial_Clio 14_56 log.txt,37,37
128,0,1215.6333,0,730,2058,2857,4205,851,-15.0,200,0,0,1217.1508,1,5,17_07_2014 level23_spatial_Clio 14_56 log.txt,37,37
129,0,1221.2568,1,730,2058,2857,4205,551,-15.0,200,0,0,1222.0248,1,0,17_07_2014 level23_spatial_Clio 14_56 log.txt,37,37
130,0,1227.1297,0,730,2058,2857,4205,951,-15.0,200,0,1,1229.463,0,3,17_07_2014 level23_spatial_Clio 14_56 log.txt,37,37
131,1,1246.2405,0,730,2058,2857,4205,951,-15.0,200,0,0,1247.37,1,3,17_07_2014 level23_spatial_Clio 14_56 log.txt,37,37
132,0,1252.0577,0,460,1105,2857,4205,901,-15.0,200,1,1,1252.5153,1,5,17_07_2014 level23_spatial_Clio 14_56 log.txt,37,37
133,0,1258.4229,0,460,1105,2857,4205,601,-15.0,200,1,1,1258.8696,1,5,17_07_2014 level23_spatial_Clio 14_56 log.txt,37,37
134,0,1262.7605,1,730,2058,2857,4205,501,-15.0,200,0,0,1263.7697,1,2,17_07_2014 level23_spatial_Clio 14_56 log.txt,37,37
135,0,1268.4851,0,730,2058,2857,4205,801,-15.0,200,0,0,1271.2345,1,2,17_07_2014 level23_spatial_Clio 14_56 log.txt,37,37
136,0,1295.151,0,730,2058,2857,4205,901,-15.0,200,0,0,1296.5704,1,4,17_07_2014 level23_spatial_Clio 14_56 log.txt,37,37
137,0,1301.5304,0,730,2058,2857,4205,651,-15.0,200,0,1,1302.1874,0,1,17_07_2014 level23_spatial_Clio 14_56 log.txt,37,37
138,1,1307.4396,1,730,2058,2857,4205,651,-15.0,200,0,0,1308.5345,1,1,17_07_2014 level23_spatial_Clio 14_56 log.txt,37,37
139,0,1312.9085,0,730,2058,2857,4205,751,-15.0,200,0,0,1315.871,1,5,17_07_2014 level23_spatial_Clio 14_56 log.txt,37,37
140,0,1320.6949,0,460,1105,2857,4205,701,-15.0,200,1,1,1321.6145,1,0,17_07_2014 level23_spatial_Clio 14_56 log.txt,37,37
141,0,1327.2895,0,460,1105,2857,4205,501,-15.0,200,1,1,1327.6301,1,2,17_07_2014 level23_spatial_Clio 14_56 log.txt,37,37
142,0,1330.5654,0,460,1105,2857,4205,551,-15.0,200,1,1,1330.9984,1,2,17_07_2014 level23_spatial_Clio 14_56 log.txt,37,37
143,0,1334.3001,0,460,1105,2857,4205,601,-15.0,200,1,1,1334.7548,1,1,17_07_2014 level23_spatial_Clio 14_56 log.txt,37,37
144,0,1338.8958,0,730,2058,2857,4205,951,-15.0,200,0,1,1339.421,0,0,17_07_2014 level23_spatial_Clio 14_56 log.txt,37,37
145,1,1355.0215,0,730,2058,2857,4205,951,-15.0,200,0,0,1356.6104,1,0,17_07_2014 level23_spatial_Clio 14_56 log.txt,37,37
146,0,1391.9951,0,460,1105,2857,4205,1001,-15.0,200,1,0,1392.7737,0,2,17_07_2014 level23_spatial_Clio 14_56 log.txt,37,37
147,1,1399.8714,0,460,1105,2857,4205,1001,-15.0,200,1,1,1400.5756,1,2,17_07_2014 level23_spatial_Clio 14_56 log.txt,37,37
148,0,1405.761,0,730,2058,2857,4205,851,-15.0,200,0,0,1407.4633,1,2,17_07_2014 level23_spatial_Clio 14_56 log.txt,37,37
149,0,1411.7316,1,460,1105,2857,4205,701,-15.0,200,1,1,1412.1699,1,4,17_07_2014 level23_spatial_Clio 14_56 log.txt,37,37
150,0,1415.1238,1,460,1105,2857,4205,551,-15.0,200,1,1,1418.4068,1,2,17_07_2014 level23_spatial_Clio 14_56 log.txt,37,37
151,0,1429.8577,0,460,1105,2857,4205,901,-15.0,200,1,1,1430.5701,1,0,17_07_2014 level23_spatial_Clio 14_56 log.txt,37,37
152,0,1434.1353,0,460,1105,2857,4205,951,-15.0,200,1,0,1435.698,0,2,17_07_2014 level23_spatial_Clio 14_56 log.txt,37,37
153,1,1462.0403,0,460,1105,2857,4205,951,-15.0,200,1,0,1463.1592,0,2,17_07_2014 level23_spatial_Clio 14_56 log.txt,37,37
154,1,1479.0656,1,460,1105,2857,4205,951,-15.0,200,1,1,1479.5419,1,2,17_07_2014 level23_spatial_Clio 14_56 log.txt,37,37
155,0,1483.3839,1,730,2058,2857,4205,501,-15.0,200,0,1,1487.213,0,2,17_07_2014 level23_spatial_Clio 14_56 log.txt,37,37
156,1,1492.6704,0,730,2058,2857,4205,501,-15.0,200,0,0,1494.1785,1,2,17_07_2014 level23_spatial_Clio 14_56 log.txt,37,37
157,0,1498.4544,0,460,1105,2857,4205,651,-15.0,200,1,1,1499.1596,1,3,17_07_2014 level23_spatial_Clio 14_56 log.txt,37,37
158,0,1502.7038,0,730,2058,2857,4205,601,-15.0,200,0,0,1503.8364,1,4,17_07_2014 level23_spatial_Clio 14_56 log.txt,37,37
159,0,1509.2475,1,460,1105,2857,4205,751,-15.0,200,1,1,1509.9684,1,3,17_07_2014 level23_spatial_Clio 14_56 log.txt,37,37
160,0,1513.3997,0,730,2058,2857,4205,801,-15.0,200,0,0,1515.6827,1,4,17_07_2014 level23_spatial_Clio 14_56 log.txt,37,37
161,0,1520.4896,0,730,2058,2857,4205,601,-15.0,200,0,0,1522.0952,1,0,17_07_2014 level23_spatial_Clio 14_56 log.txt,37,37
162,0,1528.4437,0,460,1105,2857,4205,901,-15.0,200,1,1,1529.327,1,4,17_07_2014 level23_spatial_Clio 14_56 log.txt,37,37
163,0,1532.7556,0,730,2058,2857,4205,701,-15.0,200,0,0,1533.8249,1,3,17_07_2014 level23_spatial_Clio 14_56 log.txt,37,37
164,0,1537.7793,0,730,2058,2857,4205,801,-15.0,200,0,0,1540.0442,1,0,17_07_2014 level23_spatial_Clio 14_56 log.txt,37,37
165,0,1545.1202,0,730,2058,2857,4205,501,-15.0,200,0,0,1546.9663,1,5,17_07_2014 level23_spatial_Clio 14_56 log.txt,37,37
166,0,1551.469,0,730,2058,2857,4205,951,-15.0,200,0,0,1552.4767,1,5,17_07_2014 level23_spatial_Clio 14_56 log.txt,37,37
167,0,1555.6241,0,730,2058,2857,4205,551,-15.0,200,0,1,1556.5508,0,1,17_07_2014 level23_spatial_Clio 14_56 log.txt,37,37
168,1,1655.6458,0,730,2058,2857,4205,551,-15.0,200,0,-1,-1.0,0,1,17_07_2014 level23_spatial_Clio 14_56 log.txt,37,37
1,0,18.0675,0,730,2058,2857,4205,951,-15.0,200,0,1,18.8556,0,0,07_02_2014 level23_spatial_Clio 09_53 Block4-22.txt,37,37
2,1,28.0197,0,730,2058,2857,4205,951,-15.0,200,0,0,29.5058,1,0,07_02_2014 level23_spatial_Clio 09_53 Block4-22.txt,37,37
3,0,38.9892,0,460,1105,2857,4205,901,-15.0,200,1,0,39.8973,0,2,07_02_2014 level23_spatial_Clio 09_53 Block4-22.txt,37,37
4,1,46.9171,0,460,1105,2857,4205,901,-15.0,200,1,1,47.4834,1,2,07_02_2014 level23_spatial_Clio 09_53 Block4-22.txt,37,37
5,0,62.6193,0,730,2058,2857,4205,751,-15.0,200,0,0,64.988,1,2,07_02_2014 level23_spatial_Clio 09_53 Block4-22.txt,37,37
6,0,75.6691,1,730,2058,2857,4205,851,-15.0,200,0,1,76.4544,0,3,07_02_2014 level23_spatial_Clio 09_53 Block4-22.txt,37,37
7,1,84.8578,0,730,2058,2857,4205,851,-15.0,200,0,1,85.2904,0,3,07_02_2014 level23_spatial_Clio 09_53 Block4-22.txt,37,37
8,1,91.71,0,730,2058,2857,4205,851,-15.0,200,0,0,93.4986,1,3,07_02_2014 level23_spatial_Clio 09_53 Block4-22.txt,37,37
9,0,129.0272,0,730,2058,2857,4205,1001,-15.0,200,0,1,129.5373,0,0,07_02_2014 level23_spatial_Clio 09_53 Block4-22.txt,37,37
10,1,138.0635,0,730,2058,2857,4205,1001,-15.0,200,0,0,138.9558,1,0,07_02_2014 level23_spatial_Clio 09_53 Block4-22.txt,37,37
11,0,147.0302,0,460,1105,2857,4205,601,-15.0,200,1,1,147.4929,1,1,07_02_2014 level23_spatial_Clio 09_53 Block4-22.txt,37,37
12,0,152.8162,0,460,1105,2857,4205,701,-15.0,200,1,1,153.2392,1,3,07_02_2014 level23_spatial_Clio 09_53 Block4-22.txt,37,37
13,0,158.7908,0,730,2058,2857,4205,551,-15.0,200,0,1,159.4588,0,3,07_02_2014 level23_spatial_Clio 09_53 Block4-22.txt,37,37
14,1,164.3168,0,730,2058,2857,4205,551,-15.0,200,0,0,165.9893,1,3,07_02_2014 level23_spatial_Clio 09_53 Block4-22.txt,37,37
15,0,171.0521,0,730,2058,2857,4205,501,-15.0,200,0,0,171.9325,1,0,07_02_2014 level23_spatial_Clio 09_53 Block4-22.txt,37,37
16,0,188.2422,0,730,2058,2857,4205,801,-15.0,200,0,0,189.997,1,1,07_02_2014 level23_spatial_Clio 09_53 Block4-22.txt,37,37
17,0,200.5251,0,460,1105,2857,4205,601,-15.0,200,1,1,201.0387,1,3,07_02_2014 level23_spatial_Clio 09_53 Block4-22.txt,37,37
18,0,206.2698,0,460,1105,2857,4205,651,-15.0,200,1,1,206.8144,1,1,07_02_2014 level23_spatial_Clio 09_53 Block4-22.txt,37,37
19,0,211.0021,0,730,2058,2857,4205,851,-15.0,200,0,0,212.8456,1,2,07_02_2014 level23_spatial_Clio 09_53 Block4-22.txt,37,37
20,0,220.5372,0,460,1105,2857,4205,901,-15.0,200,1,1,220.9427,1,3,07_02_2014 level23_spatial_Clio 09_53 Block4-22.txt,37,37
21,0,224.8635,0,730,2058,2857,4205,751,-15.0,200,0,1,225.4243,0,2,07_02_2014 level23_spatial_Clio 09_53 Block4-22.txt,37,37
22,1,238.3075,0,730,2058,2857,4205,751,-15.0,200,0,0,239.3444,1,2,07_02_2014 level23_spatial_Clio 09_53 Block4-22.txt,37,37
23,0,248.9743,0,460,1105,2857,4205,951,-15.0,200,1,1,249.4601,1,2,07_02_2014 level23_spatial_Clio 09_53 Block4-22.txt,37,37
24,0,253.8821,0,460,1105,2857,4205,551,-15.0,200,1,1,254.4691,1,0,07_02_2014 level23_spatial_Clio 09_53 Block4-22.txt,37,37
25,0,258.1446,0,460,1105,2857,4205,501,-15.0,200,1,1,258.9061,1,2,07_02_2014 level23_spatial_Clio 09_53 Block4-22.txt,37,37
26,0,275.3519,1,730,2058,2857,4205,801,-15.0,200,0,0,276.0305,1,1,07_02_2014 level23_spatial_Clio 09_53 Block4-22.txt,37,37
27,0,281.5037,0,730,2058,2857,4205,1001,-15.0,200,0,0,287.1917,1,1,07_02_2014 level23_spatial_Clio 09_53 Block4-22.txt,37,37
28,0,292.6199,0,730,2058,2857,4205,901,-15.0,200,0,1,293.4285,0,3,07_02_2014 level23_spatial_Clio 09_53 Block4-22.txt,37,37
29,1,299.7473,0,730,2058,2857,4205,901,-15.0,200,0,1,300.4202,0,3,07_02_2014 level23_spatial_Clio 09_53 Block4-22.txt,37,37
30,1,306.7072,0,730,2058,2857,4205,901,-15.0,200,0,0,307.9074,1,3,07_02_2014 level23_spatial_Clio 09_53 Block4-22.txt,37,37
31,0,312.5359,0,460,1105,2857,4205,501,-15.0,200,1,0,316.2032,0,0,07_02_2014 level23_spatial_Clio 09_53 Block4-22.txt,37,37
32,1,321.6956,0,460,1105,2857,4205,501,-15.0,200,1,0,322.775,0,0,07_02_2014 level23_spatial_Clio 09_53 Block4-22.txt,37,37
33,1,330.0403,0,460,1105,2857,4205,501,-15.0,200,1,1,330.6185,1,0,07_02_2014 level23_spatial_Clio 09_53 Block4-22.txt,37,37
34,0,335.6345,0,460,1105,2857,4205,851,-15.0,200,1,1,336.1251,1,0,07_02_2014 level23_spatial_Clio 09_53 Block4-22.txt,37,37
35,0,345.2272,1,460,1105,2857,4205,1001,-15.0,200,1,0,346.3848,0,1,07_02_2014 level23_spatial_Clio 09_53 Block4-22.txt,37,37
36,1,360.7813,0,460,1105,2857,4205,1001,-15.0,200,1,1,361.2645,1,1,07_02_2014 level23_spatial_Clio 09_53 Block4-22.txt,37,37
37,0,364.2465,0,730,2058,2857,4205,601,-15.0,200,0,0,366.7996,1,2,07_02_2014 level23_spatial_Clio 09_53 Block4-22.txt,37,37
38,0,373.519,0,460,1105,2857,4205,651,-15.0,200,1,1,374.0166,1,3,07_02_2014 level23_spatial_Clio 09_53 Block4-22.txt,37,37
39,0,384.4134,0,730,2058,2857,4205,701,-15.0,200,0,0,385.4364,1,1,07_02_2014 level23_spatial_Clio 09_53 Block4-22.txt,37,37
40,0,415.6621,0,460,1105,2857,4205,951,-15.0,200,1,0,416.8602,0,3,07_02_2014 level23_spatial_Clio 09_53 Block4-22.txt,37,37
41,1,423.2438,0,460,1105,2857,4205,951,-15.0,200,1,1,423.6722,1,3,07_02_2014 level23_spatial_Clio 09_53 Block4-22.txt,37,37
42,0,428.4146,0,730,2058,2857,4205,551,-15.0,200,0,0,430.1511,1,3,07_02_2014 level23_spatial_Clio 09_53 Block4-22.txt,37,37
43,0,435.6994,0,460,1105,2857,4205,801,-15.0,200,1,0,436.6806,0,2,07_02_2014 level23_spatial_Clio 09_53 Block4-22.txt,37,37
44,1,444.0249,0,460,1105,2857,4205,801,-15.0,200,1,1,444.6145,1,2,07_02_2014 level23_spatial_Clio 09_53 Block4-22.txt,37,37
45,0,450.1063,0,460,1105,2857,4205,801,-15.0,200,1,0,452.1066,0,0,07_02_2014 level23_spatial_Clio 09_53 Block4-22.txt,37,37
46,1,458.4081,0,460,1105,2857,4205,801,-15.0,200,1,0,459.0326,0,0,07_02_2014 level23_spatial_Clio 09_53 Block4-22.txt,37,37
47,1,466.552,0,460,1105,2857,4205,801,-15.0,200,1,1,467.1905,1,0,07_02_2014 level23_spatial_Clio 09_53 Block4-22.txt,37,37
48,0,473.458,0,460,1105,2857,4205,851,-15.0,200,1,1,473.9482,1,1,07_02_2014 level23_spatial_Clio 09_53 Block4-22.txt,37,37
49,0,481.6635,0,730,2058,2857,4205,751,-15.0,200,0,0,483.3206,1,3,07_02_2014 level23_spatial_Clio 09_53 Block4-22.txt,37,37
50,0,488.4666,0,730,2058,2857,4205,551,-15.0,200,0,0,489.7597,1,1,07_02_2014 level23_spatial_Clio 09_53 Block4-22.txt,37,37
51,0,499.7304,0,730,2058,2857,4205,501,-15.0,200,0,1,500.2805,0,3,07_02_2014 level23_spatial_Clio 09_53 Block4-22.txt,37,37
52,1,504.2084,1,730,2058,2857,4205,501,-15.0,200,0,1,504.6857,0,3,07_02_2014 level23_spatial_Clio 09_53 Block4-22.txt,37,37
53,1,509.9737,0,730,2058,2857,4205,501,-15.0,200,0,1,510.526,0,3,07_02_2014 level23_spatial_Clio 09_53 Block4-22.txt,37,37
54,1,514.8909,0,730,2058,2857,4205,501,-15.0,200,0,0,516.1279,1,3,07_02_2014 level23_spatial_Clio 09_53 Block4-22.txt,37,37
55,0,524.1334,0,730,2058,2857,4205,651,-15.0,200,0,0,525.6938,1,2,07_02_2014 level23_spatial_Clio 09_53 Block4-22.txt,37,37
56,0,541.6797,0,460,1105,2857,4205,1001,-15.0,200,1,1,542.236,1,3,07_02_2014 level23_spatial_Clio 09_53 Block4-22.txt,37,37
57,0,548.1155,0,460,1105,2857,4205,701,-15.0,200,1,0,548.8074,0,0,07_02_2014 level23_spatial_Clio 09_53 Block4-22.txt,37,37
58,1,556.3602,1,460,1105,2857,4205,701,-15.0,200,1,0,557.2975,0,0,07_02_2014 level23_spatial_Clio 09_53 Block4-22.txt,37,37
59,1,567.0393,0,460,1105,2857,4205,701,-15.0,200,1,1,567.6651,1,0,07_02_2014 level23_spatial_Clio 09_53 Block4-22.txt,37,37
60,0,577.0953,0,460,1105,2857,4205,951,-15.0,200,1,0,578.3485,0,1,07_02_2014 level23_spatial_Clio 09_53 Block4-22.txt,37,37
61,1,588.8336,0,460,1105,2857,4205,951,-15.0,200,1,1,589.2078,1,1,07_02_2014 level23_spatial_Clio 09_53 Block4-22.txt,37,37
62,0,602.9738,0,730,2058,2857,4205,901,-15.0,200,0,0,603.9287,1,0,07_02_2014 level23_spatial_Clio 09_53 Block4-22.txt,37,37
63,0,614.6612,0,460,1105,2857,4205,951,-15.0,200,1,1,615.107,1,1,07_02_2014 level23_spatial_Clio 09_53 Block4-22.txt,37,37
64,0,620.1348,1,460,1105,2857,4205,701,-15.0,200,1,1,620.8019,1,0,07_02_2014 level23_spatial_Clio 09_53 Block4-22.txt,37,37
65,0,624.4009,0,730,2058,2857,4205,501,-15.0,200,0,1,626.712,0,2,07_02_2014 level23_spatial_Clio 09_53 Block4-22.txt,37,37
66,1,632.2122,0,730,2058,2857,4205,501,-15.0,200,0,0,633.8044,1,2,07_02_2014 level23_spatial_Clio 09_53 Block4-22.txt,37,37
67,0,645.1068,0,730,2058,2857,4205,1001,-15.0,200,0,0,646.6481,1,1,07_02_2014 level23_spatial_Clio 09_53 Block4-22.txt,37,37
68,0,651.9041,0,460,1105,2857,4205,851,-15.0,200,1,0,652.5899,0,2,07_02_2014 level23_spatial_Clio 09_53 Block4-22.txt,37,37
69,1,667.2205,0,460,1105,2857,4205,851,-15.0,200,1,1,667.747,1,2,07_02_2014 level23_spatial_Clio 09_53 Block4-22.txt,37,37
70,0,671.419,0,730,2058,2857,4205,601,-15.0,200,0,0,672.5029,1,0,07_02_2014 level23_spatial_Clio 09_53 Block4-22.txt,37,37
71,0,677.2607,0,730,2058,2857,4205,551,-15.0,200,0,0,677.8653,1,0,07_02_2014 level23_spatial_Clio 09_53 Block4-22.txt,37,37
72,0,684.9097,1,460,1105,2857,4205,801,-15.0,200,1,0,686.0842,0,2,07_02_2014 level23_spatial_Clio 09_53 Block4-22.txt,37,37
73,1,700.9746,0,460,1105,2857,4205,801,-15.0,200,1,1,701.6119,1,2,07_02_2014 level23_spatial_Clio 09_53 Block4-22.txt,37,37
74,0,705.7049,1,460,1105,2857,4205,651,-15.0,200,1,1,706.3396,1,3,07_02_2014 level23_spatial_Clio 09_53 Block4-22.txt,37,37
75,0,711.8753,0,460,1105,2857,4205,901,-15.0,200,1,1,713.9471,1,0,07_02_2014 level23_spatial_Clio 09_53 Block4-22.txt,37,37
76,0,732.112,0,730,2058,2857,4205,901,-15.0,200,0,0,733.0116,1,3,07_02_2014 level23_spatial_Clio 09_53 Block4-22.txt,37,37
77,0,742.2687,0,460,1105,2857,4205,801,-15.0,200,1,1,742.6611,1,1,07_02_2014 level23_spatial_Clio 09_53 Block4-22.txt,37,37
78,0,747.6547,0,460,1105,2857,4205,951,-15.0,200,1,1,748.0884,1,0,07_02_2014 level23_spatial_Clio 09_53 Block4-22.txt,37,37
79,0,752.6547,0,460,1105,2857,4205,601,-15.0,200,1,1,753.2036,1,2,07_02_2014 level23_spatial_Clio 09_53 Block4-22.txt,37,37
80,0,756.8518,0,730,2058,2857,4205,501,-15.0,200,0,0,759.0058,1,1,07_02_2014 level23_spatial_Clio 09_53 Block4-22.txt,37,37
81,0,763.3496,0,730,2058,2857,4205,551,-15.0,200,0,0,765.0033,1,1,07_02_2014 level23_spatial_Clio 09_53 Block4-22.txt,37,37
82,0,779.5703,0,460,1105,2857,4205,751,-15.0,200,1,1,780.0214,1,2,07_02_2014 level23_spatial_Clio 09_53 Block4-22.txt,37,37
83,0,805.6351,0,460,1105,2857,4205,1001,-15.0,200,1,1,806.1466,1,1,07_02_2014 level23_spatial_Clio 09_53 Block4-22.txt,37,37
84,0,812.5217,0,730,2058,2857,4205,851,-15.0,200,0,1,813.2251,0,2,07_02_2014 level23_spatial_Clio 09_53 Block4-22.txt,37,37
85,1,825.5718,0,730,2058,2857,4205,851,-15.0,200,0,0,828.2406,1,2,07_02_2014 level23_spatial_Clio 09_53 Block4-22.txt,37,37
86,0,836.0289,0,460,1105,2857,4205,651,-15.0,200,1,1,836.562,1,0,07_02_2014 level23_spatial_Clio 09_53 Block4-22.txt,37,37
87,0,854.8884,1,730,2058,2857,4205,801,-15.0,200,0,0,855.6187,1,0,07_02_2014 level23_spatial_Clio 09_53 Block4-22.txt,37,37
88,0,860.3257,0,460,1105,2857,4205,751,-15.0,200,1,0,864.4515,0,3,07_02_2014 level23_spatial_Clio 09_53 Block4-22.txt,37,37
89,1,875.4311,0,460,1105,2857,4205,751,-15.0,200,1,1,876.0109,1,3,07_02_2014 level23_spatial_Clio 09_53 Block4-22.txt,37,37
90,0,880.0572,0,460,1105,2857,4205,651,-15.0,200,1,1,880.482,1,1,07_02_2014 level23_spatial_Clio 09_53 Block4-22.txt,37,37
91,0,889.6365,0,730,2058,2857,4205,901,-15.0,200,0,0,890.5169,1,0,07_02_2014 level23_spatial_Clio 09_53 Block4-22.txt,37,37
92,0,901.1029,0,730,2058,2857,4205,701,-15.0,200,0,0,903.0651,1,3,07_02_2014 level23_spatial_Clio 09_53 Block4-22.txt,37,37
93,0,904.7799,0,730,2058,2857,4205,951,-15.0,200,0,0,907.2771,1,3,07_02_2014 level23_spatial_Clio 09_53 Block4-22.txt,37,37
94,0,912.4118,0,730,2058,2857,4205,501,-15.0,200,0,0,914.5317,1,1,07_02_2014 level23_spatial_Clio 09_53 Block4-22.txt,37,37
95,0,933.9918,0,730,2058,2857,4205,851,-15.0,200,0,0,935.1667,1,2,07_02_2014 level23_spatial_Clio 09_53 Block4-22.txt,37,37
96,0,940.668,0,460,1105,2857,4205,1001,-15.0,200,1,1,941.3331,1,2,07_02_2014 level23_spatial_Clio 09_53 Block4-22.txt,37,37
97,0,944.6048,0,730,2058,2857,4205,551,-15.0,200,0,1,945.3827,0,0,07_02_2014 level23_spatial_Clio 09_53 Block4-22.txt,37,37
98,1,950.6996,0,730,2058,2857,4205,551,-15.0,200,0,0,951.454,1,0,07_02_2014 level23_spatial_Clio 09_53 Block4-22.txt,37,37
99,0,955.8702,0,730,2058,2857,4205,501,-15.0,200,0,0,957.1725,1,2,07_02_2014 level23_spatial_Clio 09_53 Block4-22.txt,37,37
100,0,962.4456,0,460,1105,2857,4205,551,-15.0,200,1,1,962.9525,1,3,07_02_2014 level23_spatial_Clio 09_53 Block4-22.txt,37,37
101,0,971.4618,0,730,2058,2857,4205,801,-15.0,200,0,0,972.7282,1,0,07_02_2014 level23_spatial_Clio 09_53 Block4-22.txt,37,37
102,0,995.0314,0,730,2058,2857,4205,951,-15.0,200,0,1,995.7242,0,1,07_02_2014 level23_spatial_Clio 09_53 Block4-22.txt,37,37
103,1,1018.8229,0,730,2058,2857,4205,951,-15.0,200,0,1,1019.2526,0,1,07_02_2014 level23_spatial_Clio 09_53 Block4-22.txt,37,37
104,1,1025.6138,0,730,2058,2857,4205,951,-15.0,200,0,0,1027.5479,1,1,07_02_2014 level23_spatial_Clio 09_53 Block4-22.txt,37,37
105,0,1044.474,1,460,1105,2857,4205,851,-15.0,200,1,0,1045.1649,0,0,07_02_2014 level23_spatial_Clio 09_53 Block4-22.txt,37,37
106,1,1049.3603,0,460,1105,2857,4205,851,-15.0,200,1,0,1053.8777,0,0,07_02_2014 level23_spatial_Clio 09_53 Block4-22.txt,37,37
107,1,1061.9749,0,460,1105,2857,4205,851,-15.0,200,1,1,1062.4623,1,0,07_02_2014 level23_spatial_Clio 09_53 Block4-22.txt,37,37
108,0,1066.295,0,730,2058,2857,4205,601,-15.0,200,0,0,1067.4593,1,0,07_02_2014 level23_spatial_Clio 09_53 Block4-22.txt,37,37
109,0,1079.165,0,730,2058,2857,4205,901,-15.0,200,0,0,1079.8987,1,2,07_02_2014 level23_spatial_Clio 09_53 Block4-22.txt,37,37
110,0,1085.4189,1,460,1105,2857,4205,751,-15.0,200,1,0,1086.6677,0,0,07_02_2014 level23_spatial_Clio 09_53 Block4-22.txt,37,37
111,1,1104.1613,0,460,1105,2857,4205,751,-15.0,200,1,1,1104.7848,1,0,07_02_2014 level23_spatial_Clio 09_53 Block4-22.txt,37,37
112,0,1108.933,0,460,1105,2857,4205,651,-15.0,200,1,1,1109.4905,1,1,07_02_2014 level23_spatial_Clio 09_53 Block4-22.txt,37,37
113,0,1113.0184,1,730,2058,2857,4205,701,-15.0,200,0,1,1113.6002,0,3,07_02_2014 level23_spatial_Clio 09_53 Block4-22.txt,37,37
114,1,1125.2211,0,730,2058,2857,4205,701,-15.0,200,0,0,1126.267,1,3,07_02_2014 level23_spatial_Clio 09_53 Block4-22.txt,37,37
115,0,1131.2452,1,730,2058,2857,4205,551,-15.0,200,0,0,1132.6408,1,0,07_02_2014 level23_spatial_Clio 09_53 Block4-22.txt,37,37
116,0,1137.8987,0,730,2058,2857,4205,901,-15.0,200,0,0,1142.1394,1,1,07_02_2014 level23_spatial_Clio 09_53 Block4-22.txt,37,37
117,0,1152.0534,0,730,2058,2857,4205,651,-15.0,200,0,1,1152.4864,0,3,07_02_2014 level23_spatial_Clio 09_53 Block4-22.txt,37,37
118,1,1160.953,0,730,2058,2857,4205,651,-15.0,200,0,1,1161.8104,0,3,07_02_2014 level23_spatial_Clio 09_53 Block4-22.txt,37,37
119,1,1166.7862,0,730,2058,2857,4205,651,-15.0,200,0,0,1168.1516,1,3,07_02_2014 level23_spatial_Clio 09_53 Block4-22.txt,37,37
120,0,1177.6199,0,730,2058,2857,4205,851,-15.0,200,0,0,1178.8727,1,2,07_02_2014 level23_spatial_Clio 09_53 Block4-22.txt,37,37
121,0,1231.0378,0,460,1105,2857,4205,751,-15.0,200,1,1,1234.598,1,1,07_02_2014 level23_spatial_Clio 09_53 Block4-22.txt,37,37
1,0,26.8107,0,730,2058,2857,4205,601,-15.0,200,0,1,30.207,0,2,18_07_2014 level23_spatial_Clio 15_56 log.txt,37,37
2,1,37.802,0,730,2058,2857,4205,601,-15.0,200,0,1,38.5819,0,2,18_07_2014 level23_spatial_Clio 15_56 log.txt,37,37
3,1,42.4386,0,730,2058,2857,4205,601,-15.0,200,0,0,44.1074,1,2,18_07_2014 level23_spatial_Clio 15_56 log.txt,37,37
4,0,51.7723,0,460,1105,2857,4205,801,-15.0,200,1,0,54.3283,0,3,18_07_2014 level23_spatial_Clio 15_56 log.txt,37,37
5,1,59.4209,0,460,1105,2857,4205,801,-15.0,200,1,1,59.9965,1,3,18_07_2014 level23_spatial_Clio 15_56 log.txt,37,37
6,0,71.1936,0,460,1105,2857,4205,851,-15.0,200,1,0,72.7944,0,2,18_07_2014 level23_spatial_Clio 15_56 log.txt,37,37
7,1,79.3775,0,460,1105,2857,4205,851,-15.0,200,1,0,81.3488,0,2,18_07_2014 level23_spatial_Clio 15_56 log.txt,37,37
8,1,88.0711,0,460,1105,2857,4205,851,-15.0,200,1,1,88.9722,1,2,18_07_2014 level23_spatial_Clio 15_56 log.txt,37,37
9,0,101.6675,0,460,1105,2857,4205,1001,-15.0,200,1,0,103.0118,0,0,18_07_2014 level23_spatial_Clio 15_56 log.txt,37,37
10,1,112.3935,0,460,1105,2857,4205,1001,-15.0,200,1,1,116.9455,1,0,18_07_2014 level23_spatial_Clio 15_56 log.txt,37,37
11,0,130.5439,0,460,1105,2857,4205,651,-15.0,200,1,1,131.027,1,2,18_07_2014 level23_spatial_Clio 15_56 log.txt,37,37
12,0,142.281,0,460,1105,2857,4205,551,-15.0,200,1,1,143.0948,1,5,18_07_2014 level23_spatial_Clio 15_56 log.txt,37,37
13,0,151.5353,0,460,1105,2857,4205,901,-15.0,200,1,0,152.6004,0,0,18_07_2014 level23_spatial_Clio 15_56 log.txt,37,37
14,1,165.7308,0,460,1105,2857,4205,901,-15.0,200,1,1,170.3635,1,0,18_07_2014 level23_spatial_Clio 15_56 log.txt,37,37
15,0,191.9632,0,730,2058,2857,4205,951,-15.0,200,0,1,192.2481,0,3,18_07_2014 level23_spatial_Clio 15_56 log.txt,37,37
16,1,201.648,1,730,2058,2857,4205,951,-15.0,200,0,0,204.0266,1,3,18_07_2014 level23_spatial_Clio 15_56 log.txt,37,37
17,0,210.2002,0,460,1105,2857,4205,751,-15.0,200,1,0,213.3513,0,1,18_07_2014 level23_spatial_Clio 15_56 log.txt,37,37
18,1,218.4324,0,460,1105,2857,4205,751,-15.0,200,1,1,218.928,1,1,18_07_2014 level23_spatial_Clio 15_56 log.txt,37,37
19,0,220.8508,0,460,1105,2857,4205,701,-15.0,200,1,1,221.3188,1,5,18_07_2014 level23_spatial_Clio 15_56 log.txt,37,37
20,0,244.9389,0,730,2058,2857,4205,651,-15.0,200,0,0,247.5801,1,4,18_07_2014 level23_spatial_Clio 15_56 log.txt,37,37
21,0,258.2613,0,730,2058,2857,4205,601,-15.0,200,0,0,259.0444,1,3,18_07_2014 level23_spatial_Clio 15_56 log.txt,37,37
22,0,264.9422,0,730,2058,2857,4205,751,-15.0,200,0,0,265.8369,1,5,18_07_2014 level23_spatial_Clio 15_56 log.txt,37,37
23,0,271.9652,0,460,1105,2857,4205,801,-15.0,200,1,0,272.7518,0,4,18_07_2014 level23_spatial_Clio 15_56 log.txt,37,37
24,1,279.8918,0,460,1105,2857,4205,801,-15.0,200,1,0,280.7682,0,4,18_07_2014 level23_spatial_Clio 15_56 log.txt,37,37
25,1,288.2501,0,460,1105,2857,4205,801,-15.0,200,1,1,288.5391,1,4,18_07_2014 level23_spatial_Clio 15_56 log.txt,37,37
26,0,297.4009,0,460,1105,2857,4205,551,-15.0,200,1,0,299.1234,0,2,18_07_2014 level23_spatial_Clio 15_56 log.txt,37,37
27,1,304.8004,0,460,1105,2857,4205,551,-15.0,200,1,1,305.1681,1,2,18_07_2014 level23_spatial_Clio 15_56 log.txt,37,37
28,0,319.1762,0,730,2058,2857,4205,501,-15.0,200,0,0,324.5312,1,1,18_07_2014 level23_spatial_Clio 15_56 log.txt,37,37
29,0,367.0227,0,730,2058,2857,4205,1001,-15.0,200,0,1,371.3562,0,4,18_07_2014 level23_spatial_Clio 15_56 log.txt,37,37
30,1,375.7393,0,730,2058,2857,4205,1001,-15.0,200,0,0,376.6338,1,4,18_07_2014 level23_spatial_Clio 15_56 log.txt,37,37
31,0,386.7843,0,730,2058,2857,4205,851,-15.0,200,0,1,387.3889,0,0,18_07_2014 level23_spatial_Clio 15_56 log.txt,37,37
32,1,396.0062,1,730,2058,2857,4205,851,-15.0,200,0,0,397.8316,1,0,18_07_2014 level23_spatial_Clio 15_56 log.txt,37,37
33,0,404.729,0,460,1105,2857,4205,901,-15.0,200,1,0,407.0083,0,1,18_07_2014 level23_spatial_Clio 15_56 log.txt,37,37
34,1,418.2267,0,460,1105,2857,4205,901,-15.0,200,1,1,418.5134,1,1,18_07_2014 level23_spatial_Clio 15_56 log.txt,37,37
35,0,426.4679,1,460,1105,2857,4205,701,-15.0,200,1,1,429.6087,1,4,18_07_2014 level23_spatial_Clio 15_56 log.txt,37,37
36,0,439.2627,0,730,2058,2857,4205,651,-15.0,200,0,0,440.9348,1,5,18_07_2014 level23_spatial_Clio 15_56 log.txt,37,37
37,0,446.8603,0,460,1105,2857,4205,901,-15.0,200,1,0,448.4024,0,3,18_07_2014 level23_spatial_Clio 15_56 log.txt,37,37
38,1,457.9985,0,460,1105,2857,4205,901,-15.0,200,1,1,459.1561,1,3,18_07_2014 level23_spatial_Clio 15_56 log.txt,37,37
39,0,464.3241,0,460,1105,2857,4205,601,-15.0,200,1,1,465.396,1,4,18_07_2014 level23_spatial_Clio 15_56 log.txt,37,37
40,0,474.4507,1,730,2058,2857,4205,1001,-15.0,200,0,0,475.3842,1,3,18_07_2014 level23_spatial_Clio 15_56 log.txt,37,37
41,0,480.3455,0,460,1105,2857,4205,551,-15.0,200,1,0,482.9848,0,3,18_07_2014 level23_spatial_Clio 15_56 log.txt,37,37
42,1,489.848,1,460,1105,2857,4205,551,-15.0,200,1,1,490.3861,1,3,18_07_2014 level23_spatial_Clio 15_56 log.txt,37,37
43,0,495.8345,0,460,1105,2857,4205,701,-15.0,200,1,1,497.3013,1,1,18_07_2014 level23_spatial_Clio 15_56 log.txt,37,37
44,0,501.1922,0,730,2058,2857,4205,851,-15.0,200,0,0,502.4296,1,0,18_07_2014 level23_spatial_Clio 15_56 log.txt,37,37
45,0,510.7495,0,730,2058,2857,4205,801,-15.0,200,0,0,512.0268,1,4,18_07_2014 level23_spatial_Clio 15_56 log.txt,37,37
46,0,524.2598,0,730,2058,2857,4205,951,-15.0,200,0,0,526.3536,1,0,18_07_2014 level23_spatial_Clio 15_56 log.txt,37,37
47,0,540.6605,0,730,2058,2857,4205,751,-15.0,200,0,0,542.1474,1,2,18_07_2014 level23_spatial_Clio 15_56 log.txt,37,37
48,0,552.3855,0,730,2058,2857,4205,851,-15.0,200,0,0,553.0936,1,5,18_07_2014 level23_spatial_Clio 15_56 log.txt,37,37
49,0,565.7774,0,730,2058,2857,4205,1001,-15.0,200,0,0,566.4106,1,1,18_07_2014 level23_spatial_Clio 15_56 log.txt,37,37
50,0,571.7179,1,730,2058,2857,4205,551,-15.0,200,0,1,572.2679,0,1,18_07_2014 level23_spatial_Clio 15_56 log.txt,37,37
51,1,579.6577,0,730,2058,2857,4205,551,-15.0,200,0,1,579.978,0,1,18_07_2014 level23_spatial_Clio 15_56 log.txt,37,37
52,1,585.1392,0,730,2058,2857,4205,551,-15.0,200,0,1,585.9031,0,1,18_07_2014 level23_spatial_Clio 15_56 log.txt,37,37
53,1,590.2701,0,730,2058,2857,4205,551,-15.0,200,0,0,591.8995,1,1,18_07_2014 level23_spatial_Clio 15_56 log.txt,37,37
54,0,606.9874,0,460,1105,2857,4205,901,-15.0,200,1,0,608.5872,0,0,18_07_2014 level23_spatial_Clio 15_56 log.txt,37,37
55,1,624.1553,0,460,1105,2857,4205,901,-15.0,200,1,0,625.4726,0,0,18_07_2014 level23_spatial_Clio 15_56 log.txt,37,37
56,1,633.9561,0,460,1105,2857,4205,901,-15.0,200,1,1,634.5875,1,0,18_07_2014 level23_spatial_Clio 15_56 log.txt,37,37
57,0,640.33,0,730,2058,2857,4205,701,-15.0,200,0,0,642.2931,1,2,18_07_2014 level23_spatial_Clio 15_56 log.txt,37,37
58,0,646.987,0,460,1105,2857,4205,751,-15.0,200,1,1,647.7702,1,5,18_07_2014 level23_spatial_Clio 15_56 log.txt,37,37
59,0,650.9259,0,730,2058,2857,4205,501,-15.0,200,0,0,652.1151,1,4,18_07_2014 level23_spatial_Clio 15_56 log.txt,37,37
60,0,656.5675,0,730,2058,2857,4205,651,-15.0,200,0,1,657.524,0,1,18_07_2014 level23_spatial_Clio 15_56 log.txt,37,37
61,1,662.6239,0,730,2058,2857,4205,651,-15.0,200,0,0,663.7722,1,1,18_07_2014 level23_spatial_Clio 15_56 log.txt,37,37
62,0,677.5793,0,730,2058,2857,4205,951,-15.0,200,0,0,679.1645,1,0,18_07_2014 level23_spatial_Clio 15_56 log.txt,37,37
63,0,684.4318,0,460,1105,2857,4205,601,-15.0,200,1,1,685.1953,1,3,18_07_2014 level23_spatial_Clio 15_56 log.txt,37,37
64,0,691.5165,0,460,1105,2857,4205,1001,-15.0,200,1,1,691.8137,1,4,18_07_2014 level23_spatial_Clio 15_56 log.txt,37,37
65,0,704.2923,0,730,2058,2857,4205,901,-15.0,200,0,0,705.8891,1,2,18_07_2014 level23_spatial_Clio 15_56 log.txt,37,37
66,0,715.1068,0,460,1105,2857,4205,701,-15.0,200,1,1,715.4845,1,2,18_07_2014 level23_spatial_Clio 15_56 log.txt,37,37
67,0,720.5807,0,730,2058,2857,4205,551,-15.0,200,0,1,721.448,0,5,18_07_2014 level23_spatial_Clio 15_56 log.txt,37,37
68,1,726.7831,0,730,2058,2857,4205,551,-15.0,200,0,1,727.6611,0,5,18_07_2014 level23_spatial_Clio 15_56 log.txt,37,37
69,1,732.2989,0,730,2058,2857,4205,551,-15.0,200,0,0,733.599,1,5,18_07_2014 level23_spatial_Clio 15_56 log.txt,37,37
70,0,744.1275,0,730,2058,2857,4205,651,-15.0,200,0,0,744.9646,1,4,18_07_2014 level23_spatial_Clio 15_56 log.txt,37,37
71,0,752.5,0,460,1105,2857,4205,851,-15.0,200,1,1,752.9973,1,1,18_07_2014 level23_spatial_Clio 15_56 log.txt,37,37
72,0,758.3735,0,730,2058,2857,4205,501,-15.0,200,0,0,759.9389,1,3,18_07_2014 level23_spatial_Clio 15_56 log.txt,37,37
73,0,764.4195,0,730,2058,2857,4205,951,-15.0,200,0,0,765.0927,1,1,18_07_2014 level23_spatial_Clio 15_56 log.txt,37,37
74,0,774.2421,0,460,1105,2857,4205,601,-15.0,200,1,1,774.6083,1,1,18_07_2014 level23_spatial_Clio 15_56 log.txt,37,37
75,0,790.4942,1,730,2058,2857,4205,801,-15.0,200,0,0,791.6463,1,5,18_07_2014 level23_spatial_Clio 15_56 log.txt,37,37
76,0,796.0301,0,460,1105,2857,4205,701,-15.0,200,1,0,798.1846,0,5,18_07_2014 level23_spatial_Clio 15_56 log.txt,37,37
77,1,803.4308,0,460,1105,2857,4205,701,-15.0,200,1,1,803.6645,1,5,18_07_2014 level23_spatial_Clio 15_56 log.txt,37,37
78,0,808.6725,0,460,1105,2857,4205,801,-15.0,200,1,0,809.9419,0,2,18_07_2014 level23_spatial_Clio 15_56 log.txt,37,37
79,1,815.787,0,460,1105,2857,4205,801,-15.0,200,1,1,816.3264,1,2,18_07_2014 level23_spatial_Clio 15_56 log.txt,37,37
80,0,833.6993,0,730,2058,2857,4205,951,-15.0,200,0,1,834.1197,0,3,18_07_2014 level23_spatial_Clio 15_56 log.txt,37,37
81,1,838.573,0,730,2058,2857,4205,951,-15.0,200,0,0,839.0679,1,3,18_07_2014 level23_spatial_Clio 15_56 log.txt,37,37
82,0,856.0342,0,460,1105,2857,4205,1001,-15.0,200,1,1,856.4713,1,0,18_07_2014 level23_spatial_Clio 15_56 log.txt,37,37
83,0,867.0973,0,460,1105,2857,4205,901,-15.0,200,1,0,868.3765,0,0,18_07_2014 level23_spatial_Clio 15_56 log.txt,37,37
84,1,878.8208,0,460,1105,2857,4205,901,-15.0,200,1,0,879.672,0,0,18_07_2014 level23_spatial_Clio 15_56 log.txt,37,37
85,1,886.2698,0,460,1105,2857,4205,901,-15.0,200,1,0,887.8944,0,0,18_07_2014 level23_spatial_Clio 15_56 log.txt,37,37
86,1,898.8466,0,460,1105,2857,4205,901,-15.0,200,1,1,899.234,1,0,18_07_2014 level23_spatial_Clio 15_56 log.txt,37,37
87,0,904.6478,0,460,1105,2857,4205,601,-15.0,200,1,1,912.7044,1,0,18_07_2014 level23_spatial_Clio 15_56 log.txt,37,37
88,0,918.5942,0,730,2058,2857,4205,501,-15.0,200,0,0,919.9703,1,5,18_07_2014 level23_spatial_Clio 15_56 log.txt,37,37
89,0,924.7628,0,460,1105,2857,4205,751,-15.0,200,1,1,925.4488,1,4,18_07_2014 level23_spatial_Clio 15_56 log.txt,37,37
90,0,934.5009,0,730,2058,2857,4205,851,-15.0,200,0,0,935.6122,1,0,18_07_2014 level23_spatial_Clio 15_56 log.txt,37,37
91,0,940.4184,1,730,2058,2857,4205,651,-15.0,200,0,0,941.041,1,2,18_07_2014 level23_spatial_Clio 15_56 log.txt,37,37
92,0,946.0011,0,460,1105,2857,4205,551,-15.0,200,1,0,948.2872,0,4,18_07_2014 level23_spatial_Clio 15_56 log.txt,37,37
93,1,953.9432,0,460,1105,2857,4205,551,-15.0,200,1,1,954.2616,1,4,18_07_2014 level23_spatial_Clio 15_56 log.txt,37,37
94,0,957.5968,0,460,1105,2857,4205,651,-15.0,200,1,1,958.0273,1,3,18_07_2014 level23_spatial_Clio 15_56 log.txt,37,37
95,0,964.2146,0,730,2058,2857,4205,601,-15.0,200,0,0,965.0738,1,0,18_07_2014 level23_spatial_Clio 15_56 log.txt,37,37
96,0,977.9164,0,730,2058,2857,4205,1001,-15.0,200,0,0,979.0892,1,1,18_07_2014 level23_spatial_Clio 15_56 log.txt,37,37
97,0,986.6032,0,460,1105,2857,4205,751,-15.0,200,1,1,986.9658,1,5,18_07_2014 level23_spatial_Clio 15_56 log.txt,37,37
98,0,994.8721,0,730,2058,2857,4205,801,-15.0,200,0,0,995.7577,1,4,18_07_2014 level23_spatial_Clio 15_56 log.txt,37,37
99,0,1014.1821,0,460,1105,2857,4205,901,-15.0,200,1,1,1014.4832,1,3,18_07_2014 level23_spatial_Clio 15_56 log.txt,37,37
100,0,1021.5736,0,730,2058,2857,4205,701,-15.0,200,0,0,1023.2176,1,3,18_07_2014 level23_spatial_Clio 15_56 log.txt,37,37
101,0,1027.7751,0,460,1105,2857,4205,501,-15.0,200,1,1,1028.1851,1,1,18_07_2014 level23_spatial_Clio 15_56 log.txt,37,37
102,0,1032.8317,0,730,2058,2857,4205,851,-15.0,200,0,1,1033.1758,0,2,18_07_2014 level23_spatial_Clio 15_56 log.txt,37,37
103,1,1041.6682,0,730,2058,2857,4205,851,-15.0,200,0,0,1043.153,1,2,18_07_2014 level23_spatial_Clio 15_56 log.txt,37,37
104,0,1050.6229,0,460,1105,2857,4205,651,-15.0,200,1,1,1050.9728,1,5,18_07_2014 level23_spatial_Clio 15_56 log.txt,37,37
105,0,1077.3834,0,460,1105,2857,4205,951,-15.0,200,1,1,1079.8401,1,2,18_07_2014 level23_spatial_Clio 15_56 log.txt,37,37
106,0,1083.7801,0,460,1105,2857,4205,551,-15.0,200,1,1,1084.2796,1,3,18_07_2014 level23_spatial_Clio 15_56 log.txt,37,37
107,0,1094.1336,0,730,2058,2857,4205,851,-15.0,200,0,0,1095.6807,1,1,18_07_2014 level23_spatial_Clio 15_56 log.txt,37,37
108,0,1100.6959,0,730,2058,2857,4205,751,-15.0,200,0,0,1102.216,1,0,18_07_2014 level23_spatial_Clio 15_56 log.txt,37,37
109,0,1107.2777,0,460,1105,2857,4205,801,-15.0,200,1,1,1107.776,1,5,18_07_2014 level23_spatial_Clio 15_56 log.txt,37,37
110,0,1127.0523,0,460,1105,2857,4205,901,-15.0,200,1,0,1127.7991,0,2,18_07_2014 level23_spatial_Clio 15_56 log.txt,37,37
111,1,1134.4799,0,460,1105,2857,4205,901,-15.0,200,1,1,1134.7861,1,2,18_07_2014 level23_spatial_Clio 15_56 log.txt,37,37
112,0,1156.0301,0,730,2058,2857,4205,1001,-15.0,200,0,0,1156.8662,1,3,18_07_2014 level23_spatial_Clio 15_56 log.txt,37,37
113,0,1162.0907,0,460,1105,2857,4205,701,-15.0,200,1,1,1162.6792,1,0,18_07_2014 level23_spatial_Clio 15_56 log.txt,37,37
114,0,1165.7691,0,730,2058,2857,4205,601,-15.0,200,0,0,1166.7948,1,1,18_07_2014 level23_spatial_Clio 15_56 log.txt,37,37
115,0,1171.5169,0,730,2058,2857,4205,651,-15.0,200,0,0,1172.4565,1,5,18_07_2014 level23_spatial_Clio 15_56 log.txt,37,37
116,0,1177.0814,0,730,2058,2857,4205,501,-15.0,200,0,0,1177.7824,1,4,18_07_2014 level23_spatial_Clio 15_56 log.txt,37,37
117,0,1194.4867,0,460,1105,2857,4205,951,-15.0,200,1,1,1194.8338,1,0,18_07_2014 level23_spatial_Clio 15_56 log.txt,37,37
118,0,1199.6434,0,460,1105,2857,4205,701,-15.0,200,1,1,1200.0868,1,2,18_07_2014 level23_spatial_Clio 15_56 log.txt,37,37
119,0,1211.9762,0,730,2058,2857,4205,751,-15.0,200,0,0,1213.3901,1,4,18_07_2014 level23_spatial_Clio 15_56 log.txt,37,37
120,0,1217.969,0,460,1105,2857,4205,551,-15.0,200,1,1,1218.3332,1,5,18_07_2014 level23_spatial_Clio 15_56 log.txt,37,37
121,0,1222.4321,0,460,1105,2857,4205,901,-15.0,200,1,0,1223.9073,0,4,18_07_2014 level23_spatial_Clio 15_56 log.txt,37,37
122,1,1233.8872,0,460,1105,2857,4205,901,-15.0,200,1,1,1234.1971,1,4,18_07_2014 level23_spatial_Clio 15_56 log.txt,37,37
123,0,1242.0452,0,460,1105,2857,4205,801,-15.0,200,1,1,1242.4744,1,0,18_07_2014 level23_spatial_Clio 15_56 log.txt,37,37
124,0,1265.5255,0,460,1105,2857,4205,1001,-15.0,200,1,1,1265.9343,1,2,18_07_2014 level23_spatial_Clio 15_56 log.txt,37,37
125,0,1270.0335,0,460,1105,2857,4205,601,-15.0,200,1,1,1270.4167,1,1,18_07_2014 level23_spatial_Clio 15_56 log.txt,37,37
126,0,1275.3584,0,730,2058,2857,4205,601,-15.0,200,0,0,1276.0183,1,0,18_07_2014 level23_spatial_Clio 15_56 log.txt,37,37
127,0,1280.9023,0,730,2058,2857,4205,751,-15.0,200,0,0,1281.6187,1,0,18_07_2014 level23_spatial_Clio 15_56 log.txt,37,37
128,0,1286.8782,1,730,2058,2857,4205,651,-15.0,200,0,0,1287.4789,1,2,18_07_2014 level23_spatial_Clio 15_56 log.txt,37,37
129,0,1292.5666,0,730,2058,2857,4205,551,-15.0,200,0,0,1295.3511,1,4,18_07_2014 level23_spatial_Clio 15_56 log.txt,37,37
130,0,1299.6898,1,730,2058,2857,4205,901,-15.0,200,0,0,1300.255,1,3,18_07_2014 level23_spatial_Clio 15_56 log.txt,37,37
131,0,1306.3588,0,730,2058,2857,4205,501,-15.0,200,0,0,1309.263,1,5,18_07_2014 level23_spatial_Clio 15_56 log.txt,37,37
132,0,1314.9225,0,730,2058,2857,4205,951,-15.0,200,0,0,1315.7433,1,5,18_07_2014 level23_spatial_Clio 15_56 log.txt,37,37
133,0,1320.8314,0,460,1105,2857,4205,701,-15.0,200,1,1,1321.36,1,3,18_07_2014 level23_spatial_Clio 15_56 log.txt,37,37
134,0,1325.7692,0,730,2058,2857,4205,801,-15.0,200,0,0,1326.698,1,1,18_07_2014 level23_spatial_Clio 15_56 log.txt,37,37
135,0,1339.6696,0,460,1105,2857,4205,1001,-15.0,200,1,1,1339.9875,1,5,18_07_2014 level23_spatial_Clio 15_56 log.txt,37,37
136,0,1343.7452,1,460,1105,2857,4205,501,-15.0,200,1,1,1347.1664,1,1,18_07_2014 level23_spatial_Clio 15_56 log.txt,37,37
137,0,1354.0363,0,730,2058,2857,4205,701,-15.0,200,0,0,1355.0743,1,2,18_07_2014 level23_spatial_Clio 15_56 log.txt,37,37
138,0,1359.6788,0,460,1105,2857,4205,651,-15.0,200,1,1,1360.5041,1,4,18_07_2014 level23_spatial_Clio 15_56 log.txt,37,37
139,0,1364.3186,0,460,1105,2857,4205,901,-15.0,200,1,1,1364.8796,1,4,18_07_2014 level23_spatial_Clio 15_56 log.txt,37,37
140,0,1376.68,0,730,2058,2857,4205,851,-15.0,200,0,0,1377.6413,1,3,18_07_2014 level23_spatial_Clio 15_56 log.txt,37,37
141,0,1382.1346,0,460,1105,2857,4205,551,-15.0,200,1,1,1382.688,1,3,18_07_2014 level23_spatial_Clio 15_56 log.txt,37,37
142,0,1389.7002,0,460,1105,2857,4205,751,-15.0,200,1,1,1390.4536,1,1,18_07_2014 level23_spatial_Clio 15_56 log.txt,37,37
143,0,1394.2517,0,730,2058,2857,4205,951,-15.0,200,0,0,1395.925,1,2,18_07_2014 level23_spatial_Clio 15_56 log.txt,37,37
144,0,1409.5465,0,460,1105,2857,4205,801,-15.0,200,1,1,1410.1096,1,2,18_07_2014 level23_spatial_Clio 15_56 log.txt,37,37
145,0,1422.0583,0,730,2058,2857,4205,1001,-15.0,200,0,0,1422.5546,1,4,18_07_2014 level23_spatial_Clio 15_56 log.txt,37,37
146,0,1434.2963,0,730,2058,2857,4205,801,-15.0,200,0,0,1435.0729,1,1,18_07_2014 level23_spatial_Clio 15_56 log.txt,37,37
147,0,1439.8744,0,460,1105,2857,4205,751,-15.0,200,1,1,1440.8258,1,4,18_07_2014 level23_spatial_Clio 15_56 log.txt,37,37
148,0,1474.727,0,460,1105,2857,4205,951,-15.0,200,1,0,1475.7929,0,0,18_07_2014 level23_spatial_Clio 15_56 log.txt,37,37
149,1,1486.3625,0,460,1105,2857,4205,951,-15.0,200,1,1,1486.7195,1,0,18_07_2014 level23_spatial_Clio 15_56 log.txt,37,37
150,0,1494.2231,0,460,1105,2857,4205,701,-15.0,200,1,0,1495.2982,0,3,18_07_2014 level23_spatial_Clio 15_56 log.txt,37,37
151,1,1503.9911,0,460,1105,2857,4205,701,-15.0,200,1,0,1505.0673,0,3,18_07_2014 level23_spatial_Clio 15_56 log.txt,37,37
152,1,1510.8327,0,460,1105,2857,4205,701,-15.0,200,1,1,1511.7741,1,3,18_07_2014 level23_spatial_Clio 15_56 log.txt,37,37
153,0,1515.4895,0,460,1105,2857,4205,551,-15.0,200,1,1,1515.9604,1,4,18_07_2014 level23_spatial_Clio 15_56 log.txt,37,37
154,0,1519.6183,1,460,1105,2857,4205,501,-15.0,200,1,1,1522.3856,1,5,18_07_2014 level23_spatial_Clio 15_56 log.txt,37,37
155,0,1526.5761,0,730,2058,2857,4205,601,-15.0,200,0,1,1527.6596,0,1,18_07_2014 level23_spatial_Clio 15_56 log.txt,37,37
156,1,1534.2897,0,730,2058,2857,4205,601,-15.0,200,0,0,1535.285,1,1,18_07_2014 level23_spatial_Clio 15_56 log.txt,37,37
157,0,1542.7686,0,730,2058,2857,4205,651,-15.0,200,0,0,1543.9503,1,4,18_07_2014 level23_spatial_Clio 15_56 log.txt,37,37
158,0,1560.6635,0,730,2058,2857,4205,1001,-15.0,200,0,1,1565.5425,0,2,18_07_2014 level23_spatial_Clio 15_56 log.txt,37,37
159,1,1602.8187,0,730,2058,2857,4205,1001,-15.0,200,0,0,1604.3504,1,2,18_07_2014 level23_spatial_Clio 15_56 log.txt,37,37
160,0,1616.9178,0,730,2058,2857,4205,851,-15.0,200,0,0,1617.9937,1,0,18_07_2014 level23_spatial_Clio 15_56 log.txt,37,37
161,0,1622.1731,0,730,2058,2857,4205,901,-15.0,200,0,0,1623.061,1,4,18_07_2014 level23_spatial_Clio 15_56 log.txt,37,37
162,0,1628.1784,0,730,2058,2857,4205,851,-15.0,200,0,1,1629.3054,0,1,18_07_2014 level23_spatial_Clio 15_56 log.txt,37,37
163,1,1634.8402,0,730,2058,2857,4205,851,-15.0,200,0,0,1635.5004,1,1,18_07_2014 level23_spatial_Clio 15_56 log.txt,37,37
164,0,1640.0964,1,460,1105,2857,4205,501,-15.0,200,1,1,1640.5743,1,0,18_07_2014 level23_spatial_Clio 15_56 log.txt,37,37
165,0,1644.2486,0,730,2058,2857,4205,651,-15.0,200,0,1,1646.2217,0,2,18_07_2014 level23_spatial_Clio 15_56 log.txt,37,37
166,1,1654.5268,0,730,2058,2857,4205,651,-15.0,200,0,0,1655.5798,1,2,18_07_2014 level23_spatial_Clio 15_56 log.txt,37,37
167,0,1662.2603,0,460,1105,2857,4205,751,-15.0,200,1,1,1662.7406,1,3,18_07_2014 level23_spatial_Clio 15_56 log.txt,37,37
168,0,1674.3629,0,460,1105,2857,4205,1001,-15.0,200,1,1,1674.859,1,2,18_07_2014 level23_spatial_Clio 15_56 log.txt,37,37
169,0,1682.1468,0,730,2058,2857,4205,701,-15.0,200,0,0,1683.101,1,3,18_07_2014 level23_spatial_Clio 15_56 log.txt,37,37
170,0,1687.7738,1,460,1105,2857,4205,951,-15.0,200,1,1,1688.1682,1,1,18_07_2014 level23_spatial_Clio 15_56 log.txt,37,37
171,0,1691.8462,0,460,1105,2857,4205,801,-15.0,200,1,1,1693.5685,1,5,18_07_2014 level23_spatial_Clio 15_56 log.txt,37,37
172,0,1696.9913,0,730,2058,2857,4205,551,-15.0,200,0,0,1698.5098,1,2,18_07_2014 level23_spatial_Clio 15_56 log.txt,37,37
173,0,1704.0369,0,460,1105,2857,4205,651,-15.0,200,1,0,1705.2913,0,2,18_07_2014 level23_spatial_Clio 15_56 log.txt,37,37
174,1,1711.5162,0,460,1105,2857,4205,651,-15.0,200,1,0,1712.9357,0,2,18_07_2014 level23_spatial_Clio 15_56 log.txt,37,37
175,1,1720.0705,0,460,1105,2857,4205,651,-15.0,200,1,1,1720.4317,1,2,18_07_2014 level23_spatial_Clio 15_56 log.txt,37,37
176,0,1725.5675,0,460,1105,2857,4205,851,-15.0,200,1,1,1726.0375,1,5,18_07_2014 level23_spatial_Clio 15_56 log.txt,37,37
177,0,1733.881,0,730,2058,2857,4205,951,-15.0,200,0,0,1734.7171,1,5,18_07_2014 level23_spatial_Clio 15_56 log.txt,37,37
178,0,1739.6951,0,730,2058,2857,4205,801,-15.0,200,0,1,1740.445,0,3,18_07_2014 level23_spatial_Clio 15_56 log.txt,37,37
179,1,1745.5605,1,730,2058,2857,4205,801,-15.0,200,0,0,1746.623,1,3,18_07_2014 level23_spatial_Clio 15_56 log.txt,37,37
180,0,1751.4781,0,730,2058,2857,4205,551,-15.0,200,0,0,1755.0038,1,0,18_07_2014 level23_spatial_Clio 15_56 log.txt,37,37
181,0,1760.8188,0,730,2058,2857,4205,501,-15.0,200,0,0,1762.0941,1,5,18_07_2014 level23_spatial_Clio 15_56 log.txt,37,37
182,0,1767.1548,0,730,2058,2857,4205,601,-15.0,200,0,0,1768.1729,1,5,18_07_2014 level23_spatial_Clio 15_56 log.txt,37,37
183,0,1779.0987,1,460,1105,2857,4205,1001,-15.0,200,1,1,1779.536,1,1,18_07_2014 level23_spatial_Clio 15_56 log.txt,37,37
184,0,1784.7345,0,730,2058,2857,4205,751,-15.0,200,0,1,1786.8762,0,0,18_07_2014 level23_spatial_Clio 15_56 log.txt,37,37
185,1,1791.9204,0,730,2058,2857,4205,751,-15.0,200,0,0,1792.7635,1,0,18_07_2014 level23_spatial_Clio 15_56 log.txt,37,37
186,0,1822.2213,0,460,1105,2857,4205,901,-15.0,200,1,1,1822.7251,1,1,18_07_2014 level23_spatial_Clio 15_56 log.txt,37,37
187,0,1830.8563,0,730,2058,2857,4205,751,-15.0,200,0,0,1831.6229,1,3,18_07_2014 level23_spatial_Clio 15_56 log.txt,37,37
188,0,1846.0908,1,460,1105,2857,4205,851,-15.0,200,1,1,1846.6213,1,0,18_07_2014 level23_spatial_Clio 15_56 log.txt,37,37
189,0,1851.1249,1,460,1105,2857,4205,801,-15.0,200,1,1,1854.0206,1,4,18_07_2014 level23_spatial_Clio 15_56 log.txt,37,37
190,0,1858.0799,0,460,1105,2857,4205,601,-15.0,200,1,1,1858.4699,1,3,18_07_2014 level23_spatial_Clio 15_56 log.txt,37,37
191,0,1869.2656,0,730,2058,2857,4205,701,-15.0,200,0,0,1870.3704,1,4,18_07_2014 level23_spatial_Clio 15_56 log.txt,37,37
192,0,1875.0988,0,460,1105,2857,4205,901,-15.0,200,1,1,1875.6651,1,3,18_07_2014 level23_spatial_Clio 15_56 log.txt,37,37
193,0,1889.7065,0,730,2058,2857,4205,951,-15.0,200,0,0,1891.0752,1,2,18_07_2014 level23_spatial_Clio 15_56 log.txt,37,37
1,0,19.9232,1,460,1105,2857,4205,551,-15.0,200,1,1,20.5556,1,0,25_06_2014 level23_spatial_Clio 09_22 Block6-11.txt,37,37
2,0,31.7421,0,460,1105,2857,4205,751,-15.0,200,1,1,37.0505,1,4,25_06_2014 level23_spatial_Clio 09_22 Block6-11.txt,37,37
3,0,56.0277,0,730,2058,2857,4205,601,-15.0,200,0,0,57.3222,1,4,25_06_2014 level23_spatial_Clio 09_22 Block6-11.txt,37,37
4,0,66.7442,0,460,1105,2857,4205,701,-15.0,200,1,1,67.5143,1,4,25_06_2014 level23_spatial_Clio 09_22 Block6-11.txt,37,37
5,0,78.6165,0,460,1105,2857,4205,1001,-15.0,200,1,1,78.9137,1,5,25_06_2014 level23_spatial_Clio 09_22 Block6-11.txt,37,37
6,0,89.5518,0,730,2058,2857,4205,651,-15.0,200,0,1,90.0259,0,1,25_06_2014 level23_spatial_Clio 09_22 Block6-11.txt,37,37
7,1,98.4782,0,730,2058,2857,4205,651,-15.0,200,0,0,99.8239,1,1,25_06_2014 level23_spatial_Clio 09_22 Block6-11.txt,37,37
8,0,107.2517,1,730,2058,2857,4205,801,-15.0,200,0,0,107.9399,1,0,25_06_2014 level23_spatial_Clio 09_22 Block6-11.txt,37,37
9,0,113.5591,0,730,2058,2857,4205,951,-15.0,200,0,0,115.7298,1,5,25_06_2014 level23_spatial_Clio 09_22 Block6-11.txt,37,37
10,0,121.5417,0,460,1105,2857,4205,901,-15.0,200,1,0,122.8272,0,0,25_06_2014 level23_spatial_Clio 09_22 Block6-11.txt,37,37
11,1,129.6356,0,460,1105,2857,4205,901,-15.0,200,1,1,129.8462,1,0,25_06_2014 level23_spatial_Clio 09_22 Block6-11.txt,37,37
12,0,141.4322,0,460,1105,2857,4205,501,-15.0,200,1,0,143.4721,0,2,25_06_2014 level23_spatial_Clio 09_22 Block6-11.txt,37,37
13,1,148.1834,0,460,1105,2857,4205,501,-15.0,200,1,0,149.065,0,2,25_06_2014 level23_spatial_Clio 09_22 Block6-11.txt,37,37
14,1,156.5546,0,460,1105,2857,4205,501,-15.0,200,1,1,156.9914,1,2,25_06_2014 level23_spatial_Clio 09_22 Block6-11.txt,37,37
15,0,168.2232,1,730,2058,2857,4205,501,-15.0,200,0,0,173.6832,1,1,25_06_2014 level23_spatial_Clio 09_22 Block6-11.txt,37,37
16,0,182.6181,0,730,2058,2857,4205,701,-15.0,200,0,0,183.3638,1,2,25_06_2014 level23_spatial_Clio 09_22 Block6-11.txt,37,37
17,0,196.3863,0,730,2058,2857,4205,901,-15.0,200,0,1,197.3361,0,0,25_06_2014 level23_spatial_Clio 09_22 Block6-11.txt,37,37
18,1,203.868,0,730,2058,2857,4205,901,-15.0,200,0,0,207.9641,1,0,25_06_2014 level23_spatial_Clio 09_22 Block6-11.txt,37,37
19,0,213.8766,0,460,1105,2857,4205,801,-15.0,200,1,0,214.5023,0,0,25_06_2014 level23_spatial_Clio 09_22 Block6-11.txt,37,37
20,1,223.6506,0,460,1105,2857,4205,801,-15.0,200,1,1,223.9468,1,0,25_06_2014 level23_spatial_Clio 09_22 Block6-11.txt,37,37
21,0,235.5591,0,730,2058,2857,4205,601,-15.0,200,0,0,236.4883,1,4,25_06_2014 level23_spatial_Clio 09_22 Block6-11.txt,37,37
22,0,245.313,1,730,2058,2857,4205,1001,-15.0,200,0,0,246.4926,1,5,25_06_2014 level23_spatial_Clio 09_22 Block6-11.txt,37,37
23,0,252.7312,1,460,1105,2857,4205,651,-15.0,200,1,0,257.4765,0,5,25_06_2014 level23_spatial_Clio 09_22 Block6-11.txt,37,37
24,1,261.6664,0,460,1105,2857,4205,651,-15.0,200,1,1,261.9553,1,5,25_06_2014 level23_spatial_Clio 09_22 Block6-11.txt,37,37
25,0,269.3687,0,460,1105,2857,4205,851,-15.0,200,1,0,270.3759,0,2,25_06_2014 level23_spatial_Clio 09_22 Block6-11.txt,37,37
26,1,276.3822,0,460,1105,2857,4205,851,-15.0,200,1,1,276.7746,1,2,25_06_2014 level23_spatial_Clio 09_22 Block6-11.txt,37,37
27,0,282.1839,0,730,2058,2857,4205,551,-15.0,200,0,0,283.2524,1,1,25_06_2014 level23_spatial_Clio 09_22 Block6-11.txt,37,37
28,0,287.9953,0,730,2058,2857,4205,751,-15.0,200,0,0,288.3544,1,4,25_06_2014 level23_spatial_Clio 09_22 Block6-11.txt,37,37
29,0,293.2802,0,460,1105,2857,4205,551,-15.0,200,1,1,293.7267,1,3,25_06_2014 level23_spatial_Clio 09_22 Block6-11.txt,37,37
30,0,302.5019,0,460,1105,2857,4205,851,-15.0,200,1,1,302.8118,1,2,25_06_2014 level23_spatial_Clio 09_22 Block6-11.txt,37,37
31,0,314.8943,0,460,1105,2857,4205,801,-15.0,200,1,1,316.0171,1,3,25_06_2014 level23_spatial_Clio 09_22 Block6-11.txt,37,37
32,0,348.6027,0,730,2058,2857,4205,1001,-15.0,200,0,0,349.3492,1,0,25_06_2014 level23_spatial_Clio 09_22 Block6-11.txt,37,37
33,0,354.0727,0,460,1105,2857,4205,751,-15.0,200,1,1,354.3867,1,4,25_06_2014 level23_spatial_Clio 09_22 Block6-11.txt,37,37
34,0,364.6909,1,460,1105,2857,4205,901,-15.0,200,1,1,365.0047,1,3,25_06_2014 level23_spatial_Clio 09_22 Block6-11.txt,37,37
35,0,369.7326,0,730,2058,2857,4205,501,-15.0,200,0,1,371.6361,0,2,25_06_2014 level23_spatial_Clio 09_22 Block6-11.txt,37,37
36,1,376.3018,0,730,2058,2857,4205,501,-15.0,200,0,0,377.02,1,2,25_06_2014 level23_spatial_Clio 09_22 Block6-11.txt,37,37
37,0,390.1685,1,460,1105,2857,4205,701,-15.0,200,1,1,392.3724,1,5,25_06_2014 level23_spatial_Clio 09_22 Block6-11.txt,37,37
38,0,396.4362,0,730,2058,2857,4205,951,-15.0,200,0,0,397.8534,1,5,25_06_2014 level23_spatial_Clio 09_22 Block6-11.txt,37,37
39,0,405.3959,0,730,2058,2857,4205,601,-15.0,200,0,0,405.8397,1,2,25_06_2014 level23_spatial_Clio 09_22 Block6-11.txt,37,37
40,0,416.7143,0,460,1105,2857,4205,751,-15.0,200,1,1,417.0461,1,1,25_06_2014 level23_spatial_Clio 09_22 Block6-11.txt,37,37
41,0,424.7498,0,730,2058,2857,4205,501,-15.0,200,0,0,425.7133,1,3,25_06_2014 level23_spatial_Clio 09_22 Block6-11.txt,37,37
42,0,433.0676,0,460,1105,2857,4205,801,-15.0,200,1,1,433.3699,1,1,25_06_2014 level23_spatial_Clio 09_22 Block6-11.txt,37,37
43,0,438.4125,0,460,1105,2857,4205,551,-15.0,200,1,0,438.9967,0,1,25_06_2014 level23_spatial_Clio 09_22 Block6-11.txt,37,37
44,1,444.1175,0,460,1105,2857,4205,551,-15.0,200,1,1,444.6223,1,1,25_06_2014 level23_spatial_Clio 09_22 Block6-11.txt,37,37
45,0,470.7264,0,730,2058,2857,4205,951,-15.0,200,0,0,471.1234,1,3,25_06_2014 level23_spatial_Clio 09_22 Block6-11.txt,37,37
46,0,480.3804,0,730,2058,2857,4205,851,-15.0,200,0,0,481.1042,1,3,25_06_2014 level23_spatial_Clio 09_22 Block6-11.txt,37,37
47,0,494.9461,0,460,1105,2857,4205,901,-15.0,200,1,1,495.2928,1,5,25_06_2014 level23_spatial_Clio 09_22 Block6-11.txt,37,37
48,0,504.6202,0,460,1105,2857,4205,1001,-15.0,200,1,1,504.9764,1,5,25_06_2014 level23_spatial_Clio 09_22 Block6-11.txt,37,37
49,0,519.4381,0,460,1105,2857,4205,651,-15.0,200,1,1,520.0275,1,1,25_06_2014 level23_spatial_Clio 09_22 Block6-11.txt,37,37
50,0,532.8459,1,730,2058,2857,4205,701,-15.0,200,0,0,536.4244,1,2,25_06_2014 level23_spatial_Clio 09_22 Block6-11.txt,37,37
51,0,540.7172,0,460,1105,2857,4205,551,-15.0,200,1,0,541.172,0,3,25_06_2014 level23_spatial_Clio 09_22 Block6-11.txt,37,37
52,1,557.7508,0,460,1105,2857,4205,551,-15.0,200,1,1,558.2085,1,3,25_06_2014 level23_spatial_Clio 09_22 Block6-11.txt,37,37
53,0,569.7688,0,730,2058,2857,4205,701,-15.0,200,0,0,570.507,1,4,25_06_2014 level23_spatial_Clio 09_22 Block6-11.txt,37,37
54,0,583.9512,0,730,2058,2857,4205,901,-15.0,200,0,0,584.5021,1,4,25_06_2014 level23_spatial_Clio 09_22 Block6-11.txt,37,37
55,0,589.0955,0,730,2058,2857,4205,501,-15.0,200,0,0,589.4292,1,0,25_06_2014 level23_spatial_Clio 09_22 Block6-11.txt,37,37
56,0,611.2279,0,730,2058,2857,4205,751,-15.0,200,0,1,611.7552,0,1,25_06_2014 level23_spatial_Clio 09_22 Block6-11.txt,37,37
57,1,615.859,0,730,2058,2857,4205,751,-15.0,200,0,1,616.2757,0,1,25_06_2014 level23_spatial_Clio 09_22 Block6-11.txt,37,37
58,1,621.7255,0,730,2058,2857,4205,751,-15.0,200,0,0,622.2316,1,1,25_06_2014 level23_spatial_Clio 09_22 Block6-11.txt,37,37
59,0,630.7579,1,730,2058,2857,4205,801,-15.0,200,0,1,631.224,0,1,25_06_2014 level23_spatial_Clio 09_22 Block6-11.txt,37,37
60,1,642.8208,0,730,2058,2857,4205,801,-15.0,200,0,1,643.3181,0,1,25_06_2014 level23_spatial_Clio 09_22 Block6-11.txt,37,37
61,1,647.9559,0,730,2058,2857,4205,801,-15.0,200,0,0,648.4953,1,1,25_06_2014 level23_spatial_Clio 09_22 Block6-11.txt,37,37
62,0,655.7873,0,460,1105,2857,4205,601,-15.0,200,1,1,656.1711,1,0,25_06_2014 level23_spatial_Clio 09_22 Block6-11.txt,37,37
63,0,663.1809,0,460,1105,2857,4205,851,-15.0,200,1,0,663.6234,0,2,25_06_2014 level23_spatial_Clio 09_22 Block6-11.txt,37,37
64,1,669.1089,0,460,1105,2857,4205,851,-15.0,200,1,1,669.5495,1,2,25_06_2014 level23_spatial_Clio 09_22 Block6-11.txt,37,37
65,0,686.5746,0,460,1105,2857,4205,1001,-15.0,200,1,0,687.0681,0,0,25_06_2014 level23_spatial_Clio 09_22 Block6-11.txt,37,37
66,1,697.607,0,460,1105,2857,4205,1001,-15.0,200,1,1,698.146,1,0,25_06_2014 level23_spatial_Clio 09_22 Block6-11.txt,37,37
67,0,711.593,0,730,2058,2857,4205,951,-15.0,200,0,0,712.0592,1,4,25_06_2014 level23_spatial_Clio 09_22 Block6-11.txt,37,37
68,0,717.0276,0,460,1105,2857,4205,851,-15.0,200,1,0,717.6841,0,1,25_06_2014 level23_spatial_Clio 09_22 Block6-11.txt,37,37
69,1,729.7922,0,460,1105,2857,4205,851,-15.0,200,1,1,730.0875,1,1,25_06_2014 level23_spatial_Clio 09_22 Block6-11.txt,37,37
70,0,733.8548,0,730,2058,2857,4205,651,-15.0,200,0,0,734.5104,1,5,25_06_2014 level23_spatial_Clio 09_22 Block6-11.txt,37,37
71,0,738.4633,0,730,2058,2857,4205,551,-15.0,200,0,0,739.0332,1,0,25_06_2014 level23_spatial_Clio 09_22 Block6-11.txt,37,37
72,0,743.4846,0,730,2058,2857,4205,701,-15.0,200,0,1,744.006,0,5,25_06_2014 level23_spatial_Clio 09_22 Block6-11.txt,37,37
73,1,749.4822,0,730,2058,2857,4205,701,-15.0,200,0,0,749.8795,1,5,25_06_2014 level23_spatial_Clio 09_22 Block6-11.txt,37,37
74,0,766.9164,0,730,2058,2857,4205,1001,-15.0,200,0,1,767.3973,0,2,25_06_2014 level23_spatial_Clio 09_22 Block6-11.txt,37,37
75,1,773.8042,0,730,2058,2857,4205,1001,-15.0,200,0,0,774.2662,1,2,25_06_2014 level23_spatial_Clio 09_22 Block6-11.txt,37,37
76,0,782.893,0,730,2058,2857,4205,951,-15.0,200,0,0,783.5081,1,3,25_06_2014 level23_spatial_Clio 09_22 Block6-11.txt,37,37
77,0,791.7887,0,730,2058,2857,4205,901,-15.0,200,0,0,792.124,1,3,25_06_2014 level23_spatial_Clio 09_22 Block6-11.txt,37,37
78,0,802.9132,0,730,2058,2857,4205,801,-15.0,200,0,0,803.6243,1,5,25_06_2014 level23_spatial_Clio 09_22 Block6-11.txt,37,37
79,0,811.9582,0,730,2058,2857,4205,601,-15.0,200,0,0,812.9695,1,1,25_06_2014 level23_spatial_Clio 09_22 Block6-11.txt,37,37
80,0,817.6996,0,460,1105,2857,4205,751,-15.0,200,1,1,818.478,1,4,25_06_2014 level23_spatial_Clio 09_22 Block6-11.txt,37,37
81,0,825.2628,0,730,2058,2857,4205,1001,-15.0,200,0,0,825.7847,1,3,25_06_2014 level23_spatial_Clio 09_22 Block6-11.txt,37,37
82,0,839.6644,0,460,1105,2857,4205,751,-15.0,200,1,1,840.5974,1,3,25_06_2014 level23_spatial_Clio 09_22 Block6-11.txt,37,37
83,0,844.2888,1,460,1105,2857,4205,501,-15.0,200,1,1,844.8087,1,3,25_06_2014 level23_spatial_Clio 09_22 Block6-11.txt,37,37
84,0,849.2756,0,460,1105,2857,4205,951,-15.0,200,1,1,850.4319,1,4,25_06_2014 level23_spatial_Clio 09_22 Block6-11.txt,37,37
85,0,890.5389,1,460,1105,2857,4205,901,-15.0,200,1,1,890.9489,1,2,25_06_2014 level23_spatial_Clio 09_22 Block6-11.txt,37,37
86,0,895.9647,0,460,1105,2857,4205,701,-15.0,200,1,1,897.7138,1,1,25_06_2014 level23_spatial_Clio 09_22 Block6-11.txt,37,37
87,0,901.4691,0,460,1105,2857,4205,801,-15.0,200,1,1,901.9451,1,4,25_06_2014 level23_spatial_Clio 09_22 Block6-11.txt,37,37
88,0,910.6595,0,730,2058,2857,4205,601,-15.0,200,0,0,911.0987,1,0,25_06_2014 level23_spatial_Clio 09_22 Block6-11.txt,37,37
89,0,915.5574,0,460,1105,2857,4205,651,-15.0,200,1,0,916.1844,0,0,25_06_2014 level23_spatial_Clio 09_22 Block6-11.txt,37,37
90,1,921.6471,0,460,1105,2857,4205,651,-15.0,200,1,1,922.0434,1,0,25_06_2014 level23_spatial_Clio 09_22 Block6-11.txt,37,37
91,0,926.0057,0,460,1105,2857,4205,851,-15.0,200,1,0,926.469,0,2,25_06_2014 level23_spatial_Clio 09_22 Block6-11.txt,37,37
92,1,939.1333,0,460,1105,2857,4205,851,-15.0,200,1,1,939.8709,1,2,25_06_2014 level23_spatial_Clio 09_22 Block6-11.txt,37,37
93,0,943.5938,0,460,1105,2857,4205,751,-15.0,200,1,1,944.2188,1,5,25_06_2014 level23_spatial_Clio 09_22 Block6-11.txt,37,37
94,0,954.8376,0,730,2058,2857,4205,601,-15.0,200,0,0,955.4421,1,2,25_06_2014 level23_spatial_Clio 09_22 Block6-11.txt,37,37
95,0,961.8939,0,460,1105,2857,4205,501,-15.0,200,1,1,962.4053,1,5,25_06_2014 level23_spatial_Clio 09_22 Block6-11.txt,37,37
96,0,976.6089,1,460,1105,2857,4205,1001,-15.0,200,1,1,977.0717,1,4,25_06_2014 level23_spatial_Clio 09_22 Block6-11.txt,37,37
97,0,980.2383,1,730,2058,2857,4205,701,-15.0,200,0,1,983.1083,0,5,25_06_2014 level23_spatial_Clio 09_22 Block6-11.txt,37,37
98,1,987.8675,1,730,2058,2857,4205,701,-15.0,200,0,0,990.8181,1,5,25_06_2014 level23_spatial_Clio 09_22 Block6-11.txt,37,37
99,0,995.4869,0,460,1105,2857,4205,551,-15.0,200,1,0,996.1592,0,2,25_06_2014 level23_spatial_Clio 09_22 Block6-11.txt,37,37
100,1,1004.0869,0,460,1105,2857,4205,551,-15.0,200,1,1,1004.4727,1,2,25_06_2014 level23_spatial_Clio 09_22 Block6-11.txt,37,37
101,0,1016.6591,0,730,2058,2857,4205,851,-15.0,200,0,0,1017.1254,1,4,25_06_2014 level23_spatial_Clio 09_22 Block6-11.txt,37,37
102,0,1023.9739,0,730,2058,2857,4205,801,-15.0,200,0,1,1024.4237,0,3,25_06_2014 level23_spatial_Clio 09_22 Block6-11.txt,37,37
103,1,1037.5873,0,730,2058,2857,4205,801,-15.0,200,0,0,1037.9851,1,3,25_06_2014 level23_spatial_Clio 09_22 Block6-11.txt,37,37
104,0,1043.7564,0,460,1105,2857,4205,651,-15.0,200,1,1,1044.6728,1,4,25_06_2014 level23_spatial_Clio 09_22 Block6-11.txt,37,37
105,0,1059.2582,0,730,2058,2857,4205,951,-15.0,200,0,1,1060.4095,0,1,25_06_2014 level23_spatial_Clio 09_22 Block6-11.txt,37,37
106,1,1067.5431,0,730,2058,2857,4205,951,-15.0,200,0,0,1068.1163,1,1,25_06_2014 level23_spatial_Clio 09_22 Block6-11.txt,37,37
107,0,1073.3688,0,460,1105,2857,4205,701,-15.0,200,1,1,1073.7021,1,5,25_06_2014 level23_spatial_Clio 09_22 Block6-11.txt,37,37
108,0,1077.2684,0,460,1105,2857,4205,501,-15.0,200,1,1,1077.643,1,4,25_06_2014 level23_spatial_Clio 09_22 Block6-11.txt,37,37
109,0,1082.983,0,460,1105,2857,4205,601,-15.0,200,1,1,1083.3891,1,1,25_06_2014 level23_spatial_Clio 09_22 Block6-11.txt,37,37
110,0,1090.7303,0,730,2058,2857,4205,751,-15.0,200,0,0,1091.3604,1,0,25_06_2014 level23_spatial_Clio 09_22 Block6-11.txt,37,37
111,0,1106.8967,0,460,1105,2857,4205,901,-15.0,200,1,1,1107.1875,1,0,25_06_2014 level23_spatial_Clio 09_22 Block6-11.txt,37,37
112,0,1110.6797,0,730,2058,2857,4205,951,-15.0,200,0,1,1111.0462,0,0,25_06_2014 level23_spatial_Clio 09_22 Block6-11.txt,37,37
113,1,1121.36,0,730,2058,2857,4205,951,-15.0,200,0,0,1122.0867,1,0,25_06_2014 level23_spatial_Clio 09_22 Block6-11.txt,37,37
114,0,1127.4373,0,460,1105,2857,4205,851,-15.0,200,1,1,1127.8708,1,1,25_06_2014 level23_spatial_Clio 09_22 Block6-11.txt,37,37
115,0,1137.133,0,730,2058,2857,4205,801,-15.0,200,0,0,1137.86,1,4,25_06_2014 level23_spatial_Clio 09_22 Block6-11.txt,37,37
116,0,1142.2527,0,460,1105,2857,4205,1001,-15.0,200,1,1,1142.7123,1,5,25_06_2014 level23_spatial_Clio 09_22 Block6-11.txt,37,37
117,0,1154.0046,0,460,1105,2857,4205,651,-15.0,200,1,1,1154.4416,1,2,25_06_2014 level23_spatial_Clio 09_22 Block6-11.txt,37,37
118,0,1165.283,0,460,1105,2857,4205,651,-15.0,200,1,1,1165.7182,1,0,25_06_2014 level23_spatial_Clio 09_22 Block6-11.txt,37,37
119,0,1169.855,1,460,1105,2857,4205,701,-15.0,200,1,1,1170.2663,1,3,25_06_2014 level23_spatial_Clio 09_22 Block6-11.txt,37,37
120,0,1174.4874,0,730,2058,2857,4205,801,-15.0,200,0,1,1175.9543,0,2,25_06_2014 level23_spatial_Clio 09_22 Block6-11.txt,37,37
121,1,1186.5687,0,730,2058,2857,4205,801,-15.0,200,0,0,1187.186,1,2,25_06_2014 level23_spatial_Clio 09_22 Block6-11.txt,37,37
122,0,1191.7685,0,460,1105,2857,4205,601,-15.0,200,1,1,1192.1807,1,1,25_06_2014 level23_spatial_Clio 09_22 Block6-11.txt,37,37
123,0,1199.7924,1,730,2058,2857,4205,951,-15.0,200,0,0,1200.2207,1,3,25_06_2014 level23_spatial_Clio 09_22 Block6-11.txt,37,37
124,0,1205.4082,0,460,1105,2857,4205,901,-15.0,200,1,1,1207.934,1,0,25_06_2014 level23_spatial_Clio 09_22 Block6-11.txt,37,37
125,0,1218.5345,1,730,2058,2857,4205,751,-15.0,200,0,1,1218.8661,0,1,25_06_2014 level23_spatial_Clio 09_22 Block6-11.txt,37,37
126,1,1229.8501,0,730,2058,2857,4205,751,-15.0,200,0,0,1230.4089,1,1,25_06_2014 level23_spatial_Clio 09_22 Block6-11.txt,37,37
127,0,1235.1884,0,730,2058,2857,4205,501,-15.0,200,0,0,1235.6133,1,5,25_06_2014 level23_spatial_Clio 09_22 Block6-11.txt,37,37
128,0,1242.2548,0,730,2058,2857,4205,551,-15.0,200,0,0,1242.7553,1,2,25_06_2014 level23_spatial_Clio 09_22 Block6-11.txt,37,37
129,0,1256.2879,0,730,2058,2857,4205,1001,-15.0,200,0,0,1256.9728,1,0,25_06_2014 level23_spatial_Clio 09_22 Block6-11.txt,37,37
130,0,1262.5637,0,460,1105,2857,4205,951,-15.0,200,1,1,1262.8664,1,3,25_06_2014 level23_spatial_Clio 09_22 Block6-11.txt,37,37
131,0,1285.7042,0,460,1105,2857,4205,551,-15.0,200,1,1,1286.0439,1,3,25_06_2014 level23_spatial_Clio 09_22 Block6-11.txt,37,37
132,0,1293.3484,0,730,2058,2857,4205,701,-15.0,200,0,0,1294.0752,1,2,25_06_2014 level23_spatial_Clio 09_22 Block6-11.txt,37,37
133,0,1303.0923,1,730,2058,2857,4205,801,-15.0,200,0,1,1303.3419,0,1,25_06_2014 level23_spatial_Clio 09_22 Block6-11.txt,37,37
134,1,1309.2836,0,730,2058,2857,4205,801,-15.0,200,0,1,1309.5802,0,1,25_06_2014 level23_spatial_Clio 09_22 Block6-11.txt,37,37
135,1,1320.4087,0,730,2058,2857,4205,801,-15.0,200,0,1,1320.813,0,1,25_06_2014 level23_spatial_Clio 09_22 Block6-11.txt,37,37
136,1,1325.4442,0,730,2058,2857,4205,801,-15.0,200,0,0,1325.956,1,1,25_06_2014 level23_spatial_Clio 09_22 Block6-11.txt,37,37
137,0,1330.3349,0,730,2058,2857,4205,601,-15.0,200,0,1,1331.1911,0,5,25_06_2014 level23_spatial_Clio 09_22 Block6-11.txt,37,37
138,1,1335.0705,0,730,2058,2857,4205,601,-15.0,200,0,0,1336.4136,1,5,25_06_2014 level23_spatial_Clio 09_22 Block6-11.txt,37,37
139,0,1343.9573,0,460,1105,2857,4205,501,-15.0,200,1,1,1344.4607,1,2,25_06_2014 level23_spatial_Clio 09_22 Block6-11.txt,37,37
140,0,1353.4888,0,730,2058,2857,4205,901,-15.0,200,0,0,1354.0724,1,3,25_06_2014 level23_spatial_Clio 09_22 Block6-11.txt,37,37
141,0,1365.2473,0,730,2058,2857,4205,851,-15.0,200,0,0,1365.9525,1,4,25_06_2014 level23_spatial_Clio 09_22 Block6-11.txt,37,37
142,0,1370.845,0,730,2058,2857,4205,751,-15.0,200,0,0,1371.3046,1,5,25_06_2014 level23_spatial_Clio 09_22 Block6-11.txt,37,37
143,0,1376.1531,0,730,2058,2857,4205,651,-15.0,200,0,0,1376.737,1,1,25_06_2014 level23_spatial_Clio 09_22 Block6-11.txt,37,37
144,0,1381.0215,0,460,1105,2857,4205,751,-15.0,200,1,1,1381.435,1,4,25_06_2014 level23_spatial_Clio 09_22 Block6-11.txt,37,37
145,0,1438.4017,0,460,1105,2857,4205,901,-15.0,200,1,0,1444.0589,0,4,25_06_2014 level23_spatial_Clio 09_22 Block6-11.txt,37,37
1,0,5.2558,0,730,2058,2857,4205,651,-15.0,200,0,0,5.9287,1,0,09_01_2014 level23_spatial_Clio 10_52 Block3-59.txt,37,37
2,0,12.6966,0,730,2058,2857,4205,601,-15.0,200,0,0,13.2465,1,1,09_01_2014 level23_spatial_Clio 10_52 Block3-59.txt,37,37
3,0,18.5243,0,460,1105,2857,4205,701,-15.0,200,1,0,18.9156,0,3,09_01_2014 level23_spatial_Clio 10_52 Block3-59.txt,37,37
4,1,23.7733,0,460,1105,2857,4205,701,-15.0,200,1,0,24.4256,0,3,09_01_2014 level23_spatial_Clio 10_52 Block3-59.txt,37,37
5,1,31.7162,0,460,1105,2857,4205,701,-15.0,200,1,1,32.1493,1,3,09_01_2014 level23_spatial_Clio 10_52 Block3-59.txt,37,37
6,0,46.1184,0,460,1105,2857,4205,1001,-15.0,200,1,1,46.8485,1,3,09_01_2014 level23_spatial_Clio 10_52 Block3-59.txt,37,37
7,0,54.39,0,460,1105,2857,4205,801,-15.0,200,1,0,55.2095,0,1,09_01_2014 level23_spatial_Clio 10_52 Block3-59.txt,37,37
8,1,59.8849,0,460,1105,2857,4205,801,-15.0,200,1,1,60.1035,1,1,09_01_2014 level23_spatial_Clio 10_52 Block3-59.txt,37,37
9,0,74.2357,0,730,2058,2857,4205,851,-15.0,200,0,1,74.5219,0,2,09_01_2014 level23_spatial_Clio 10_52 Block3-59.txt,37,37
10,1,81.0951,1,730,2058,2857,4205,851,-15.0,200,0,1,88.401,0,2,09_01_2014 level23_spatial_Clio 10_52 Block3-59.txt,37,37
11,1,96.7301,0,730,2058,2857,4205,851,-15.0,200,0,0,97.1113,1,2,09_01_2014 level23_spatial_Clio 10_52 Block3-59.txt,37,37
12,0,105.607,0,460,1105,2857,4205,901,-15.0,200,1,0,106.3839,0,2,09_01_2014 level23_spatial_Clio 10_52 Block3-59.txt,37,37
13,1,113.657,0,460,1105,2857,4205,901,-15.0,200,1,0,114.6032,0,2,09_01_2014 level23_spatial_Clio 10_52 Block3-59.txt,37,37
14,1,119.3019,0,460,1105,2857,4205,901,-15.0,200,1,0,120.1358,0,2,09_01_2014 level23_spatial_Clio 10_52 Block3-59.txt,37,37
15,1,129.4041,0,460,1105,2857,4205,901,-15.0,200,1,0,130.5264,0,2,09_01_2014 level23_spatial_Clio 10_52 Block3-59.txt,37,37
16,1,143.6825,1,460,1105,2857,4205,901,-15.0,200,1,0,148.1184,0,2,09_01_2014 level23_spatial_Clio 10_52 Block3-59.txt,37,37
17,1,153.8639,0,460,1105,2857,4205,901,-15.0,200,1,1,155.4277,1,2,09_01_2014 level23_spatial_Clio 10_52 Block3-59.txt,37,37
18,0,162.8675,0,460,1105,2857,4205,951,-15.0,200,1,0,164.0674,0,3,09_01_2014 level23_spatial_Clio 10_52 Block3-59.txt,37,37
19,1,172.4355,0,460,1105,2857,4205,951,-15.0,200,1,1,172.7811,1,3,09_01_2014 level23_spatial_Clio 10_52 Block3-59.txt,37,37
20,0,180.2583,0,460,1105,2857,4205,501,-15.0,200,1,0,181.8025,0,0,09_01_2014 level23_spatial_Clio 10_52 Block3-59.txt,37,37
21,1,186.3089,1,460,1105,2857,4205,501,-15.0,200,1,1,188.6154,1,0,09_01_2014 level23_spatial_Clio 10_52 Block3-59.txt,37,37
22,0,195.0842,0,460,1105,2857,4205,751,-15.0,200,1,1,196.1134,1,1,09_01_2014 level23_spatial_Clio 10_52 Block3-59.txt,37,37
23,0,204.6187,1,730,2058,2857,4205,701,-15.0,200,0,1,217.3678,0,2,09_01_2014 level23_spatial_Clio 10_52 Block3-59.txt,37,37
24,1,228.6009,0,730,2058,2857,4205,701,-15.0,200,0,0,229.4054,1,2,09_01_2014 level23_spatial_Clio 10_52 Block3-59.txt,37,37
25,0,236.1706,0,460,1105,2857,4205,501,-15.0,200,1,1,236.6545,1,1,09_01_2014 level23_spatial_Clio 10_52 Block3-59.txt,37,37
26,0,242.0462,0,730,2058,2857,4205,1001,-15.0,200,0,0,243.1567,1,3,09_01_2014 level23_spatial_Clio 10_52 Block3-59.txt,37,37
27,0,248.1423,0,730,2058,2857,4205,751,-15.0,200,0,0,248.8606,1,1,09_01_2014 level23_spatial_Clio 10_52 Block3-59.txt,37,37
28,0,253.3566,0,730,2058,2857,4205,851,-15.0,200,0,0,254.031,1,3,09_01_2014 level23_spatial_Clio 10_52 Block3-59.txt,37,37
29,0,259.5851,0,730,2058,2857,4205,601,-15.0,200,0,0,260.8035,1,1,09_01_2014 level23_spatial_Clio 10_52 Block3-59.txt,37,37
30,0,265.8294,0,460,1105,2857,4205,651,-15.0,200,1,0,266.6634,0,2,09_01_2014 level23_spatial_Clio 10_52 Block3-59.txt,37,37
31,1,271.2766,1,460,1105,2857,4205,651,-15.0,200,1,1,271.6289,1,2,09_01_2014 level23_spatial_Clio 10_52 Block3-59.txt,37,37
32,0,278.565,0,460,1105,2857,4205,951,-15.0,200,1,0,280.4858,0,2,09_01_2014 level23_spatial_Clio 10_52 Block3-59.txt,37,37
33,1,291.8067,0,460,1105,2857,4205,951,-15.0,200,1,1,293.1504,1,2,09_01_2014 level23_spatial_Clio 10_52 Block3-59.txt,37,37
34,0,299.628,0,730,2058,2857,4205,901,-15.0,200,0,0,300.667,1,0,09_01_2014 level23_spatial_Clio 10_52 Block3-59.txt,37,37
35,0,305.8322,0,730,2058,2857,4205,551,-15.0,200,0,0,306.7039,1,0,09_01_2014 level23_spatial_Clio 10_52 Block3-59.txt,37,37
36,0,310.8652,0,730,2058,2857,4205,501,-15.0,200,0,0,311.9867,1,3,09_01_2014 level23_spatial_Clio 10_52 Block3-59.txt,37,37
37,0,316.4711,0,460,1105,2857,4205,601,-15.0,200,1,0,317.8798,0,0,09_01_2014 level23_spatial_Clio 10_52 Block3-59.txt,37,37
38,1,322.702,0,460,1105,2857,4205,601,-15.0,200,1,0,323.9672,0,0,09_01_2014 level23_spatial_Clio 10_52 Block3-59.txt,37,37
39,1,327.6321,0,460,1105,2857,4205,601,-15.0,200,1,1,327.9639,1,0,09_01_2014 level23_spatial_Clio 10_52 Block3-59.txt,37,37
40,0,337.0579,1,730,2058,2857,4205,901,-15.0,200,0,0,338.4877,1,2,09_01_2014 level23_spatial_Clio 10_52 Block3-59.txt,37,37
41,0,343.0388,1,460,1105,2857,4205,951,-15.0,200,1,0,348.3672,0,0,09_01_2014 level23_spatial_Clio 10_52 Block3-59.txt,37,37
42,1,354.9076,0,460,1105,2857,4205,951,-15.0,200,1,1,355.1496,1,0,09_01_2014 level23_spatial_Clio 10_52 Block3-59.txt,37,37
43,0,360.2679,0,460,1105,2857,4205,1001,-15.0,200,1,1,361.3801,1,0,09_01_2014 level23_spatial_Clio 10_52 Block3-59.txt,37,37
44,0,367.33,0,460,1105,2857,4205,751,-15.0,200,1,1,368.3431,1,0,09_01_2014 level23_spatial_Clio 10_52 Block3-59.txt,37,37
45,0,373.7182,0,730,2058,2857,4205,651,-15.0,200,0,0,374.9204,1,1,09_01_2014 level23_spatial_Clio 10_52 Block3-59.txt,37,37
46,0,382.3519,0,730,2058,2857,4205,851,-15.0,200,0,0,383.1972,1,2,09_01_2014 level23_spatial_Clio 10_52 Block3-59.txt,37,37
47,0,389.7525,0,730,2058,2857,4205,801,-15.0,200,0,0,391.5293,1,1,09_01_2014 level23_spatial_Clio 10_52 Block3-59.txt,37,37
48,0,395.8909,0,730,2058,2857,4205,701,-15.0,200,0,0,396.7921,1,3,09_01_2014 level23_spatial_Clio 10_52 Block3-59.txt,37,37
49,0,401.1216,0,730,2058,2857,4205,701,-15.0,200,0,0,402.7351,1,1,09_01_2014 level23_spatial_Clio 10_52 Block3-59.txt,37,37
50,0,407.4969,0,460,1105,2857,4205,551,-15.0,200,1,1,408.0613,1,3,09_01_2014 level23_spatial_Clio 10_52 Block3-59.txt,37,37
51,0,412.0261,0,460,1105,2857,4205,1001,-15.0,200,1,0,412.6657,0,2,09_01_2014 level23_spatial_Clio 10_52 Block3-59.txt,37,37
52,1,421.8963,0,460,1105,2857,4205,1001,-15.0,200,1,1,422.3013,1,2,09_01_2014 level23_spatial_Clio 10_52 Block3-59.txt,37,37
53,0,427.4382,0,730,2058,2857,4205,851,-15.0,200,0,0,427.8732,1,2,09_01_2014 level23_spatial_Clio 10_52 Block3-59.txt,37,37
54,0,432.0579,0,460,1105,2857,4205,601,-15.0,200,1,0,432.4326,0,2,09_01_2014 level23_spatial_Clio 10_52 Block3-59.txt,37,37
55,1,436.8635,0,460,1105,2857,4205,601,-15.0,200,1,0,438.1556,0,2,09_01_2014 level23_spatial_Clio 10_52 Block3-59.txt,37,37
56,1,442.7977,0,460,1105,2857,4205,601,-15.0,200,1,1,443.2758,1,2,09_01_2014 level23_spatial_Clio 10_52 Block3-59.txt,37,37
57,0,447.1609,0,730,2058,2857,4205,801,-15.0,200,0,0,447.8448,1,0,09_01_2014 level23_spatial_Clio 10_52 Block3-59.txt,37,37
58,0,451.809,1,460,1105,2857,4205,951,-15.0,200,1,1,452.0268,1,3,09_01_2014 level23_spatial_Clio 10_52 Block3-59.txt,37,37
59,0,456.3466,0,460,1105,2857,4205,651,-15.0,200,1,1,459.6088,1,1,09_01_2014 level23_spatial_Clio 10_52 Block3-59.txt,37,37
60,0,463.0509,0,460,1105,2857,4205,751,-15.0,200,1,1,464.4642,1,3,09_01_2014 level23_spatial_Clio 10_52 Block3-59.txt,37,37
61,0,468.6551,0,730,2058,2857,4205,501,-15.0,200,0,1,472.1302,0,3,09_01_2014 level23_spatial_Clio 10_52 Block3-59.txt,37,37
62,1,476.3644,0,730,2058,2857,4205,501,-15.0,200,0,0,477.2411,1,3,09_01_2014 level23_spatial_Clio 10_52 Block3-59.txt,37,37
63,0,480.988,0,460,1105,2857,4205,651,-15.0,200,1,0,482.258,0,0,09_01_2014 level23_spatial_Clio 10_52 Block3-59.txt,37,37
64,1,487.155,0,460,1105,2857,4205,651,-15.0,200,1,1,487.8979,1,0,09_01_2014 level23_spatial_Clio 10_52 Block3-59.txt,37,37
65,0,491.8513,0,460,1105,2857,4205,551,-15.0,200,1,0,493.2326,0,2,09_01_2014 level23_spatial_Clio 10_52 Block3-59.txt,37,37
66,1,498.7328,0,460,1105,2857,4205,551,-15.0,200,1,0,499.623,0,2,09_01_2014 level23_spatial_Clio 10_52 Block3-59.txt,37,37
67,1,504.2834,0,460,1105,2857,4205,551,-15.0,200,1,1,504.9742,1,2,09_01_2014 level23_spatial_Clio 10_52 Block3-59.txt,37,37
68,0,513.1262,0,460,1105,2857,4205,1001,-15.0,200,1,0,514.2564,0,1,09_01_2014 level23_spatial_Clio 10_52 Block3-59.txt,37,37
69,1,519.3967,0,460,1105,2857,4205,1001,-15.0,200,1,1,519.6105,1,1,09_01_2014 level23_spatial_Clio 10_52 Block3-59.txt,37,37
70,0,525.1995,0,730,2058,2857,4205,801,-15.0,200,0,1,525.9481,0,3,09_01_2014 level23_spatial_Clio 10_52 Block3-59.txt,37,37
71,1,529.7892,0,730,2058,2857,4205,801,-15.0,200,0,0,530.4744,1,3,09_01_2014 level23_spatial_Clio 10_52 Block3-59.txt,37,37
72,0,535.5373,0,730,2058,2857,4205,501,-15.0,200,0,0,536.2115,1,2,09_01_2014 level23_spatial_Clio 10_52 Block3-59.txt,37,37
73,0,544.3009,0,730,2058,2857,4205,701,-15.0,200,0,0,544.8191,1,0,09_01_2014 level23_spatial_Clio 10_52 Block3-59.txt,37,37
74,0,549.9475,0,730,2058,2857,4205,751,-15.0,200,0,0,550.6528,1,0,09_01_2014 level23_spatial_Clio 10_52 Block3-59.txt,37,37
75,0,555.2689,0,460,1105,2857,4205,601,-15.0,200,1,1,555.79,1,1,09_01_2014 level23_spatial_Clio 10_52 Block3-59.txt,37,37
76,0,562.2853,0,730,2058,2857,4205,901,-15.0,200,0,0,562.7793,1,1,09_01_2014 level23_spatial_Clio 10_52 Block3-59.txt,37,37
77,0,569.3382,0,460,1105,2857,4205,851,-15.0,200,1,1,569.5913,1,2,09_01_2014 level23_spatial_Clio 10_52 Block3-59.txt,37,37
78,0,574.3945,0,730,2058,2857,4205,701,-15.0,200,0,0,575.0816,1,2,09_01_2014 level23_spatial_Clio 10_52 Block3-59.txt,37,37
79,0,579.1636,0,730,2058,2857,4205,601,-15.0,200,0,0,579.7004,1,3,09_01_2014 level23_spatial_Clio 10_52 Block3-59.txt,37,37
80,0,589.4133,0,730,2058,2857,4205,751,-15.0,200,0,0,589.9057,1,0,09_01_2014 level23_spatial_Clio 10_52 Block3-59.txt,37,37
81,0,598.293,0,460,1105,2857,4205,901,-15.0,200,1,1,598.4898,1,0,09_01_2014 level23_spatial_Clio 10_52 Block3-59.txt,37,37
82,0,605.8752,0,460,1105,2857,4205,851,-15.0,200,1,1,606.2703,1,1,09_01_2014 level23_spatial_Clio 10_52 Block3-59.txt,37,37
83,0,610.933,0,730,2058,2857,4205,801,-15.0,200,0,0,611.9828,1,1,09_01_2014 level23_spatial_Clio 10_52 Block3-59.txt,37,37
84,0,615.8534,0,730,2058,2857,4205,501,-15.0,200,0,0,616.3532,1,1,09_01_2014 level23_spatial_Clio 10_52 Block3-59.txt,37,37
85,0,620.0163,0,730,2058,2857,4205,551,-15.0,200,0,0,620.4051,1,3,09_01_2014 level23_spatial_Clio 10_52 Block3-59.txt,37,37
86,0,624.8975,0,460,1105,2857,4205,1001,-15.0,200,1,0,625.0888,0,0,09_01_2014 level23_spatial_Clio 10_52 Block3-59.txt,37,37
87,1,630.2578,0,460,1105,2857,4205,1001,-15.0,200,1,1,630.6069,1,0,09_01_2014 level23_spatial_Clio 10_52 Block3-59.txt,37,37
88,0,634.8683,0,460,1105,2857,4205,951,-15.0,200,1,1,635.2425,1,3,09_01_2014 level23_spatial_Clio 10_52 Block3-59.txt,37,37
89,0,639.0578,0,460,1105,2857,4205,601,-15.0,200,1,0,639.9484,0,2,09_01_2014 level23_spatial_Clio 10_52 Block3-59.txt,37,37
90,1,643.885,0,460,1105,2857,4205,601,-15.0,200,1,1,644.3049,1,2,09_01_2014 level23_spatial_Clio 10_52 Block3-59.txt,37,37
91,0,649.5878,0,460,1105,2857,4205,901,-15.0,200,1,1,649.7602,1,3,09_01_2014 level23_spatial_Clio 10_52 Block3-59.txt,37,37
92,0,653.6665,0,460,1105,2857,4205,751,-15.0,200,1,1,654.2402,1,1,09_01_2014 level23_spatial_Clio 10_52 Block3-59.txt,37,37
93,0,658.0592,0,730,2058,2857,4205,551,-15.0,200,0,1,658.6647,0,3,09_01_2014 level23_spatial_Clio 10_52 Block3-59.txt,37,37
94,1,664.5312,0,730,2058,2857,4205,551,-15.0,200,0,0,665.2558,1,3,09_01_2014 level23_spatial_Clio 10_52 Block3-59.txt,37,37
95,0,671.286,0,460,1105,2857,4205,851,-15.0,200,1,0,671.7654,0,3,09_01_2014 level23_spatial_Clio 10_52 Block3-59.txt,37,37
96,1,682.0128,0,460,1105,2857,4205,851,-15.0,200,1,1,682.3668,1,3,09_01_2014 level23_spatial_Clio 10_52 Block3-59.txt,37,37
97,0,687.4467,0,460,1105,2857,4205,951,-15.0,200,1,0,687.863,0,1,09_01_2014 level23_spatial_Clio 10_52 Block3-59.txt,37,37
98,1,697.7602,0,460,1105,2857,4205,951,-15.0,200,1,1,698.5939,1,1,09_01_2014 level23_spatial_Clio 10_52 Block3-59.txt,37,37
99,0,703.1204,0,730,2058,2857,4205,801,-15.0,200,0,0,703.8313,1,0,09_01_2014 level23_spatial_Clio 10_52 Block3-59.txt,37,37
100,0,713.6369,0,460,1105,2857,4205,1001,-15.0,200,1,0,714.154,0,0,09_01_2014 level23_spatial_Clio 10_52 Block3-59.txt,37,37
101,1,719.6956,0,460,1105,2857,4205,1001,-15.0,200,1,0,720.2697,0,0,09_01_2014 level23_spatial_Clio 10_52 Block3-59.txt,37,37
102,1,724.9236,0,460,1105,2857,4205,1001,-15.0,200,1,1,726.2225,1,0,09_01_2014 level23_spatial_Clio 10_52 Block3-59.txt,37,37
103,0,732.4676,0,460,1105,2857,4205,701,-15.0,200,1,0,733.195,0,2,09_01_2014 level23_spatial_Clio 10_52 Block3-59.txt,37,37
104,1,738.2272,0,460,1105,2857,4205,701,-15.0,200,1,1,738.7143,1,2,09_01_2014 level23_spatial_Clio 10_52 Block3-59.txt,37,37
105,0,742.1187,0,730,2058,2857,4205,501,-15.0,200,0,0,743.1066,1,2,09_01_2014 level23_spatial_Clio 10_52 Block3-59.txt,37,37
106,0,749.7152,1,730,2058,2857,4205,751,-15.0,200,0,0,750.3924,1,0,09_01_2014 level23_spatial_Clio 10_52 Block3-59.txt,37,37
107,0,754.9653,0,730,2058,2857,4205,801,-15.0,200,0,0,760.8136,1,2,09_01_2014 level23_spatial_Clio 10_52 Block3-59.txt,37,37
108,0,764.983,0,730,2058,2857,4205,851,-15.0,200,0,1,766.9847,0,0,09_01_2014 level23_spatial_Clio 10_52 Block3-59.txt,37,37
109,1,771.4967,0,730,2058,2857,4205,851,-15.0,200,0,0,772.5489,1,0,09_01_2014 level23_spatial_Clio 10_52 Block3-59.txt,37,37
110,0,776.5451,0,460,1105,2857,4205,601,-15.0,200,1,1,776.8984,1,3,09_01_2014 level23_spatial_Clio 10_52 Block3-59.txt,37,37
111,0,783.1765,0,730,2058,2857,4205,501,-15.0,200,0,0,784.4547,1,3,09_01_2014 level23_spatial_Clio 10_52 Block3-59.txt,37,37
112,0,788.0871,0,730,2058,2857,4205,551,-15.0,200,0,0,788.7516,1,3,09_01_2014 level23_spatial_Clio 10_52 Block3-59.txt,37,37
113,0,798.0451,0,460,1105,2857,4205,1001,-15.0,200,1,0,798.6357,0,2,09_01_2014 level23_spatial_Clio 10_52 Block3-59.txt,37,37
114,1,807.6556,0,460,1105,2857,4205,1001,-15.0,200,1,1,807.954,1,2,09_01_2014 level23_spatial_Clio 10_52 Block3-59.txt,37,37
115,0,813.764,1,730,2058,2857,4205,951,-15.0,200,0,0,814.2696,1,3,09_01_2014 level23_spatial_Clio 10_52 Block3-59.txt,37,37
116,0,818.5358,0,460,1105,2857,4205,651,-15.0,200,1,0,825.2303,0,1,09_01_2014 level23_spatial_Clio 10_52 Block3-59.txt,37,37
117,1,829.8901,0,460,1105,2857,4205,651,-15.0,200,1,1,830.3881,1,1,09_01_2014 level23_spatial_Clio 10_52 Block3-59.txt,37,37
118,0,833.8469,0,460,1105,2857,4205,701,-15.0,200,1,0,834.525,0,0,09_01_2014 level23_spatial_Clio 10_52 Block3-59.txt,37,37
119,1,838.5915,0,460,1105,2857,4205,701,-15.0,200,1,1,838.9797,1,0,09_01_2014 level23_spatial_Clio 10_52 Block3-59.txt,37,37
120,0,843.453,0,730,2058,2857,4205,1001,-15.0,200,0,0,843.8197,1,1,09_01_2014 level23_spatial_Clio 10_52 Block3-59.txt,37,37
121,0,847.8031,0,730,2058,2857,4205,751,-15.0,200,0,0,848.363,1,2,09_01_2014 level23_spatial_Clio 10_52 Block3-59.txt,37,37
122,0,852.3804,0,730,2058,2857,4205,701,-15.0,200,0,0,853.0715,1,0,09_01_2014 level23_spatial_Clio 10_52 Block3-59.txt,37,37
123,0,856.9559,0,730,2058,2857,4205,551,-15.0,200,0,0,858.0635,1,0,09_01_2014 level23_spatial_Clio 10_52 Block3-59.txt,37,37
124,0,864.8705,0,460,1105,2857,4205,901,-15.0,200,1,1,865.4787,1,1,09_01_2014 level23_spatial_Clio 10_52 Block3-59.txt,37,37
125,0,868.9596,1,730,2058,2857,4205,651,-15.0,200,0,0,869.8381,1,1,09_01_2014 level23_spatial_Clio 10_52 Block3-59.txt,37,37
126,0,873.5118,0,460,1105,2857,4205,501,-15.0,200,1,0,879.3288,0,3,09_01_2014 level23_spatial_Clio 10_52 Block3-59.txt,37,37
127,1,884.0403,0,460,1105,2857,4205,501,-15.0,200,1,1,884.5328,1,3,09_01_2014 level23_spatial_Clio 10_52 Block3-59.txt,37,37
128,0,888.0348,0,730,2058,2857,4205,601,-15.0,200,0,0,888.8535,1,2,09_01_2014 level23_spatial_Clio 10_52 Block3-59.txt,37,37
129,0,892.8424,0,460,1105,2857,4205,851,-15.0,200,1,0,893.5196,0,1,09_01_2014 level23_spatial_Clio 10_52 Block3-59.txt,37,37
130,1,907.9094,0,460,1105,2857,4205,851,-15.0,200,1,1,908.1713,1,1,09_01_2014 level23_spatial_Clio 10_52 Block3-59.txt,37,37
131,0,913.9807,0,730,2058,2857,4205,801,-15.0,200,0,0,915.849,1,1,09_01_2014 level23_spatial_Clio 10_52 Block3-59.txt,37,37
132,0,920.1258,0,730,2058,2857,4205,701,-15.0,200,0,0,920.5092,1,2,09_01_2014 level23_spatial_Clio 10_52 Block3-59.txt,37,37
133,0,927.9965,0,460,1105,2857,4205,851,-15.0,200,1,0,928.8232,0,0,09_01_2014 level23_spatial_Clio 10_52 Block3-59.txt,37,37
134,1,933.9841,0,460,1105,2857,4205,851,-15.0,200,1,0,934.8474,0,0,09_01_2014 level23_spatial_Clio 10_52 Block3-59.txt,37,37
135,1,942.4193,0,460,1105,2857,4205,851,-15.0,200,1,1,942.8147,1,0,09_01_2014 level23_spatial_Clio 10_52 Block3-59.txt,37,37
136,0,947.2718,0,460,1105,2857,4205,651,-15.0,200,1,0,948.2573,0,2,09_01_2014 level23_spatial_Clio 10_52 Block3-59.txt,37,37
137,1,955.4547,0,460,1105,2857,4205,651,-15.0,200,1,1,955.8433,1,2,09_01_2014 level23_spatial_Clio 10_52 Block3-59.txt,37,37
138,0,961.3157,0,460,1105,2857,4205,751,-15.0,200,1,1,961.7053,1,3,09_01_2014 level23_spatial_Clio 10_52 Block3-59.txt,37,37
139,0,965.3715,0,460,1105,2857,4205,601,-15.0,200,1,1,966.2652,1,2,09_01_2014 level23_spatial_Clio 10_52 Block3-59.txt,37,37
140,0,970.9032,0,460,1105,2857,4205,1001,-15.0,200,1,1,971.0807,1,0,09_01_2014 level23_spatial_Clio 10_52 Block3-59.txt,37,37
141,0,975.6203,0,460,1105,2857,4205,501,-15.0,200,1,1,976.3842,1,0,09_01_2014 level23_spatial_Clio 10_52 Block3-59.txt,37,37
142,0,983.0204,1,460,1105,2857,4205,951,-15.0,200,1,1,983.4323,1,3,09_01_2014 level23_spatial_Clio 10_52 Block3-59.txt,37,37
143,0,987.5413,0,730,2058,2857,4205,801,-15.0,200,0,1,991.6077,0,3,09_01_2014 level23_spatial_Clio 10_52 Block3-59.txt,37,37
144,1,997.3181,0,730,2058,2857,4205,801,-15.0,200,0,0,997.7034,1,3,09_01_2014 level23_spatial_Clio 10_52 Block3-59.txt,37,37
145,0,1001.0672,0,730,2058,2857,4205,551,-15.0,200,0,0,1001.6064,1,0,09_01_2014 level23_spatial_Clio 10_52 Block3-59.txt,37,37
146,0,1006.0406,0,730,2058,2857,4205,601,-15.0,200,0,0,1006.6504,1,0,09_01_2014 level23_spatial_Clio 10_52 Block3-59.txt,37,37
147,0,1010.4724,0,460,1105,2857,4205,701,-15.0,200,1,1,1010.8281,1,2,09_01_2014 level23_spatial_Clio 10_52 Block3-59.txt,37,37
148,0,1016.0107,0,730,2058,2857,4205,501,-15.0,200,0,0,1018.0708,1,1,09_01_2014 level23_spatial_Clio 10_52 Block3-59.txt,37,37
149,0,1022.2503,0,460,1105,2857,4205,851,-15.0,200,1,1,1022.4583,1,0,09_01_2014 level23_spatial_Clio 10_52 Block3-59.txt,37,37
150,0,1030.6266,0,730,2058,2857,4205,1001,-15.0,200,0,0,1031.1116,1,2,09_01_2014 level23_spatial_Clio 10_52 Block3-59.txt,37,37
151,0,1034.6496,0,460,1105,2857,4205,901,-15.0,200,1,1,1034.8985,1,1,09_01_2014 level23_spatial_Clio 10_52 Block3-59.txt,37,37
152,0,1047.2042,0,730,2058,2857,4205,801,-15.0,200,0,1,1047.4793,0,2,09_01_2014 level23_spatial_Clio 10_52 Block3-59.txt,37,37
153,1,1062.4279,0,730,2058,2857,4205,801,-15.0,200,0,0,1070.6898,1,2,09_01_2014 level23_spatial_Clio 10_52 Block3-59.txt,37,37
154,0,1073.8848,0,460,1105,2857,4205,551,-15.0,200,1,1,1074.3005,1,1,09_01_2014 level23_spatial_Clio 10_52 Block3-59.txt,37,37
1,0,5.454,0,460,1105,2857,4205,651,-15.0,200,1,1,6.3242,1,4,20_03_2014 level23_spatial_Clio 09_42 Block4-29.txt,37,37
2,0,12.0601,0,460,1105,2857,4205,901,-15.0,200,1,1,12.3761,1,4,20_03_2014 level23_spatial_Clio 09_42 Block4-29.txt,37,37
3,0,17.9571,0,460,1105,2857,4205,551,-15.0,200,1,1,18.3762,1,2,20_03_2014 level23_spatial_Clio 09_42 Block4-29.txt,37,37
4,0,29.0218,0,730,2058,2857,4205,1001,-15.0,200,0,1,29.2863,0,3,20_03_2014 level23_spatial_Clio 09_42 Block4-29.txt,37,37
5,1,36.0437,0,730,2058,2857,4205,1001,-15.0,200,0,1,37.8799,0,3,20_03_2014 level23_spatial_Clio 09_42 Block4-29.txt,37,37
6,1,50.062,0,730,2058,2857,4205,1001,-15.0,200,0,0,50.8107,1,3,20_03_2014 level23_spatial_Clio 09_42 Block4-29.txt,37,37
7,0,56.446,1,730,2058,2857,4205,751,-15.0,200,0,0,56.7733,1,3,20_03_2014 level23_spatial_Clio 09_42 Block4-29.txt,37,37
8,0,69.2532,0,730,2058,2857,4205,951,-15.0,200,0,0,69.7973,1,0,20_03_2014 level23_spatial_Clio 09_42 Block4-29.txt,37,37
9,0,79.8462,0,730,2058,2857,4205,801,-15.0,200,0,0,80.5394,1,0,20_03_2014 level23_spatial_Clio 09_42 Block4-29.txt,37,37
10,0,86.4781,0,460,1105,2857,4205,601,-15.0,200,1,0,87.1505,0,3,20_03_2014 level23_spatial_Clio 09_42 Block4-29.txt,37,37
11,1,91.6926,0,460,1105,2857,4205,601,-15.0,200,1,1,92.0324,1,3,20_03_2014 level23_spatial_Clio 09_42 Block4-29.txt,37,37
12,0,95.9357,0,460,1105,2857,4205,501,-15.0,200,1,1,96.6079,1,0,20_03_2014 level23_spatial_Clio 09_42 Block4-29.txt,37,37
13,0,101.131,0,460,1105,2857,4205,851,-15.0,200,1,0,101.6174,0,3,20_03_2014 level23_spatial_Clio 09_42 Block4-29.txt,37,37
14,1,107.0701,1,460,1105,2857,4205,851,-15.0,200,1,0,107.4227,0,3,20_03_2014 level23_spatial_Clio 09_42 Block4-29.txt,37,37
15,1,114.9701,1,460,1105,2857,4205,851,-15.0,200,1,1,115.5648,1,3,20_03_2014 level23_spatial_Clio 09_42 Block4-29.txt,37,37
16,0,119.6278,0,460,1105,2857,4205,801,-15.0,200,1,1,121.9261,1,4,20_03_2014 level23_spatial_Clio 09_42 Block4-29.txt,37,37
17,0,125.7901,0,730,2058,2857,4205,701,-15.0,200,0,1,126.2091,0,1,20_03_2014 level23_spatial_Clio 09_42 Block4-29.txt,37,37
18,1,131.9235,0,730,2058,2857,4205,701,-15.0,200,0,1,132.4161,0,1,20_03_2014 level23_spatial_Clio 09_42 Block4-29.txt,37,37
19,1,137.8994,0,730,2058,2857,4205,701,-15.0,200,0,0,139.1468,1,1,20_03_2014 level23_spatial_Clio 09_42 Block4-29.txt,37,37
20,0,153.086,0,460,1105,2857,4205,901,-15.0,200,1,1,153.4146,1,2,20_03_2014 level23_spatial_Clio 09_42 Block4-29.txt,37,37
21,0,158.2328,0,460,1105,2857,4205,851,-15.0,200,1,1,158.6804,1,5,20_03_2014 level23_spatial_Clio 09_42 Block4-29.txt,37,37
22,0,162.8541,0,730,2058,2857,4205,951,-15.0,200,0,1,163.1817,0,2,20_03_2014 level23_spatial_Clio 09_42 Block4-29.txt,37,37
23,1,167.5532,0,730,2058,2857,4205,951,-15.0,200,0,0,168.007,1,2,20_03_2014 level23_spatial_Clio 09_42 Block4-29.txt,37,37
24,0,172.3288,0,730,2058,2857,4205,651,-15.0,200,0,0,172.806,1,4,20_03_2014 level23_spatial_Clio 09_42 Block4-29.txt,37,37
25,0,176.6155,0,730,2058,2857,4205,501,-15.0,200,0,0,177.2634,1,4,20_03_2014 level23_spatial_Clio 09_42 Block4-29.txt,37,37
26,0,189.856,0,730,2058,2857,4205,1001,-15.0,200,0,0,190.1856,1,0,20_03_2014 level23_spatial_Clio 09_42 Block4-29.txt,37,37
27,0,194.802,0,730,2058,2857,4205,551,-15.0,200,0,1,195.58,0,1,20_03_2014 level23_spatial_Clio 09_42 Block4-29.txt,37,37
28,1,199.7087,0,730,2058,2857,4205,551,-15.0,200,0,1,200.2874,0,1,20_03_2014 level23_spatial_Clio 09_42 Block4-29.txt,37,37
29,1,204.4653,0,730,2058,2857,4205,551,-15.0,200,0,1,205.4553,0,1,20_03_2014 level23_spatial_Clio 09_42 Block4-29.txt,37,37
30,1,209.7134,0,730,2058,2857,4205,551,-15.0,200,0,0,210.2192,1,1,20_03_2014 level23_spatial_Clio 09_42 Block4-29.txt,37,37
31,0,215.1717,1,730,2058,2857,4205,601,-15.0,200,0,1,215.9228,0,5,20_03_2014 level23_spatial_Clio 09_42 Block4-29.txt,37,37
32,1,222.7473,0,730,2058,2857,4205,601,-15.0,200,0,1,223.304,0,5,20_03_2014 level23_spatial_Clio 09_42 Block4-29.txt,37,37
33,1,227.6718,0,730,2058,2857,4205,601,-15.0,200,0,0,228.3469,1,5,20_03_2014 level23_spatial_Clio 09_42 Block4-29.txt,37,37
34,0,232.8219,0,460,1105,2857,4205,801,-15.0,200,1,0,233.2356,0,1,20_03_2014 level23_spatial_Clio 09_42 Block4-29.txt,37,37
35,1,238.0166,0,460,1105,2857,4205,801,-15.0,200,1,0,238.6457,0,1,20_03_2014 level23_spatial_Clio 09_42 Block4-29.txt,37,37
36,1,242.8769,0,460,1105,2857,4205,801,-15.0,200,1,1,243.2301,1,1,20_03_2014 level23_spatial_Clio 09_42 Block4-29.txt,37,37
37,0,255.7923,0,730,2058,2857,4205,1001,-15.0,200,0,0,256.3639,1,3,20_03_2014 level23_spatial_Clio 09_42 Block4-29.txt,37,37
