Trial,CorrectionTrial,StartTime,CenterReward,F1,F2,F3,F4,HoldTime,Atten,Pitch,Side,Response,RespTime,Correct,SpatialMask,Mask,originalFile,LeftTemperature,RightTemperature
1,0,12.287,0,437,2761,2975,4263,576,-11.3,200,0,0,12.9087,1,5,,27_11_2014 level23_spatial_Mini 09_32 log.txt,37,37
2,0,20.3939,0,936,1551,2975,4263,626,-11.3,200,1,0,20.7317,0,1,,27_11_2014 level23_spatial_Mini 09_32 log.txt,37,37
3,1,27.0817,0,936,1551,2975,4263,626,-11.3,200,1,0,28.0524,0,1,,27_11_2014 level23_spatial_Mini 09_32 log.txt,37,37
4,1,34.9309,0,936,1551,2975,4263,626,-11.3,200,1,1,35.6662,1,1,,27_11_2014 level23_spatial_Mini 09_32 log.txt,37,37
5,0,42.0879,0,437,2761,2975,4263,501,-10.0,200,0,0,42.7145,1,5,,27_11_2014 level23_spatial_Mini 09_32 log.txt,37,37
6,0,47.0409,0,936,1551,2975,4263,726,-12.5,200,1,0,47.4917,0,2,,27_11_2014 level23_spatial_Mini 09_32 log.txt,37,37
7,1,58.8421,0,936,1551,2975,4263,726,-12.5,200,1,0,59.4841,0,2,,27_11_2014 level23_spatial_Mini 09_32 log.txt,37,37
8,1,67.7714,0,936,1551,2975,4263,726,-12.5,200,1,0,68.476,0,2,,27_11_2014 level23_spatial_Mini 09_32 log.txt,37,37
9,1,77.5373,0,936,1551,2975,4263,726,-12.5,200,1,1,78.2295,1,2,,27_11_2014 level23_spatial_Mini 09_32 log.txt,37,37
10,0,84.7535,0,936,1551,2975,4263,526,-12.5,200,1,1,85.3159,1,1,,27_11_2014 level23_spatial_Mini 09_32 log.txt,37,37
11,0,91.0703,0,936,1551,2975,4263,701,-12.5,200,1,1,91.8121,1,4,,27_11_2014 level23_spatial_Mini 09_32 log.txt,37,37
12,0,101.7852,0,437,2761,2975,4263,601,-10.0,200,0,0,102.55,1,3,,27_11_2014 level23_spatial_Mini 09_32 log.txt,37,37
13,0,112.7718,0,437,2761,2975,4263,751,-11.3,200,0,0,113.4605,1,4,,27_11_2014 level23_spatial_Mini 09_32 log.txt,37,37
14,0,118.002,0,936,1551,2975,4263,651,-15.0,200,1,1,118.5504,1,4,,27_11_2014 level23_spatial_Mini 09_32 log.txt,37,37
15,0,124.2897,1,437,2761,2975,4263,676,-12.5,200,0,0,124.7889,1,4,,27_11_2014 level23_spatial_Mini 09_32 log.txt,37,37
16,0,129.9123,0,437,2761,2975,4263,726,-15.0,200,0,0,130.1716,1,3,,27_11_2014 level23_spatial_Mini 09_32 log.txt,37,37
17,0,134.8299,0,936,1551,2975,4263,751,-15.0,200,1,1,135.3295,1,3,,27_11_2014 level23_spatial_Mini 09_32 log.txt,37,37
18,0,140.5874,0,437,2761,2975,4263,601,-13.8,200,0,0,141.5767,1,3,,27_11_2014 level23_spatial_Mini 09_32 log.txt,37,37
19,0,147.1293,0,437,2761,2975,4263,651,-15.0,200,0,0,147.5257,1,4,,27_11_2014 level23_spatial_Mini 09_32 log.txt,37,37
20,0,152.0834,0,936,1551,2975,4263,526,-10.0,200,1,1,152.5542,1,4,,27_11_2014 level23_spatial_Mini 09_32 log.txt,37,37
21,0,158.7088,0,936,1551,2975,4263,701,-10.0,200,1,0,159.0599,0,0,,27_11_2014 level23_spatial_Mini 09_32 log.txt,37,37
22,1,165.8925,0,936,1551,2975,4263,701,-10.0,200,1,1,166.6843,1,0,,27_11_2014 level23_spatial_Mini 09_32 log.txt,37,37
23,0,172.7781,0,437,2761,2975,4263,501,-13.8,200,0,0,173.2685,1,4,,27_11_2014 level23_spatial_Mini 09_32 log.txt,37,37
24,0,178.0394,0,437,2761,2975,4263,626,-13.8,200,0,0,178.3884,1,1,,27_11_2014 level23_spatial_Mini 09_32 log.txt,37,37
25,0,182.9536,0,936,1551,2975,4263,676,-10.0,200,1,1,183.409,1,1,,27_11_2014 level23_spatial_Mini 09_32 log.txt,37,37
26,0,189.7799,0,437,2761,2975,4263,576,-11.3,200,0,0,190.1397,1,3,,27_11_2014 level23_spatial_Mini 09_32 log.txt,37,37
27,0,193.9824,0,936,1551,2975,4263,601,-11.3,200,1,1,194.5985,1,5,,27_11_2014 level23_spatial_Mini 09_32 log.txt,37,37
28,0,205.4258,0,437,2761,2975,4263,726,-15.0,200,0,0,205.934,1,5,,27_11_2014 level23_spatial_Mini 09_32 log.txt,37,37
29,0,209.5056,0,936,1551,2975,4263,626,-11.3,200,1,1,209.9794,1,4,,27_11_2014 level23_spatial_Mini 09_32 log.txt,37,37
30,0,215.4273,0,936,1551,2975,4263,751,-11.3,200,1,1,216.2177,1,2,,27_11_2014 level23_spatial_Mini 09_32 log.txt,37,37
31,0,222.2315,0,936,1551,2975,4263,676,-12.5,200,1,1,222.9271,1,5,,27_11_2014 level23_spatial_Mini 09_32 log.txt,37,37
32,0,227.8006,1,936,1551,2975,4263,526,-13.8,200,1,0,228.3494,0,0,,27_11_2014 level23_spatial_Mini 09_32 log.txt,37,37
33,1,236.7993,0,936,1551,2975,4263,526,-13.8,200,1,1,237.7048,1,0,,27_11_2014 level23_spatial_Mini 09_32 log.txt,37,37
34,0,251.8063,0,936,1551,2975,4263,651,-11.3,200,1,1,252.5729,1,3,,27_11_2014 level23_spatial_Mini 09_32 log.txt,37,37
35,0,259.8157,0,936,1551,2975,4263,551,-13.8,200,1,0,260.7939,0,3,,27_11_2014 level23_spatial_Mini 09_32 log.txt,37,37
36,1,268.1632,0,936,1551,2975,4263,551,-13.8,200,1,1,268.971,1,3,,27_11_2014 level23_spatial_Mini 09_32 log.txt,37,37
37,0,274.4379,1,437,2761,2975,4263,576,-10.0,200,0,0,275.3196,1,0,,27_11_2014 level23_spatial_Mini 09_32 log.txt,37,37
38,0,278.671,0,936,1551,2975,4263,501,-15.0,200,1,1,280.4366,1,2,,27_11_2014 level23_spatial_Mini 09_32 log.txt,37,37
39,0,286.6621,0,936,1551,2975,4263,501,-15.0,200,1,1,287.4708,1,5,,27_11_2014 level23_spatial_Mini 09_32 log.txt,37,37
40,0,296.5183,0,936,1551,2975,4263,576,-13.8,200,1,0,297.2429,0,4,,27_11_2014 level23_spatial_Mini 09_32 log.txt,37,37
41,1,306.794,0,936,1551,2975,4263,576,-13.8,200,1,0,307.6773,0,4,,27_11_2014 level23_spatial_Mini 09_32 log.txt,37,37
42,1,315.7462,1,936,1551,2975,4263,576,-13.8,200,1,1,318.8403,1,4,,27_11_2014 level23_spatial_Mini 09_32 log.txt,37,37
43,0,324.1303,0,437,2761,2975,4263,526,-11.3,200,0,0,324.7558,1,0,,27_11_2014 level23_spatial_Mini 09_32 log.txt,37,37
44,0,329.0795,0,936,1551,2975,4263,751,-15.0,200,1,1,329.9601,1,0,,27_11_2014 level23_spatial_Mini 09_32 log.txt,37,37
45,0,334.7678,0,437,2761,2975,4263,601,-13.8,200,0,0,335.2366,1,5,,27_11_2014 level23_spatial_Mini 09_32 log.txt,37,37
46,0,339.1906,0,437,2761,2975,4263,626,-12.5,200,0,0,339.6444,1,1,,27_11_2014 level23_spatial_Mini 09_32 log.txt,37,37
47,0,344.6583,0,437,2761,2975,4263,726,-13.8,200,0,1,345.1628,0,0,,27_11_2014 level23_spatial_Mini 09_32 log.txt,37,37
48,1,354.6195,0,437,2761,2975,4263,726,-13.8,200,0,1,355.4601,0,0,,27_11_2014 level23_spatial_Mini 09_32 log.txt,37,37
49,1,361.508,0,437,2761,2975,4263,726,-13.8,200,0,0,361.798,1,0,,27_11_2014 level23_spatial_Mini 09_32 log.txt,37,37
50,0,366.5752,0,936,1551,2975,4263,651,-13.8,200,1,1,367.3285,1,5,,27_11_2014 level23_spatial_Mini 09_32 log.txt,37,37
51,0,373.9321,0,437,2761,2975,4263,551,-15.0,200,0,0,374.3429,1,2,,27_11_2014 level23_spatial_Mini 09_32 log.txt,37,37
52,0,379.5887,0,437,2761,2975,4263,701,-12.5,200,0,0,379.957,1,0,,27_11_2014 level23_spatial_Mini 09_32 log.txt,37,37
53,0,384.7856,0,936,1551,2975,4263,651,-13.8,200,1,1,385.4254,1,1,,27_11_2014 level23_spatial_Mini 09_32 log.txt,37,37
54,0,391.911,0,437,2761,2975,4263,551,-12.5,200,0,0,392.2111,1,2,,27_11_2014 level23_spatial_Mini 09_32 log.txt,37,37
55,0,397.6348,0,936,1551,2975,4263,576,-12.5,200,1,1,398.146,1,0,,27_11_2014 level23_spatial_Mini 09_32 log.txt,37,37
56,0,404.8854,0,936,1551,2975,4263,626,-15.0,200,1,0,405.7742,0,1,,27_11_2014 level23_spatial_Mini 09_32 log.txt,37,37
57,1,414.6593,1,936,1551,2975,4263,626,-15.0,200,1,1,415.2508,1,1,,27_11_2014 level23_spatial_Mini 09_32 log.txt,37,37
58,0,421.8559,0,437,2761,2975,4263,676,-10.0,200,0,0,423.412,1,1,,27_11_2014 level23_spatial_Mini 09_32 log.txt,37,37
59,0,429.3091,1,936,1551,2975,4263,726,-10.0,200,1,1,429.8141,1,3,,27_11_2014 level23_spatial_Mini 09_32 log.txt,37,37
60,0,434.7103,1,437,2761,2975,4263,501,-10.0,200,0,0,436.8458,1,2,,27_11_2014 level23_spatial_Mini 09_32 log.txt,37,37
61,0,442.1553,0,936,1551,2975,4263,751,-11.3,200,1,1,443.2676,1,0,,27_11_2014 level23_spatial_Mini 09_32 log.txt,37,37
62,0,450.6001,0,936,1551,2975,4263,526,-10.0,200,1,1,451.5394,1,5,,27_11_2014 level23_spatial_Mini 09_32 log.txt,37,37
63,0,458.0293,0,936,1551,2975,4263,601,-12.5,200,1,0,458.581,0,3,,27_11_2014 level23_spatial_Mini 09_32 log.txt,37,37
64,1,465.9463,0,936,1551,2975,4263,601,-12.5,200,1,1,466.9117,1,3,,27_11_2014 level23_spatial_Mini 09_32 log.txt,37,37
65,0,473.5626,0,437,2761,2975,4263,751,-15.0,200,0,0,473.9613,1,1,,27_11_2014 level23_spatial_Mini 09_32 log.txt,37,37
66,0,479.2895,0,936,1551,2975,4263,601,-13.8,200,1,1,479.708,1,2,,27_11_2014 level23_spatial_Mini 09_32 log.txt,37,37
67,0,486.073,0,437,2761,2975,4263,651,-12.5,200,0,0,486.6977,1,5,,27_11_2014 level23_spatial_Mini 09_32 log.txt,37,37
68,0,490.9944,0,936,1551,2975,4263,701,-10.0,200,1,1,491.5651,1,2,,27_11_2014 level23_spatial_Mini 09_32 log.txt,37,37
69,0,497.6359,0,437,2761,2975,4263,626,-11.3,200,0,1,498.9415,0,1,,27_11_2014 level23_spatial_Mini 09_32 log.txt,37,37
70,1,506.7653,1,437,2761,2975,4263,626,-11.3,200,0,0,508.324,1,1,,27_11_2014 level23_spatial_Mini 09_32 log.txt,37,37
71,0,512.8521,1,437,2761,2975,4263,676,-13.8,200,0,0,513.3273,1,2,,27_11_2014 level23_spatial_Mini 09_32 log.txt,37,37
72,0,517.4901,0,437,2761,2975,4263,726,-12.5,200,0,0,518.7478,1,3,,27_11_2014 level23_spatial_Mini 09_32 log.txt,37,37
73,0,522.6578,0,437,2761,2975,4263,551,-10.0,200,0,0,523.6558,1,4,,27_11_2014 level23_spatial_Mini 09_32 log.txt,37,37
74,0,528.0866,0,437,2761,2975,4263,526,-11.3,200,0,0,528.6745,1,2,,27_11_2014 level23_spatial_Mini 09_32 log.txt,37,37
75,0,533.8532,0,437,2761,2975,4263,576,-15.0,200,0,0,534.7484,1,0,,27_11_2014 level23_spatial_Mini 09_32 log.txt,37,37
76,0,541.4641,0,437,2761,2975,4263,501,-12.5,200,0,0,541.8928,1,1,,27_11_2014 level23_spatial_Mini 09_32 log.txt,37,37
77,0,546.6303,0,936,1551,2975,4263,626,-12.5,200,1,1,547.2204,1,4,,27_11_2014 level23_spatial_Mini 09_32 log.txt,37,37
78,0,552.9564,0,437,2761,2975,4263,526,-11.3,200,0,0,553.5314,1,3,,27_11_2014 level23_spatial_Mini 09_32 log.txt,37,37
79,0,557.9944,0,437,2761,2975,4263,701,-15.0,200,0,0,558.3542,1,3,,27_11_2014 level23_spatial_Mini 09_32 log.txt,37,37
80,0,562.0656,0,936,1551,2975,4263,601,-12.5,200,1,1,562.7463,1,0,,27_11_2014 level23_spatial_Mini 09_32 log.txt,37,37
81,0,570.5357,0,437,2761,2975,4263,751,-13.8,200,0,0,571.2731,1,0,,27_11_2014 level23_spatial_Mini 09_32 log.txt,37,37
82,0,576.3913,0,936,1551,2975,4263,551,-12.5,200,1,0,578.4855,0,1,,27_11_2014 level23_spatial_Mini 09_32 log.txt,37,37
83,1,584.5286,0,936,1551,2975,4263,551,-12.5,200,1,1,585.394,1,1,,27_11_2014 level23_spatial_Mini 09_32 log.txt,37,37
84,0,591.8337,0,936,1551,2975,4263,676,-11.3,200,1,1,592.4061,1,2,,27_11_2014 level23_spatial_Mini 09_32 log.txt,37,37
85,0,598.818,0,437,2761,2975,4263,651,-13.8,200,0,0,599.4173,1,3,,27_11_2014 level23_spatial_Mini 09_32 log.txt,37,37
86,0,602.4641,0,437,2761,2975,4263,576,-15.0,200,0,0,602.8888,1,4,,27_11_2014 level23_spatial_Mini 09_32 log.txt,37,37
87,0,607.0154,0,437,2761,2975,4263,626,-13.8,200,0,0,607.4776,1,5,,27_11_2014 level23_spatial_Mini 09_32 log.txt,37,37
88,0,611.7154,0,936,1551,2975,4263,726,-10.0,200,1,1,612.2434,1,4,,27_11_2014 level23_spatial_Mini 09_32 log.txt,37,37
89,0,615.384,0,437,2761,2975,4263,551,-10.0,200,0,0,617.0587,1,5,,27_11_2014 level23_spatial_Mini 09_32 log.txt,37,37
90,0,620.7218,0,936,1551,2975,4263,501,-11.3,200,1,1,621.4244,1,5,,27_11_2014 level23_spatial_Mini 09_32 log.txt,37,37
91,0,625.1832,0,437,2761,2975,4263,651,-12.5,200,0,0,625.8922,1,4,,27_11_2014 level23_spatial_Mini 09_32 log.txt,37,37
92,0,630.6028,0,936,1551,2975,4263,751,-10.0,200,1,1,631.5728,1,5,,27_11_2014 level23_spatial_Mini 09_32 log.txt,37,37
93,0,635.2043,0,437,2761,2975,4263,701,-13.8,200,0,0,636.3247,1,1,,27_11_2014 level23_spatial_Mini 09_32 log.txt,37,37
94,0,639.9998,0,437,2761,2975,4263,526,-10.0,200,0,1,641.1949,0,2,,27_11_2014 level23_spatial_Mini 09_32 log.txt,37,37
95,1,650.1811,0,437,2761,2975,4263,526,-10.0,200,0,0,651.2003,1,2,,27_11_2014 level23_spatial_Mini 09_32 log.txt,37,37
96,0,655.3595,0,936,1551,2975,4263,576,-11.3,200,1,1,656.5677,1,3,,27_11_2014 level23_spatial_Mini 09_32 log.txt,37,37
97,0,675.1923,0,936,1551,2975,4263,676,-13.8,200,1,0,675.5497,0,0,,27_11_2014 level23_spatial_Mini 09_32 log.txt,37,37
1,0,6.7123,0,437,2761,2975,4263,503,-15.0,200,0,1,14.2356,0,0,,10_04_2014 level23_spatial_Mini 14_53 log.txt,37,37
2,1,25.9344,0,437,2761,2975,4263,503,-15.0,200,0,0,28.1245,1,0,,10_04_2014 level23_spatial_Mini 14_53 log.txt,37,37
3,0,33.1681,0,936,1551,2975,4263,506,-12.8,200,1,1,33.4757,1,1,,10_04_2014 level23_spatial_Mini 14_53 log.txt,37,37
4,0,36.8853,1,437,2761,2975,4263,508,-12.8,200,0,1,39.6119,0,5,,10_04_2014 level23_spatial_Mini 14_53 log.txt,37,37
5,1,50.5716,0,437,2761,2975,4263,508,-12.8,200,0,1,51.7006,0,5,,10_04_2014 level23_spatial_Mini 14_53 log.txt,37,37
6,1,58.1157,0,437,2761,2975,4263,508,-12.8,200,0,1,59.3682,0,5,,10_04_2014 level23_spatial_Mini 14_53 log.txt,37,37
7,1,63.3824,0,437,2761,2975,4263,508,-12.8,200,0,0,66.5852,1,5,,10_04_2014 level23_spatial_Mini 14_53 log.txt,37,37
8,0,71.3353,1,437,2761,2975,4263,509,-12.8,200,0,1,71.7893,0,1,,10_04_2014 level23_spatial_Mini 14_53 log.txt,37,37
9,1,83.4475,1,437,2761,2975,4263,509,-12.8,200,0,1,86.5947,0,1,,10_04_2014 level23_spatial_Mini 14_53 log.txt,37,37
10,1,97.9051,1,437,2761,2975,4263,509,-12.8,200,0,0,100.0975,1,1,,10_04_2014 level23_spatial_Mini 14_53 log.txt,37,37
11,0,105.4929,1,437,2761,2975,4263,501,-8.3,200,0,1,109.1706,0,2,,10_04_2014 level23_spatial_Mini 14_53 log.txt,37,37
12,1,111.3767,1,437,2761,2975,4263,501,-8.3,200,0,0,115.5982,1,2,,10_04_2014 level23_spatial_Mini 14_53 log.txt,37,37
13,0,122.1754,0,936,1551,2975,4263,510,-10.5,200,1,0,123.3845,0,1,,10_04_2014 level23_spatial_Mini 14_53 log.txt,37,37
14,1,126.8881,0,936,1551,2975,4263,510,-10.5,200,1,1,127.5267,1,1,,10_04_2014 level23_spatial_Mini 14_53 log.txt,37,37
15,0,131.1557,0,936,1551,2975,4263,507,-15.0,200,1,1,132.0218,1,4,,10_04_2014 level23_spatial_Mini 14_53 log.txt,37,37
16,0,135.3122,1,936,1551,2975,4263,505,-6.0,200,1,1,137.817,1,0,,10_04_2014 level23_spatial_Mini 14_53 log.txt,37,37
17,0,141.3174,1,437,2761,2975,4263,511,-8.3,200,0,1,144.92,0,5,,10_04_2014 level23_spatial_Mini 14_53 log.txt,37,37
18,1,149.3931,0,437,2761,2975,4263,511,-8.3,200,0,0,150.241,1,5,,10_04_2014 level23_spatial_Mini 14_53 log.txt,37,37
19,0,156.3275,0,437,2761,2975,4263,502,-10.5,200,0,1,157.2035,0,2,,10_04_2014 level23_spatial_Mini 14_53 log.txt,37,37
20,1,162.2043,0,437,2761,2975,4263,502,-10.5,200,0,0,162.63,1,2,,10_04_2014 level23_spatial_Mini 14_53 log.txt,37,37
21,0,169.7733,1,936,1551,2975,4263,510,-8.3,200,1,1,172.9527,1,5,,10_04_2014 level23_spatial_Mini 14_53 log.txt,37,37
22,0,176.6505,1,936,1551,2975,4263,508,-10.5,200,1,1,179.6371,1,4,,10_04_2014 level23_spatial_Mini 14_53 log.txt,37,37
23,0,182.4995,1,936,1551,2975,4263,504,-12.8,200,1,1,185.1443,1,0,,10_04_2014 level23_spatial_Mini 14_53 log.txt,37,37
24,0,188.4138,1,936,1551,2975,4263,511,-10.5,200,1,1,190.8445,1,0,,10_04_2014 level23_spatial_Mini 14_53 log.txt,37,37
25,0,193.8833,0,936,1551,2975,4263,502,-6.0,200,1,0,195.2509,0,1,,10_04_2014 level23_spatial_Mini 14_53 log.txt,37,37
26,1,197.7087,1,936,1551,2975,4263,502,-6.0,200,1,1,199.928,1,1,,10_04_2014 level23_spatial_Mini 14_53 log.txt,37,37
27,0,203.372,1,936,1551,2975,4263,503,-15.0,200,1,1,205.6745,1,2,,10_04_2014 level23_spatial_Mini 14_53 log.txt,37,37
28,0,209.014,0,437,2761,2975,4263,506,-8.3,200,0,0,210.4671,1,0,,10_04_2014 level23_spatial_Mini 14_53 log.txt,37,37
29,0,216.6952,1,437,2761,2975,4263,501,-12.8,200,0,1,219.2759,0,4,,10_04_2014 level23_spatial_Mini 14_53 log.txt,37,37
30,1,227.3141,0,437,2761,2975,4263,501,-12.8,200,0,0,229.3574,1,4,,10_04_2014 level23_spatial_Mini 14_53 log.txt,37,37
31,0,234.4539,0,936,1551,2975,4263,507,-8.3,200,1,1,235.2918,1,0,,10_04_2014 level23_spatial_Mini 14_53 log.txt,37,37
32,0,238.5881,1,936,1551,2975,4263,509,-15.0,200,1,1,240.1234,1,1,,10_04_2014 level23_spatial_Mini 14_53 log.txt,37,37
33,0,243.1748,1,936,1551,2975,4263,506,-6.0,200,1,1,244.81,1,5,,10_04_2014 level23_spatial_Mini 14_53 log.txt,37,37
34,0,248.2376,1,437,2761,2975,4263,503,-10.5,200,0,0,251.8923,1,0,,10_04_2014 level23_spatial_Mini 14_53 log.txt,37,37
35,0,259.1388,1,437,2761,2975,4263,505,-6.0,200,0,1,261.5892,0,1,,10_04_2014 level23_spatial_Mini 14_53 log.txt,37,37
36,1,268.0134,1,437,2761,2975,4263,505,-6.0,200,0,0,270.6583,1,1,,10_04_2014 level23_spatial_Mini 14_53 log.txt,37,37
37,0,279.1824,0,936,1551,2975,4263,508,-15.0,200,1,1,280.2952,1,3,,10_04_2014 level23_spatial_Mini 14_53 log.txt,37,37
38,0,283.6507,0,936,1551,2975,4263,511,-10.5,200,1,1,284.5101,1,3,,10_04_2014 level23_spatial_Mini 14_53 log.txt,37,37
39,0,287.0128,1,437,2761,2975,4263,509,-15.0,200,0,0,289.7195,1,3,,10_04_2014 level23_spatial_Mini 14_53 log.txt,37,37
40,0,295.8439,1,936,1551,2975,4263,502,-8.3,200,1,1,299.4335,1,4,,10_04_2014 level23_spatial_Mini 14_53 log.txt,37,37
41,0,302.487,1,437,2761,2975,4263,507,-10.5,200,0,1,305.3952,0,5,,10_04_2014 level23_spatial_Mini 14_53 log.txt,37,37
42,1,310.3816,0,437,2761,2975,4263,507,-10.5,200,0,1,311.6551,0,5,,10_04_2014 level23_spatial_Mini 14_53 log.txt,37,37
43,1,319.8863,0,437,2761,2975,4263,507,-10.5,200,0,0,321.5104,1,5,,10_04_2014 level23_spatial_Mini 14_53 log.txt,37,37
44,0,327.0896,1,437,2761,2975,4263,504,-6.0,200,0,0,328.9993,1,5,,10_04_2014 level23_spatial_Mini 14_53 log.txt,37,37
45,0,332.6712,1,437,2761,2975,4263,510,-10.5,200,0,0,334.8118,1,4,,10_04_2014 level23_spatial_Mini 14_53 log.txt,37,37
46,0,340.8249,1,936,1551,2975,4263,502,-10.5,200,1,1,343.7451,1,5,,10_04_2014 level23_spatial_Mini 14_53 log.txt,37,37
47,0,346.8877,0,437,2761,2975,4263,510,-15.0,200,0,1,348.0159,0,4,,10_04_2014 level23_spatial_Mini 14_53 log.txt,37,37
48,1,356.6492,1,437,2761,2975,4263,510,-15.0,200,0,0,359.078,1,4,,10_04_2014 level23_spatial_Mini 14_53 log.txt,37,37
49,0,362.7804,1,936,1551,2975,4263,509,-8.3,200,1,1,365.2791,1,1,,10_04_2014 level23_spatial_Mini 14_53 log.txt,37,37
50,0,368.26,1,437,2761,2975,4263,505,-12.8,200,0,1,370.7008,0,0,,10_04_2014 level23_spatial_Mini 14_53 log.txt,37,37
51,1,372.5731,1,437,2761,2975,4263,505,-12.8,200,0,1,375.3293,0,0,,10_04_2014 level23_spatial_Mini 14_53 log.txt,37,37
52,1,377.537,0,437,2761,2975,4263,505,-12.8,200,0,0,378.6906,1,0,,10_04_2014 level23_spatial_Mini 14_53 log.txt,37,37
53,0,383.959,1,437,2761,2975,4263,507,-8.3,200,0,0,387.6395,1,3,,10_04_2014 level23_spatial_Mini 14_53 log.txt,37,37
54,0,394.2025,0,437,2761,2975,4263,511,-15.0,200,0,1,395.5717,0,1,,10_04_2014 level23_spatial_Mini 14_53 log.txt,37,37
55,1,404.4317,1,437,2761,2975,4263,511,-15.0,200,0,0,406.8643,1,1,,10_04_2014 level23_spatial_Mini 14_53 log.txt,37,37
56,0,411.7477,0,437,2761,2975,4263,508,-6.0,200,0,0,412.804,1,3,,10_04_2014 level23_spatial_Mini 14_53 log.txt,37,37
57,0,416.4546,1,936,1551,2975,4263,503,-12.8,200,1,0,418.7797,0,2,,10_04_2014 level23_spatial_Mini 14_53 log.txt,37,37
58,1,420.7469,0,936,1551,2975,4263,503,-12.8,200,1,1,421.9506,1,2,,10_04_2014 level23_spatial_Mini 14_53 log.txt,37,37
59,0,425.1204,1,437,2761,2975,4263,504,-12.8,200,0,1,428.0758,0,3,,10_04_2014 level23_spatial_Mini 14_53 log.txt,37,37
60,1,432.0741,1,437,2761,2975,4263,504,-12.8,200,0,0,434.5991,1,3,,10_04_2014 level23_spatial_Mini 14_53 log.txt,37,37
61,0,438.6669,1,936,1551,2975,4263,501,-8.3,200,1,1,441.9915,1,3,,10_04_2014 level23_spatial_Mini 14_53 log.txt,37,37
62,0,446.203,0,437,2761,2975,4263,501,-15.0,200,0,0,447.7189,1,2,,10_04_2014 level23_spatial_Mini 14_53 log.txt,37,37
63,0,453.0044,0,936,1551,2975,4263,511,-8.3,200,1,0,455.1851,0,2,,10_04_2014 level23_spatial_Mini 14_53 log.txt,37,37
64,1,457.587,0,936,1551,2975,4263,511,-8.3,200,1,1,458.5046,1,2,,10_04_2014 level23_spatial_Mini 14_53 log.txt,37,37
65,0,461.537,0,936,1551,2975,4263,506,-6.0,200,1,1,462.5522,1,2,,10_04_2014 level23_spatial_Mini 14_53 log.txt,37,37
66,0,465.9796,1,936,1551,2975,4263,503,-12.8,200,1,1,469.8271,1,3,,10_04_2014 level23_spatial_Mini 14_53 log.txt,37,37
67,0,473.2747,0,437,2761,2975,4263,502,-8.3,200,0,0,474.2523,1,4,,10_04_2014 level23_spatial_Mini 14_53 log.txt,37,37
68,0,481.1483,1,936,1551,2975,4263,504,-15.0,200,1,1,484.1221,1,0,,10_04_2014 level23_spatial_Mini 14_53 log.txt,37,37
69,0,487.6648,0,936,1551,2975,4263,510,-15.0,200,1,1,488.7042,1,5,,10_04_2014 level23_spatial_Mini 14_53 log.txt,37,37
70,0,492.3218,1,437,2761,2975,4263,509,-12.8,200,0,0,496.1127,1,2,,10_04_2014 level23_spatial_Mini 14_53 log.txt,37,37
71,0,499.5526,0,437,2761,2975,4263,507,-8.3,200,0,0,501.946,1,1,,10_04_2014 level23_spatial_Mini 14_53 log.txt,37,37
72,0,507.7833,1,437,2761,2975,4263,508,-6.0,200,0,1,510.6588,0,0,,10_04_2014 level23_spatial_Mini 14_53 log.txt,37,37
73,1,513.4502,0,437,2761,2975,4263,508,-6.0,200,0,1,514.6686,0,0,,10_04_2014 level23_spatial_Mini 14_53 log.txt,37,37
74,1,524.2765,0,437,2761,2975,4263,508,-6.0,200,0,0,525.2564,1,0,,10_04_2014 level23_spatial_Mini 14_53 log.txt,37,37
75,0,528.9477,0,437,2761,2975,4263,502,-10.5,200,0,1,529.7277,0,1,,10_04_2014 level23_spatial_Mini 14_53 log.txt,37,37
76,1,546.6581,0,437,2761,2975,4263,502,-10.5,200,0,1,549.2121,0,1,,10_04_2014 level23_spatial_Mini 14_53 log.txt,37,37
77,1,552.7787,1,437,2761,2975,4263,502,-10.5,200,0,0,554.9978,1,1,,10_04_2014 level23_spatial_Mini 14_53 log.txt,37,37
78,0,559.1749,1,936,1551,2975,4263,509,-12.8,200,1,1,560.9627,1,5,,10_04_2014 level23_spatial_Mini 14_53 log.txt,37,37
79,0,563.5936,0,936,1551,2975,4263,508,-6.0,200,1,0,565.5433,0,4,,10_04_2014 level23_spatial_Mini 14_53 log.txt,37,37
80,1,571.7793,1,936,1551,2975,4263,508,-6.0,200,1,1,574.4289,1,4,,10_04_2014 level23_spatial_Mini 14_53 log.txt,37,37
81,0,577.8915,0,437,2761,2975,4263,506,-10.5,200,0,1,579.4442,0,3,,10_04_2014 level23_spatial_Mini 14_53 log.txt,37,37
82,1,632.7972,1,437,2761,2975,4263,506,-10.5,200,0,0,640.9209,1,3,,10_04_2014 level23_spatial_Mini 14_53 log.txt,37,37
83,0,758.8006,0,437,2761,2975,4263,505,-6.0,200,0,1,787.5781,0,2,,10_04_2014 level23_spatial_Mini 14_53 log.txt,37,37
84,1,789.9387,0,437,2761,2975,4263,505,-6.0,200,0,1,791.6249,0,2,,10_04_2014 level23_spatial_Mini 14_53 log.txt,37,37
85,1,793.2615,1,437,2761,2975,4263,505,-6.0,200,0,0,796.7367,1,2,,10_04_2014 level23_spatial_Mini 14_53 log.txt,37,37
86,0,803.5862,1,936,1551,2975,4263,510,-10.5,200,1,1,805.3745,1,2,,10_04_2014 level23_spatial_Mini 14_53 log.txt,37,37
87,0,807.8195,1,437,2761,2975,4263,503,-6.0,200,0,1,810.1428,0,4,,10_04_2014 level23_spatial_Mini 14_53 log.txt,37,37
88,1,812.3119,0,437,2761,2975,4263,503,-6.0,200,0,0,815.2796,1,4,,10_04_2014 level23_spatial_Mini 14_53 log.txt,37,37
89,0,819.9102,0,437,2761,2975,4263,504,-15.0,200,0,0,821.163,1,5,,10_04_2014 level23_spatial_Mini 14_53 log.txt,37,37
90,0,824.0604,0,936,1551,2975,4263,511,-12.8,200,1,1,824.834,1,4,,10_04_2014 level23_spatial_Mini 14_53 log.txt,37,37
91,0,827.4446,1,936,1551,2975,4263,501,-6.0,200,1,1,829.3811,1,3,,10_04_2014 level23_spatial_Mini 14_53 log.txt,37,37
92,0,884.8441,0,437,2761,2975,4263,508,-8.3,200,0,0,887.4517,1,1,,10_04_2014 level23_spatial_Mini 14_53 log.txt,37,37
93,0,891.2171,0,437,2761,2975,4263,502,-15.0,200,0,0,891.8789,1,4,,10_04_2014 level23_spatial_Mini 14_53 log.txt,37,37
94,0,895.2862,0,437,2761,2975,4263,504,-10.5,200,0,0,897.1008,1,4,,10_04_2014 level23_spatial_Mini 14_53 log.txt,37,37
95,0,901.1389,0,437,2761,2975,4263,506,-12.8,200,0,1,901.9646,0,3,,10_04_2014 level23_spatial_Mini 14_53 log.txt,37,37
96,1,972.8739,1,437,2761,2975,4263,506,-12.8,200,0,1,973.7856,0,3,,10_04_2014 level23_spatial_Mini 14_53 log.txt,37,37
97,1,979.0987,0,437,2761,2975,4263,506,-12.8,200,0,1,979.6964,0,3,,10_04_2014 level23_spatial_Mini 14_53 log.txt,37,37
98,1,983.365,1,437,2761,2975,4263,506,-12.8,200,0,0,983.8902,1,3,,10_04_2014 level23_spatial_Mini 14_53 log.txt,37,37
99,0,987.1294,0,936,1551,2975,4263,509,-15.0,200,1,1,988.737,1,4,,10_04_2014 level23_spatial_Mini 14_53 log.txt,37,37
100,0,991.3704,0,437,2761,2975,4263,510,-8.3,200,0,1,992.5605,0,5,,10_04_2014 level23_spatial_Mini 14_53 log.txt,37,37
1,0,151.2821,0,437,2761,2975,4263,508,-10.5,200,0,0,152.1298,1,2,,19_11_2014 level23_spatial_Mini 13_54 log.txt,37,37
2,0,159.0993,1,437,2761,2975,4263,511,-10.5,200,0,0,160.297,1,5,,19_11_2014 level23_spatial_Mini 13_54 log.txt,37,37
3,0,172.0892,0,936,1551,2975,4263,504,-6.0,200,1,1,172.8215,1,2,,19_11_2014 level23_spatial_Mini 13_54 log.txt,37,37
4,0,184.2045,1,936,1551,2975,4263,506,-15.0,200,1,0,184.6669,0,0,,19_11_2014 level23_spatial_Mini 13_54 log.txt,37,37
5,1,186.4123,1,936,1551,2975,4263,506,-15.0,200,1,1,192.1469,1,0,,19_11_2014 level23_spatial_Mini 13_54 log.txt,37,37
6,0,201.5516,1,437,2761,2975,4263,505,-10.5,200,0,1,202.3276,0,0,,19_11_2014 level23_spatial_Mini 13_54 log.txt,37,37
7,1,204.0615,1,437,2761,2975,4263,505,-10.5,200,0,1,208.9885,0,0,,19_11_2014 level23_spatial_Mini 13_54 log.txt,37,37
8,1,214.069,0,437,2761,2975,4263,505,-10.5,200,0,0,215.1708,1,0,,19_11_2014 level23_spatial_Mini 13_54 log.txt,37,37
9,0,218.5358,0,936,1551,2975,4263,507,-10.5,200,1,1,220.0209,1,4,,19_11_2014 level23_spatial_Mini 13_54 log.txt,37,37
10,0,225.1777,1,437,2761,2975,4263,503,-6.0,200,0,1,227.2372,0,0,,19_11_2014 level23_spatial_Mini 13_54 log.txt,37,37
11,1,235.2112,1,437,2761,2975,4263,503,-6.0,200,0,0,235.8454,1,0,,19_11_2014 level23_spatial_Mini 13_54 log.txt,37,37
12,0,239.1464,0,936,1551,2975,4263,509,-12.8,200,1,0,239.2251,0,5,,19_11_2014 level23_spatial_Mini 13_54 log.txt,37,37
13,1,242.2059,1,936,1551,2975,4263,509,-12.8,200,1,0,244.7269,0,5,,19_11_2014 level23_spatial_Mini 13_54 log.txt,37,37
14,1,247.8911,0,936,1551,2975,4263,509,-12.8,200,1,1,248.8599,1,5,,19_11_2014 level23_spatial_Mini 13_54 log.txt,37,37
15,0,254.8349,1,437,2761,2975,4263,501,-12.8,200,0,1,256.9812,0,3,,19_11_2014 level23_spatial_Mini 13_54 log.txt,37,37
16,1,258.5624,1,437,2761,2975,4263,501,-12.8,200,0,1,261.9949,0,3,,19_11_2014 level23_spatial_Mini 13_54 log.txt,37,37
17,1,264.5536,0,437,2761,2975,4263,501,-12.8,200,0,1,266.7093,0,3,,19_11_2014 level23_spatial_Mini 13_54 log.txt,37,37
18,1,272.3089,0,437,2761,2975,4263,501,-12.8,200,0,0,273.0476,1,3,,19_11_2014 level23_spatial_Mini 13_54 log.txt,37,37
19,0,276.43,0,437,2761,2975,4263,510,-12.8,200,0,1,277.3997,0,5,,19_11_2014 level23_spatial_Mini 13_54 log.txt,37,37
20,1,279.3156,0,437,2761,2975,4263,510,-12.8,200,0,1,280.45,0,5,,19_11_2014 level23_spatial_Mini 13_54 log.txt,37,37
21,1,281.9868,0,437,2761,2975,4263,510,-12.8,200,0,0,282.7772,1,5,,19_11_2014 level23_spatial_Mini 13_54 log.txt,37,37
22,0,286.8842,1,936,1551,2975,4263,506,-10.5,200,1,0,287.487,0,3,,19_11_2014 level23_spatial_Mini 13_54 log.txt,37,37
23,1,292.1504,0,936,1551,2975,4263,506,-10.5,200,1,0,292.9767,0,3,,19_11_2014 level23_spatial_Mini 13_54 log.txt,37,37
24,1,302.0334,0,936,1551,2975,4263,506,-10.5,200,1,1,303.0862,1,3,,19_11_2014 level23_spatial_Mini 13_54 log.txt,37,37
25,0,307.5474,1,936,1551,2975,4263,511,-8.3,200,1,1,309.9484,1,0,,19_11_2014 level23_spatial_Mini 13_54 log.txt,37,37
26,0,313.6897,0,437,2761,2975,4263,501,-8.3,200,0,1,315.4628,0,5,,19_11_2014 level23_spatial_Mini 13_54 log.txt,37,37
27,1,320.6412,1,437,2761,2975,4263,501,-8.3,200,0,0,321.2284,1,5,,19_11_2014 level23_spatial_Mini 13_54 log.txt,37,37
28,0,323.8307,1,437,2761,2975,4263,503,-15.0,200,0,0,326.3157,1,4,,19_11_2014 level23_spatial_Mini 13_54 log.txt,37,37
29,0,329.4002,1,936,1551,2975,4263,505,-15.0,200,1,0,331.7904,0,3,,19_11_2014 level23_spatial_Mini 13_54 log.txt,37,37
30,1,336.647,0,936,1551,2975,4263,505,-15.0,200,1,1,337.9291,1,3,,19_11_2014 level23_spatial_Mini 13_54 log.txt,37,37
31,0,341.6823,0,437,2761,2975,4263,504,-10.5,200,0,1,342.9863,0,3,,19_11_2014 level23_spatial_Mini 13_54 log.txt,37,37
32,1,349.8511,0,437,2761,2975,4263,504,-10.5,200,0,0,350.5549,1,3,,19_11_2014 level23_spatial_Mini 13_54 log.txt,37,37
33,0,353.8158,0,437,2761,2975,4263,502,-6.0,200,0,0,354.3484,1,4,,19_11_2014 level23_spatial_Mini 13_54 log.txt,37,37
34,0,357.716,1,936,1551,2975,4263,507,-6.0,200,1,1,358.6184,1,0,,19_11_2014 level23_spatial_Mini 13_54 log.txt,37,37
35,0,360.9901,1,936,1551,2975,4263,510,-6.0,200,1,1,365.035,1,4,,19_11_2014 level23_spatial_Mini 13_54 log.txt,37,37
36,0,368.542,1,437,2761,2975,4263,509,-8.3,200,0,1,370.6346,0,1,,19_11_2014 level23_spatial_Mini 13_54 log.txt,37,37
37,1,372.5374,0,437,2761,2975,4263,509,-8.3,200,0,0,375.0803,1,1,,19_11_2014 level23_spatial_Mini 13_54 log.txt,37,37
38,0,378.0904,0,437,2761,2975,4263,504,-6.0,200,0,0,378.967,1,2,,19_11_2014 level23_spatial_Mini 13_54 log.txt,37,37
39,0,382.1259,1,437,2761,2975,4263,508,-8.3,200,0,1,384.2184,0,4,,19_11_2014 level23_spatial_Mini 13_54 log.txt,37,37
40,1,391.6623,0,437,2761,2975,4263,508,-8.3,200,0,0,392.2128,1,4,,19_11_2014 level23_spatial_Mini 13_54 log.txt,37,37
41,0,395.1469,0,936,1551,2975,4263,509,-10.5,200,1,1,396.3275,1,0,,19_11_2014 level23_spatial_Mini 13_54 log.txt,37,37
42,0,399.2535,1,437,2761,2975,4263,506,-15.0,200,0,1,400.8981,0,3,,19_11_2014 level23_spatial_Mini 13_54 log.txt,37,37
43,1,402.755,0,437,2761,2975,4263,506,-15.0,200,0,0,404.0799,1,3,,19_11_2014 level23_spatial_Mini 13_54 log.txt,37,37
44,0,407.1997,0,936,1551,2975,4263,503,-10.5,200,1,1,408.1634,1,1,,19_11_2014 level23_spatial_Mini 13_54 log.txt,37,37
45,0,410.9306,0,936,1551,2975,4263,507,-15.0,200,1,1,412.2851,1,5,,19_11_2014 level23_spatial_Mini 13_54 log.txt,37,37
46,0,417.1127,0,936,1551,2975,4263,505,-12.8,200,1,0,417.9546,0,2,,19_11_2014 level23_spatial_Mini 13_54 log.txt,37,37
47,1,419.7424,0,936,1551,2975,4263,505,-12.8,200,1,0,420.6114,0,2,,19_11_2014 level23_spatial_Mini 13_54 log.txt,37,37
48,1,437.0371,0,936,1551,2975,4263,505,-12.8,200,1,1,438.1687,1,2,,19_11_2014 level23_spatial_Mini 13_54 log.txt,37,37
49,0,448.4574,0,437,2761,2975,4263,502,-6.0,200,0,1,449.1064,0,1,,19_11_2014 level23_spatial_Mini 13_54 log.txt,37,37
50,1,455.0885,0,437,2761,2975,4263,502,-6.0,200,0,0,455.4961,1,1,,19_11_2014 level23_spatial_Mini 13_54 log.txt,37,37
51,0,460.855,0,936,1551,2975,4263,510,-6.0,200,1,0,461.5047,0,5,,19_11_2014 level23_spatial_Mini 13_54 log.txt,37,37
52,1,467.956,0,936,1551,2975,4263,510,-6.0,200,1,1,468.3719,1,5,,19_11_2014 level23_spatial_Mini 13_54 log.txt,37,37
53,0,475.3125,0,437,2761,2975,4263,501,-6.0,200,0,0,476.2006,1,3,,19_11_2014 level23_spatial_Mini 13_54 log.txt,37,37
54,0,479.6528,0,437,2761,2975,4263,503,-12.8,200,0,0,480.2381,1,2,,19_11_2014 level23_spatial_Mini 13_54 log.txt,37,37
55,0,483.4605,0,936,1551,2975,4263,509,-6.0,200,1,0,484.4408,0,3,,19_11_2014 level23_spatial_Mini 13_54 log.txt,37,37
56,1,493.646,0,936,1551,2975,4263,509,-6.0,200,1,0,494.4456,0,3,,19_11_2014 level23_spatial_Mini 13_54 log.txt,37,37
57,1,500.4679,0,936,1551,2975,4263,509,-6.0,200,1,1,501.4962,1,3,,19_11_2014 level23_spatial_Mini 13_54 log.txt,37,37
58,0,512.7635,0,936,1551,2975,4263,511,-6.0,200,1,0,513.6087,0,1,,19_11_2014 level23_spatial_Mini 13_54 log.txt,37,37
59,1,520.604,0,936,1551,2975,4263,511,-6.0,200,1,1,521.7532,1,1,,19_11_2014 level23_spatial_Mini 13_54 log.txt,37,37
60,0,525.6118,0,936,1551,2975,4263,502,-8.3,200,1,1,526.6939,1,2,,19_11_2014 level23_spatial_Mini 13_54 log.txt,37,37
61,0,534.1697,0,936,1551,2975,4263,506,-12.8,200,1,0,534.6402,0,1,,19_11_2014 level23_spatial_Mini 13_54 log.txt,37,37
62,1,546.1635,1,936,1551,2975,4263,506,-12.8,200,1,1,549.8302,1,1,,19_11_2014 level23_spatial_Mini 13_54 log.txt,37,37
63,0,557.3296,0,437,2761,2975,4263,508,-8.3,200,0,0,558.3242,1,2,,19_11_2014 level23_spatial_Mini 13_54 log.txt,37,37
64,0,561.4327,0,936,1551,2975,4263,504,-15.0,200,1,0,562.5194,0,1,,19_11_2014 level23_spatial_Mini 13_54 log.txt,37,37
65,1,568.9708,0,936,1551,2975,4263,504,-15.0,200,1,1,569.8962,1,1,,19_11_2014 level23_spatial_Mini 13_54 log.txt,37,37
66,0,575.3677,0,936,1551,2975,4263,505,-8.3,200,1,1,576.2929,1,4,,19_11_2014 level23_spatial_Mini 13_54 log.txt,37,37
67,0,579.039,0,437,2761,2975,4263,501,-6.0,200,0,1,579.7738,0,5,,19_11_2014 level23_spatial_Mini 13_54 log.txt,37,37
68,1,586.9939,1,437,2761,2975,4263,501,-6.0,200,0,0,588.1825,1,5,,19_11_2014 level23_spatial_Mini 13_54 log.txt,37,37
69,0,591.469,0,437,2761,2975,4263,507,-10.5,200,0,0,592.7377,1,4,,19_11_2014 level23_spatial_Mini 13_54 log.txt,37,37
70,0,595.5501,0,437,2761,2975,4263,505,-15.0,200,0,0,596.6675,1,0,,19_11_2014 level23_spatial_Mini 13_54 log.txt,37,37
71,0,599.5615,0,437,2761,2975,4263,511,-15.0,200,0,0,600.074,1,2,,19_11_2014 level23_spatial_Mini 13_54 log.txt,37,37
72,0,603.9629,0,437,2761,2975,4263,506,-12.8,200,0,1,604.5204,0,1,,19_11_2014 level23_spatial_Mini 13_54 log.txt,37,37
73,1,614.3119,0,437,2761,2975,4263,506,-12.8,200,0,1,615.4427,0,1,,19_11_2014 level23_spatial_Mini 13_54 log.txt,37,37
74,1,626.7518,0,437,2761,2975,4263,506,-12.8,200,0,1,628.1388,0,1,,19_11_2014 level23_spatial_Mini 13_54 log.txt,37,37
75,1,638.529,0,437,2761,2975,4263,506,-12.8,200,0,1,640.4714,0,1,,19_11_2014 level23_spatial_Mini 13_54 log.txt,37,37
76,1,661.6689,0,437,2761,2975,4263,506,-12.8,200,0,0,663.7975,1,1,,19_11_2014 level23_spatial_Mini 13_54 log.txt,37,37
77,0,666.7388,0,437,2761,2975,4263,510,-8.3,200,0,0,667.6799,1,0,,19_11_2014 level23_spatial_Mini 13_54 log.txt,37,37
78,0,670.5742,0,936,1551,2975,4263,501,-8.3,200,1,1,671.8415,1,1,,19_11_2014 level23_spatial_Mini 13_54 log.txt,37,37
79,0,676.1111,0,437,2761,2975,4263,503,-8.3,200,0,0,676.6747,1,3,,19_11_2014 level23_spatial_Mini 13_54 log.txt,37,37
80,0,679.3788,0,936,1551,2975,4263,504,-15.0,200,1,1,680.0994,1,2,,19_11_2014 level23_spatial_Mini 13_54 log.txt,37,37
81,0,682.7481,0,936,1551,2975,4263,508,-12.8,200,1,1,683.7303,1,4,,19_11_2014 level23_spatial_Mini 13_54 log.txt,37,37
82,0,687.0118,0,936,1551,2975,4263,507,-12.8,200,1,0,688.4121,0,3,,19_11_2014 level23_spatial_Mini 13_54 log.txt,37,37
83,1,704.8036,0,936,1551,2975,4263,507,-12.8,200,1,0,705.601,0,3,,19_11_2014 level23_spatial_Mini 13_54 log.txt,37,37
1,0,751.5451,1,936,1551,2975,4263,504,-8.3,200,1,0,757.3927,0,1,,25_04_2014 level23_spatial_Mini 10_51 log.txt,37,37
2,1,763.9879,1,936,1551,2975,4263,504,-8.3,200,1,1,764.6961,1,1,,25_04_2014 level23_spatial_Mini 10_51 log.txt,37,37
3,0,768.1569,1,936,1551,2975,4263,507,-6.0,200,1,1,771.3418,1,1,,25_04_2014 level23_spatial_Mini 10_51 log.txt,37,37
4,0,775.0776,0,437,2761,2975,4263,511,-10.5,200,0,0,776.2035,1,5,,25_04_2014 level23_spatial_Mini 10_51 log.txt,37,37
5,0,780.8403,1,936,1551,2975,4263,502,-15.0,200,1,1,781.4776,1,5,,25_04_2014 level23_spatial_Mini 10_51 log.txt,37,37
6,0,784.9775,1,437,2761,2975,4263,503,-10.5,200,0,1,792.3673,0,4,,25_04_2014 level23_spatial_Mini 10_51 log.txt,37,37
7,1,804.6355,1,437,2761,2975,4263,503,-10.5,200,0,0,808.4339,1,4,,25_04_2014 level23_spatial_Mini 10_51 log.txt,37,37
8,0,812.5779,1,936,1551,2975,4263,501,-12.8,200,1,1,814.744,1,0,,25_04_2014 level23_spatial_Mini 10_51 log.txt,37,37
9,0,817.7983,1,936,1551,2975,4263,509,-15.0,200,1,1,820.4988,1,1,,25_04_2014 level23_spatial_Mini 10_51 log.txt,37,37
10,0,823.2541,1,936,1551,2975,4263,505,-8.3,200,1,1,825.8774,1,2,,25_04_2014 level23_spatial_Mini 10_51 log.txt,37,37
11,0,828.6978,1,936,1551,2975,4263,510,-15.0,200,1,1,831.2064,1,3,,25_04_2014 level23_spatial_Mini 10_51 log.txt,37,37
12,0,834.2083,1,437,2761,2975,4263,506,-15.0,200,0,0,836.6135,1,0,,25_04_2014 level23_spatial_Mini 10_51 log.txt,37,37
13,0,839.9468,0,437,2761,2975,4263,509,-12.8,200,0,1,841.3245,0,0,,25_04_2014 level23_spatial_Mini 10_51 log.txt,37,37
14,1,846.3679,0,437,2761,2975,4263,509,-12.8,200,0,0,848.1375,1,0,,25_04_2014 level23_spatial_Mini 10_51 log.txt,37,37
15,0,853.8152,1,437,2761,2975,4263,508,-12.8,200,0,1,856.2671,0,2,,25_04_2014 level23_spatial_Mini 10_51 log.txt,37,37
16,1,863.809,0,437,2761,2975,4263,508,-12.8,200,0,0,864.8376,1,2,,25_04_2014 level23_spatial_Mini 10_51 log.txt,37,37
17,0,870.7161,1,437,2761,2975,4263,503,-6.0,200,0,0,872.9729,1,4,,25_04_2014 level23_spatial_Mini 10_51 log.txt,37,37
18,0,877.3292,0,437,2761,2975,4263,501,-8.3,200,0,1,878.2874,0,3,,25_04_2014 level23_spatial_Mini 10_51 log.txt,37,37
19,1,881.86,1,437,2761,2975,4263,501,-8.3,200,0,0,884.666,1,3,,25_04_2014 level23_spatial_Mini 10_51 log.txt,37,37
20,0,889.574,1,936,1551,2975,4263,505,-12.8,200,1,1,892.8698,1,1,,25_04_2014 level23_spatial_Mini 10_51 log.txt,37,37
21,0,897.1771,1,936,1551,2975,4263,507,-10.5,200,1,1,900.4143,1,2,,25_04_2014 level23_spatial_Mini 10_51 log.txt,37,37
22,0,903.2761,0,936,1551,2975,4263,506,-6.0,200,1,0,905.0644,0,3,,25_04_2014 level23_spatial_Mini 10_51 log.txt,37,37
23,1,909.2729,0,936,1551,2975,4263,506,-6.0,200,1,1,910.3144,1,3,,25_04_2014 level23_spatial_Mini 10_51 log.txt,37,37
24,0,912.9937,0,936,1551,2975,4263,504,-10.5,200,1,1,913.898,1,1,,25_04_2014 level23_spatial_Mini 10_51 log.txt,37,37
25,0,916.8982,0,936,1551,2975,4263,511,-15.0,200,1,1,917.8196,1,2,,25_04_2014 level23_spatial_Mini 10_51 log.txt,37,37
26,0,921.2128,1,437,2761,2975,4263,502,-6.0,200,0,1,923.4267,0,1,,25_04_2014 level23_spatial_Mini 10_51 log.txt,37,37
27,1,926.2194,0,437,2761,2975,4263,502,-6.0,200,0,0,928.0708,1,1,,25_04_2014 level23_spatial_Mini 10_51 log.txt,37,37
28,0,932.9033,1,437,2761,2975,4263,504,-15.0,200,0,1,951.6424,0,1,,25_04_2014 level23_spatial_Mini 10_51 log.txt,37,37
29,1,953.2231,1,437,2761,2975,4263,504,-15.0,200,0,1,955.5137,0,1,,25_04_2014 level23_spatial_Mini 10_51 log.txt,37,37
30,1,960.4075,1,437,2761,2975,4263,504,-15.0,200,0,0,962.6429,1,1,,25_04_2014 level23_spatial_Mini 10_51 log.txt,37,37
31,0,967.0655,0,936,1551,2975,4263,503,-12.8,200,1,1,968.1981,1,3,,25_04_2014 level23_spatial_Mini 10_51 log.txt,37,37
32,0,970.9382,0,437,2761,2975,4263,508,-10.5,200,0,1,971.9148,0,1,,25_04_2014 level23_spatial_Mini 10_51 log.txt,37,37
33,1,1050.6972,1,437,2761,2975,4263,508,-10.5,200,0,0,1057.2473,1,1,,25_04_2014 level23_spatial_Mini 10_51 log.txt,37,37
34,0,1061.5922,1,437,2761,2975,4263,510,-15.0,200,0,0,1064.4506,1,4,,25_04_2014 level23_spatial_Mini 10_51 log.txt,37,37
35,0,1068.3881,0,936,1551,2975,4263,511,-6.0,200,1,1,1068.7326,1,0,,25_04_2014 level23_spatial_Mini 10_51 log.txt,37,37
36,0,1071.5415,0,936,1551,2975,4263,505,-10.5,200,1,1,1072.4023,1,5,,25_04_2014 level23_spatial_Mini 10_51 log.txt,37,37
37,0,1075.5007,1,437,2761,2975,4263,509,-10.5,200,0,0,1078.0573,1,0,,25_04_2014 level23_spatial_Mini 10_51 log.txt,37,37
38,0,1083.7207,1,437,2761,2975,4263,501,-8.3,200,0,1,1087.2593,0,2,,25_04_2014 level23_spatial_Mini 10_51 log.txt,37,37
39,1,1088.7874,0,437,2761,2975,4263,501,-8.3,200,0,1,1089.8104,0,2,,25_04_2014 level23_spatial_Mini 10_51 log.txt,37,37
40,1,1092.5505,1,437,2761,2975,4263,501,-8.3,200,0,0,1099.8103,1,2,,25_04_2014 level23_spatial_Mini 10_51 log.txt,37,37
41,0,1105.4289,0,936,1551,2975,4263,506,-10.5,200,1,1,1106.2771,1,4,,25_04_2014 level23_spatial_Mini 10_51 log.txt,37,37
42,0,1109.3437,1,936,1551,2975,4263,502,-6.0,200,1,1,1110.0148,1,2,,25_04_2014 level23_spatial_Mini 10_51 log.txt,37,37
43,0,1113.9405,0,936,1551,2975,4263,504,-12.8,200,1,1,1116.5023,1,5,,25_04_2014 level23_spatial_Mini 10_51 log.txt,37,37
44,0,1119.5809,0,437,2761,2975,4263,510,-6.0,200,0,0,1121.5944,1,0,,25_04_2014 level23_spatial_Mini 10_51 log.txt,37,37
45,0,1127.833,1,437,2761,2975,4263,508,-6.0,200,0,0,1130.6679,1,5,,25_04_2014 level23_spatial_Mini 10_51 log.txt,37,37
46,0,1135.8096,1,437,2761,2975,4263,505,-10.5,200,0,1,1139.1565,0,3,,25_04_2014 level23_spatial_Mini 10_51 log.txt,37,37
47,1,1150.4804,1,437,2761,2975,4263,505,-10.5,200,0,0,1153.8294,1,3,,25_04_2014 level23_spatial_Mini 10_51 log.txt,37,37
48,0,1158.1682,0,936,1551,2975,4263,502,-12.8,200,1,1,1158.6608,1,2,,25_04_2014 level23_spatial_Mini 10_51 log.txt,37,37
49,0,1161.954,0,437,2761,2975,4263,503,-12.8,200,0,1,1163.1474,0,4,,25_04_2014 level23_spatial_Mini 10_51 log.txt,37,37
50,1,1169.5135,0,437,2761,2975,4263,503,-12.8,200,0,0,1170.193,1,4,,25_04_2014 level23_spatial_Mini 10_51 log.txt,37,37
51,0,1174.0346,1,437,2761,2975,4263,507,-12.8,200,0,0,1174.8339,1,5,,25_04_2014 level23_spatial_Mini 10_51 log.txt,37,37
52,0,1178.9781,0,936,1551,2975,4263,509,-8.3,200,1,1,1182.6562,1,3,,25_04_2014 level23_spatial_Mini 10_51 log.txt,37,37
53,0,1185.9934,1,437,2761,2975,4263,501,-8.3,200,0,1,1188.2036,0,5,,25_04_2014 level23_spatial_Mini 10_51 log.txt,37,37
54,1,1190.4556,0,437,2761,2975,4263,501,-8.3,200,0,0,1192.9806,1,5,,25_04_2014 level23_spatial_Mini 10_51 log.txt,37,37
55,0,1198.0283,0,936,1551,2975,4263,511,-10.5,200,1,1,1198.6812,1,3,,25_04_2014 level23_spatial_Mini 10_51 log.txt,37,37
56,0,1201.7456,0,437,2761,2975,4263,511,-15.0,200,0,0,1203.6765,1,5,,25_04_2014 level23_spatial_Mini 10_51 log.txt,37,37
57,0,1206.2314,1,437,2761,2975,4263,505,-12.8,200,0,0,1209.1567,1,3,,25_04_2014 level23_spatial_Mini 10_51 log.txt,37,37
58,0,1214.664,1,437,2761,2975,4263,504,-15.0,200,0,0,1217.1634,1,2,,25_04_2014 level23_spatial_Mini 10_51 log.txt,37,37
59,0,1222.4677,0,936,1551,2975,4263,502,-8.3,200,1,1,1223.2115,1,4,,25_04_2014 level23_spatial_Mini 10_51 log.txt,37,37
60,0,1226.0436,0,936,1551,2975,4263,506,-8.3,200,1,1,1227.5538,1,0,,25_04_2014 level23_spatial_Mini 10_51 log.txt,37,37
61,0,1230.677,0,437,2761,2975,4263,510,-10.5,200,0,0,1232.4294,1,2,,25_04_2014 level23_spatial_Mini 10_51 log.txt,37,37
62,0,1240.841,1,437,2761,2975,4263,508,-6.0,200,0,0,1243.9663,1,2,,25_04_2014 level23_spatial_Mini 10_51 log.txt,37,37
63,0,1248.2647,1,936,1551,2975,4263,507,-12.8,200,1,1,1248.7997,1,4,,25_04_2014 level23_spatial_Mini 10_51 log.txt,37,37
64,0,1251.4177,0,936,1551,2975,4263,509,-6.0,200,1,1,1253.6958,1,5,,25_04_2014 level23_spatial_Mini 10_51 log.txt,37,37
65,0,1257.0045,0,936,1551,2975,4263,503,-15.0,200,1,1,1257.7578,1,4,,25_04_2014 level23_spatial_Mini 10_51 log.txt,37,37
66,0,1260.88,0,437,2761,2975,4263,501,-8.3,200,0,1,1261.6901,0,1,,25_04_2014 level23_spatial_Mini 10_51 log.txt,37,37
67,1,1266.8298,1,437,2761,2975,4263,501,-8.3,200,0,0,1269.1929,1,1,,25_04_2014 level23_spatial_Mini 10_51 log.txt,37,37
68,0,1274.447,0,437,2761,2975,4263,510,-6.0,200,0,1,1275.4383,0,3,,25_04_2014 level23_spatial_Mini 10_51 log.txt,37,37
69,1,1279.3047,1,437,2761,2975,4263,510,-6.0,200,0,0,1282.1296,1,3,,25_04_2014 level23_spatial_Mini 10_51 log.txt,37,37
70,0,1285.8106,1,437,2761,2975,4263,504,-8.3,200,0,1,1288.7482,0,4,,25_04_2014 level23_spatial_Mini 10_51 log.txt,37,37
71,1,1290.6173,1,437,2761,2975,4263,504,-8.3,200,0,0,1293.9552,1,4,,25_04_2014 level23_spatial_Mini 10_51 log.txt,37,37
72,0,1299.2866,1,936,1551,2975,4263,503,-15.0,200,1,0,1301.6424,0,0,,25_04_2014 level23_spatial_Mini 10_51 log.txt,37,37
73,1,1305.1615,0,936,1551,2975,4263,503,-15.0,200,1,1,1306.2301,1,0,,25_04_2014 level23_spatial_Mini 10_51 log.txt,37,37
74,0,1309.2578,1,936,1551,2975,4263,507,-6.0,200,1,1,1311.8153,1,4,,25_04_2014 level23_spatial_Mini 10_51 log.txt,37,37
75,0,1315.7428,1,936,1551,2975,4263,505,-10.5,200,1,1,1319.4235,1,0,,25_04_2014 level23_spatial_Mini 10_51 log.txt,37,37
76,0,1322.9197,1,936,1551,2975,4263,511,-8.3,200,1,1,1326.8007,1,5,,25_04_2014 level23_spatial_Mini 10_51 log.txt,37,37
77,0,1330.2166,1,437,2761,2975,4263,506,-15.0,200,0,1,1337.6831,0,3,,25_04_2014 level23_spatial_Mini 10_51 log.txt,37,37
78,1,1353.6538,1,437,2761,2975,4263,506,-15.0,200,0,0,1355.8249,1,3,,25_04_2014 level23_spatial_Mini 10_51 log.txt,37,37
79,0,1359.3674,0,437,2761,2975,4263,502,-12.8,200,0,0,1360.1987,1,1,,25_04_2014 level23_spatial_Mini 10_51 log.txt,37,37
80,0,1363.9115,1,437,2761,2975,4263,508,-8.3,200,0,1,1364.4542,0,0,,25_04_2014 level23_spatial_Mini 10_51 log.txt,37,37
81,1,1370.1095,1,437,2761,2975,4263,508,-8.3,200,0,1,1372.1033,0,0,,25_04_2014 level23_spatial_Mini 10_51 log.txt,37,37
82,1,1397.0108,1,437,2761,2975,4263,508,-8.3,200,0,0,1400.0035,1,0,,25_04_2014 level23_spatial_Mini 10_51 log.txt,37,37
83,0,1404.0988,1,936,1551,2975,4263,501,-10.5,200,1,1,1405.5342,1,1,,25_04_2014 level23_spatial_Mini 10_51 log.txt,37,37
84,0,1407.6795,1,936,1551,2975,4263,502,-12.8,200,1,1,1443.9023,1,0,,25_04_2014 level23_spatial_Mini 10_51 log.txt,37,37
1,0,2.265,1,437,2761,2975,4263,503,-12.8,200,0,1,3.1738,0,5,,10_07_2014 level23_spatial_Mini 14_03 log.txt,37,37
2,1,11.8951,0,437,2761,2975,4263,503,-12.8,200,0,1,14.0965,0,5,,10_07_2014 level23_spatial_Mini 14_03 log.txt,37,37
3,1,17.9768,1,437,2761,2975,4263,503,-12.8,200,0,0,21.1602,1,5,,10_07_2014 level23_spatial_Mini 14_03 log.txt,37,37
4,0,26.949,1,936,1551,2975,4263,502,-6.0,200,1,1,29.228,1,0,,10_07_2014 level23_spatial_Mini 14_03 log.txt,37,37
5,0,32.7102,1,936,1551,2975,4263,509,-10.5,200,1,1,34.7192,1,3,,10_07_2014 level23_spatial_Mini 14_03 log.txt,37,37
6,0,37.9373,0,936,1551,2975,4263,510,-10.5,200,1,1,38.902,1,0,,10_07_2014 level23_spatial_Mini 14_03 log.txt,37,37
7,0,41.2473,0,437,2761,2975,4263,501,-15.0,200,0,0,42.9324,1,5,,10_07_2014 level23_spatial_Mini 14_03 log.txt,37,37
8,0,47.5479,1,437,2761,2975,4263,508,-10.5,200,0,0,49.9271,1,5,,10_07_2014 level23_spatial_Mini 14_03 log.txt,37,37
9,0,55.5686,1,437,2761,2975,4263,506,-15.0,200,0,1,58.3645,0,3,,10_07_2014 level23_spatial_Mini 14_03 log.txt,37,37
10,1,59.9753,1,437,2761,2975,4263,506,-15.0,200,0,1,62.2649,0,3,,10_07_2014 level23_spatial_Mini 14_03 log.txt,37,37
11,1,68.5754,0,437,2761,2975,4263,506,-15.0,200,0,1,69.3921,0,3,,10_07_2014 level23_spatial_Mini 14_03 log.txt,37,37
12,1,72.8659,1,437,2761,2975,4263,506,-15.0,200,0,0,75.1952,1,3,,10_07_2014 level23_spatial_Mini 14_03 log.txt,37,37
13,0,78.8047,0,437,2761,2975,4263,504,-12.8,200,0,0,79.7211,1,3,,10_07_2014 level23_spatial_Mini 14_03 log.txt,37,37
14,0,83.9793,1,936,1551,2975,4263,511,-10.5,200,1,1,87.096,1,2,,10_07_2014 level23_spatial_Mini 14_03 log.txt,37,37
15,0,90.9586,1,437,2761,2975,4263,505,-15.0,200,0,1,92.7253,0,2,,10_07_2014 level23_spatial_Mini 14_03 log.txt,37,37
16,1,95.9573,0,437,2761,2975,4263,505,-15.0,200,0,0,97.3123,1,2,,10_07_2014 level23_spatial_Mini 14_03 log.txt,37,37
17,0,101.7873,0,936,1551,2975,4263,506,-15.0,200,1,1,102.8553,1,5,,10_07_2014 level23_spatial_Mini 14_03 log.txt,37,37
18,0,105.5295,0,437,2761,2975,4263,504,-10.5,200,0,0,106.606,1,0,,10_07_2014 level23_spatial_Mini 14_03 log.txt,37,37
19,0,110.7372,1,936,1551,2975,4263,510,-6.0,200,1,1,112.8915,1,5,,10_07_2014 level23_spatial_Mini 14_03 log.txt,37,37
20,0,116.3282,0,936,1551,2975,4263,505,-6.0,200,1,1,118.2865,1,1,,10_07_2014 level23_spatial_Mini 14_03 log.txt,37,37
21,0,121.2535,1,936,1551,2975,4263,509,-8.3,200,1,1,123.2182,1,0,,10_07_2014 level23_spatial_Mini 14_03 log.txt,37,37
22,0,126.3899,1,437,2761,2975,4263,502,-8.3,200,0,0,128.8437,1,3,,10_07_2014 level23_spatial_Mini 14_03 log.txt,37,37
23,0,132.6827,1,936,1551,2975,4263,508,-10.5,200,1,1,135.431,1,5,,10_07_2014 level23_spatial_Mini 14_03 log.txt,37,37
24,0,138.3469,0,437,2761,2975,4263,503,-10.5,200,0,1,139.1239,0,4,,10_07_2014 level23_spatial_Mini 14_03 log.txt,37,37
25,1,142.5781,0,437,2761,2975,4263,503,-10.5,200,0,0,143.3791,1,4,,10_07_2014 level23_spatial_Mini 14_03 log.txt,37,37
26,0,147.1775,1,437,2761,2975,4263,507,-6.0,200,0,0,149.4421,1,5,,10_07_2014 level23_spatial_Mini 14_03 log.txt,37,37
27,0,153.2395,0,936,1551,2975,4263,511,-12.8,200,1,1,154.2044,1,4,,10_07_2014 level23_spatial_Mini 14_03 log.txt,37,37
28,0,157.1447,1,437,2761,2975,4263,506,-10.5,200,0,1,159.4184,0,2,,10_07_2014 level23_spatial_Mini 14_03 log.txt,37,37
29,1,161.5441,0,437,2761,2975,4263,506,-10.5,200,0,1,162.387,0,2,,10_07_2014 level23_spatial_Mini 14_03 log.txt,37,37
30,1,166.8209,0,437,2761,2975,4263,506,-10.5,200,0,0,167.4522,1,2,,10_07_2014 level23_spatial_Mini 14_03 log.txt,37,37
31,0,171.6696,0,437,2761,2975,4263,510,-12.8,200,0,0,172.7022,1,1,,10_07_2014 level23_spatial_Mini 14_03 log.txt,37,37
32,0,176.2473,0,437,2761,2975,4263,509,-12.8,200,0,0,177.2545,1,4,,10_07_2014 level23_spatial_Mini 14_03 log.txt,37,37
33,0,181.3813,1,936,1551,2975,4263,503,-12.8,200,1,1,183.8164,1,2,,10_07_2014 level23_spatial_Mini 14_03 log.txt,37,37
34,0,186.808,0,437,2761,2975,4263,507,-8.3,200,0,0,187.9753,1,4,,10_07_2014 level23_spatial_Mini 14_03 log.txt,37,37
35,0,192.2039,0,936,1551,2975,4263,505,-12.8,200,1,1,193.7243,1,3,,10_07_2014 level23_spatial_Mini 14_03 log.txt,37,37
36,0,197.0653,0,437,2761,2975,4263,508,-10.5,200,0,1,198.033,0,1,,10_07_2014 level23_spatial_Mini 14_03 log.txt,37,37
37,1,201.595,0,437,2761,2975,4263,508,-10.5,200,0,0,202.1626,1,1,,10_07_2014 level23_spatial_Mini 14_03 log.txt,37,37
38,0,209.8674,0,936,1551,2975,4263,511,-8.3,200,1,1,210.8251,1,4,,10_07_2014 level23_spatial_Mini 14_03 log.txt,37,37
39,0,214.2551,0,936,1551,2975,4263,502,-6.0,200,1,0,215.5528,0,2,,10_07_2014 level23_spatial_Mini 14_03 log.txt,37,37
40,1,217.1185,1,936,1551,2975,4263,502,-6.0,200,1,0,219.123,0,2,,10_07_2014 level23_spatial_Mini 14_03 log.txt,37,37
41,1,222.817,1,936,1551,2975,4263,502,-6.0,200,1,1,225.0881,1,2,,10_07_2014 level23_spatial_Mini 14_03 log.txt,37,37
42,0,231.0924,1,936,1551,2975,4263,501,-8.3,200,1,1,232.9855,1,2,,10_07_2014 level23_spatial_Mini 14_03 log.txt,37,37
43,0,242.6847,1,936,1551,2975,4263,508,-12.8,200,1,1,244.8768,1,5,,10_07_2014 level23_spatial_Mini 14_03 log.txt,37,37
44,0,247.7633,0,437,2761,2975,4263,505,-10.5,200,0,0,249.0882,1,3,,10_07_2014 level23_spatial_Mini 14_03 log.txt,37,37
45,0,256.9552,1,437,2761,2975,4263,510,-15.0,200,0,1,259.3854,0,4,,10_07_2014 level23_spatial_Mini 14_03 log.txt,37,37
46,1,263.0245,0,437,2761,2975,4263,510,-15.0,200,0,1,264.1177,0,4,,10_07_2014 level23_spatial_Mini 14_03 log.txt,37,37
47,1,265.9926,0,437,2761,2975,4263,510,-15.0,200,0,0,266.9136,1,4,,10_07_2014 level23_spatial_Mini 14_03 log.txt,37,37
48,0,270.8531,0,936,1551,2975,4263,503,-15.0,200,1,0,271.8809,0,0,,10_07_2014 level23_spatial_Mini 14_03 log.txt,37,37
49,1,275.7132,1,936,1551,2975,4263,503,-15.0,200,1,1,278.2949,1,0,,10_07_2014 level23_spatial_Mini 14_03 log.txt,37,37
50,0,281.1638,0,437,2761,2975,4263,504,-6.0,200,0,0,282.4815,1,0,,10_07_2014 level23_spatial_Mini 14_03 log.txt,37,37
51,0,286.5425,0,936,1551,2975,4263,506,-12.8,200,1,1,287.4596,1,1,,10_07_2014 level23_spatial_Mini 14_03 log.txt,37,37
52,0,291.1259,1,437,2761,2975,4263,511,-15.0,200,0,1,292.8842,0,0,,10_07_2014 level23_spatial_Mini 14_03 log.txt,37,37
53,1,320.5441,1,437,2761,2975,4263,511,-15.0,200,0,0,323.7241,1,0,,10_07_2014 level23_spatial_Mini 14_03 log.txt,37,37
54,0,328.2621,0,936,1551,2975,4263,509,-15.0,200,1,1,329.158,1,2,,10_07_2014 level23_spatial_Mini 14_03 log.txt,37,37
55,0,338.4137,1,437,2761,2975,4263,507,-8.3,200,0,1,340.536,0,1,,10_07_2014 level23_spatial_Mini 14_03 log.txt,37,37
56,1,351.2178,0,437,2761,2975,4263,507,-8.3,200,0,0,352.8468,1,1,,10_07_2014 level23_spatial_Mini 14_03 log.txt,37,37
57,0,361.8487,0,936,1551,2975,4263,502,-6.0,200,1,1,362.8072,1,4,,10_07_2014 level23_spatial_Mini 14_03 log.txt,37,37
58,0,366.0062,0,936,1551,2975,4263,508,-15.0,200,1,1,366.759,1,4,,10_07_2014 level23_spatial_Mini 14_03 log.txt,37,37
59,0,370.9716,0,936,1551,2975,4263,503,-8.3,200,1,1,372.1833,1,1,,10_07_2014 level23_spatial_Mini 14_03 log.txt,37,37
60,0,384.0416,1,437,2761,2975,4263,502,-6.0,200,0,1,386.0688,0,1,,10_07_2014 level23_spatial_Mini 14_03 log.txt,37,37
61,1,391.4195,1,437,2761,2975,4263,502,-6.0,200,0,0,393.6349,1,1,,10_07_2014 level23_spatial_Mini 14_03 log.txt,37,37
62,0,398.2026,0,437,2761,2975,4263,504,-15.0,200,0,1,399.5597,0,1,,10_07_2014 level23_spatial_Mini 14_03 log.txt,37,37
63,1,412.4295,1,437,2761,2975,4263,504,-15.0,200,0,0,415.7382,1,1,,10_07_2014 level23_spatial_Mini 14_03 log.txt,37,37
1,0,1.7547,0,437,2761,2975,4263,511,-10.5,200,0,0,3.4195,1,3,,30_10_2014 level23_spatial_Mini 08_01 log.txt,37,37
2,0,9.0611,1,936,1551,2975,4263,507,-8.3,200,1,1,12.6124,1,4,,30_10_2014 level23_spatial_Mini 08_01 log.txt,37,37
3,0,16.5805,1,437,2761,2975,4263,504,-15.0,200,0,1,19.4749,0,2,,30_10_2014 level23_spatial_Mini 08_01 log.txt,37,37
4,1,21.4726,1,437,2761,2975,4263,504,-15.0,200,0,0,24.2954,1,2,,30_10_2014 level23_spatial_Mini 08_01 log.txt,37,37
5,0,28.1428,1,936,1551,2975,4263,508,-15.0,200,1,0,30.6004,0,3,,30_10_2014 level23_spatial_Mini 08_01 log.txt,37,37
6,1,35.2251,1,936,1551,2975,4263,508,-15.0,200,1,1,38.1857,1,3,,30_10_2014 level23_spatial_Mini 08_01 log.txt,37,37
7,0,44.23,0,437,2761,2975,4263,506,-8.3,200,0,0,45.155,1,4,,30_10_2014 level23_spatial_Mini 08_01 log.txt,37,37
8,0,48.4883,0,437,2761,2975,4263,503,-10.5,200,0,1,49.4642,0,0,,30_10_2014 level23_spatial_Mini 08_01 log.txt,37,37
9,1,51.2996,0,437,2761,2975,4263,503,-10.5,200,0,0,52.2273,1,0,,30_10_2014 level23_spatial_Mini 08_01 log.txt,37,37
10,0,56.1131,0,437,2761,2975,4263,510,-10.5,200,0,0,57.2681,1,2,,30_10_2014 level23_spatial_Mini 08_01 log.txt,37,37
11,0,61.463,0,437,2761,2975,4263,501,-15.0,200,0,0,62.5658,1,1,,30_10_2014 level23_spatial_Mini 08_01 log.txt,37,37
12,0,66.5372,1,437,2761,2975,4263,505,-10.5,200,0,0,68.7542,1,5,,30_10_2014 level23_spatial_Mini 08_01 log.txt,37,37
13,0,72.7803,0,936,1551,2975,4263,509,-8.3,200,1,1,74.0078,1,5,,30_10_2014 level23_spatial_Mini 08_01 log.txt,37,37
14,0,76.3839,1,936,1551,2975,4263,504,-8.3,200,1,1,78.5286,1,3,,30_10_2014 level23_spatial_Mini 08_01 log.txt,37,37
15,0,81.7952,0,936,1551,2975,4263,506,-10.5,200,1,1,82.7687,1,3,,30_10_2014 level23_spatial_Mini 08_01 log.txt,37,37
16,0,85.9813,1,437,2761,2975,4263,502,-6.0,200,0,0,88.4399,1,3,,30_10_2014 level23_spatial_Mini 08_01 log.txt,37,37
17,0,91.843,0,936,1551,2975,4263,509,-12.8,200,1,1,93.037,1,0,,30_10_2014 level23_spatial_Mini 08_01 log.txt,37,37
18,0,95.305,0,437,2761,2975,4263,503,-12.8,200,0,1,96.4901,0,0,,30_10_2014 level23_spatial_Mini 08_01 log.txt,37,37
19,1,98.3864,0,437,2761,2975,4263,503,-12.8,200,0,1,99.3081,0,0,,30_10_2014 level23_spatial_Mini 08_01 log.txt,37,37
20,1,101.0856,0,437,2761,2975,4263,503,-12.8,200,0,0,102.2173,1,0,,30_10_2014 level23_spatial_Mini 08_01 log.txt,37,37
21,0,106.2483,0,936,1551,2975,4263,511,-6.0,200,1,0,107.5183,0,5,,30_10_2014 level23_spatial_Mini 08_01 log.txt,37,37
22,1,113.1827,1,936,1551,2975,4263,511,-6.0,200,1,1,116.0635,1,5,,30_10_2014 level23_spatial_Mini 08_01 log.txt,37,37
23,0,120.6473,0,936,1551,2975,4263,507,-12.8,200,1,1,121.7001,1,5,,30_10_2014 level23_spatial_Mini 08_01 log.txt,37,37
24,0,127.9027,0,437,2761,2975,4263,505,-12.8,200,0,0,128.9055,1,2,,30_10_2014 level23_spatial_Mini 08_01 log.txt,37,37
25,0,134.246,0,936,1551,2975,4263,501,-12.8,200,1,1,135.6644,1,3,,30_10_2014 level23_spatial_Mini 08_01 log.txt,37,37
26,0,139.0954,1,936,1551,2975,4263,510,-15.0,200,1,0,139.9602,0,4,,30_10_2014 level23_spatial_Mini 08_01 log.txt,37,37
27,1,145.3203,1,936,1551,2975,4263,510,-15.0,200,1,1,147.669,1,4,,30_10_2014 level23_spatial_Mini 08_01 log.txt,37,37
28,0,150.2779,0,437,2761,2975,4263,510,-12.8,200,0,0,151.6706,1,1,,30_10_2014 level23_spatial_Mini 08_01 log.txt,37,37
29,0,155.0099,0,437,2761,2975,4263,503,-12.8,200,0,0,155.9892,1,5,,30_10_2014 level23_spatial_Mini 08_01 log.txt,37,37
30,0,159.0542,0,437,2761,2975,4263,505,-15.0,200,0,0,160.0056,1,0,,30_10_2014 level23_spatial_Mini 08_01 log.txt,37,37
31,0,163.8642,1,936,1551,2975,4263,511,-12.8,200,1,0,166.1637,0,1,,30_10_2014 level23_spatial_Mini 08_01 log.txt,37,37
32,1,171.9006,1,936,1551,2975,4263,511,-12.8,200,1,1,174.2935,1,1,,30_10_2014 level23_spatial_Mini 08_01 log.txt,37,37
33,0,178.0581,1,936,1551,2975,4263,502,-6.0,200,1,0,179.7979,0,0,,30_10_2014 level23_spatial_Mini 08_01 log.txt,37,37
34,1,181.6015,1,936,1551,2975,4263,502,-6.0,200,1,1,185.7818,1,0,,30_10_2014 level23_spatial_Mini 08_01 log.txt,37,37
35,0,188.9194,1,936,1551,2975,4263,504,-8.3,200,1,1,191.1106,1,2,,30_10_2014 level23_spatial_Mini 08_01 log.txt,37,37
36,0,194.6959,1,936,1551,2975,4263,506,-15.0,200,1,0,196.8742,0,1,,30_10_2014 level23_spatial_Mini 08_01 log.txt,37,37
37,1,202.8274,1,936,1551,2975,4263,506,-15.0,200,1,1,204.7899,1,1,,30_10_2014 level23_spatial_Mini 08_01 log.txt,37,37
38,0,207.3774,1,936,1551,2975,4263,501,-10.5,200,1,1,209.9177,1,0,,30_10_2014 level23_spatial_Mini 08_01 log.txt,37,37
39,0,213.4932,1,437,2761,2975,4263,509,-10.5,200,0,0,216.116,1,1,,30_10_2014 level23_spatial_Mini 08_01 log.txt,37,37
40,0,220.6906,0,936,1551,2975,4263,507,-10.5,200,1,1,222.0149,1,1,,30_10_2014 level23_spatial_Mini 08_01 log.txt,37,37
41,0,226.3637,0,936,1551,2975,4263,510,-6.0,200,1,0,228.0836,0,4,,30_10_2014 level23_spatial_Mini 08_01 log.txt,37,37
42,1,231.3468,0,936,1551,2975,4263,510,-6.0,200,1,1,233.3467,1,4,,30_10_2014 level23_spatial_Mini 08_01 log.txt,37,37
43,0,238.1935,0,936,1551,2975,4263,503,-15.0,200,1,1,239.4384,1,2,,30_10_2014 level23_spatial_Mini 08_01 log.txt,37,37
44,0,241.0297,1,437,2761,2975,4263,504,-6.0,200,0,0,243.1817,1,0,,30_10_2014 level23_spatial_Mini 08_01 log.txt,37,37
45,0,248.0353,1,437,2761,2975,4263,508,-12.8,200,0,0,250.1684,1,3,,30_10_2014 level23_spatial_Mini 08_01 log.txt,37,37
46,0,254.2078,1,936,1551,2975,4263,506,-15.0,200,1,1,257.8867,1,0,,30_10_2014 level23_spatial_Mini 08_01 log.txt,37,37
47,0,262.075,1,437,2761,2975,4263,511,-10.5,200,0,0,264.9,1,4,,30_10_2014 level23_spatial_Mini 08_01 log.txt,37,37
48,0,269.1393,0,936,1551,2975,4263,507,-10.5,200,1,1,270.2492,1,4,,30_10_2014 level23_spatial_Mini 08_01 log.txt,37,37
49,0,272.9166,0,437,2761,2975,4263,502,-8.3,200,0,1,274.2552,0,3,,30_10_2014 level23_spatial_Mini 08_01 log.txt,37,37
50,1,275.8825,1,437,2761,2975,4263,502,-8.3,200,0,0,277.7478,1,3,,30_10_2014 level23_spatial_Mini 08_01 log.txt,37,37
51,0,281.5269,0,437,2761,2975,4263,505,-8.3,200,0,0,282.8348,1,1,,30_10_2014 level23_spatial_Mini 08_01 log.txt,37,37
52,0,288.0764,0,437,2761,2975,4263,501,-15.0,200,0,1,289.9024,0,4,,30_10_2014 level23_spatial_Mini 08_01 log.txt,37,37
53,1,291.6293,0,437,2761,2975,4263,501,-15.0,200,0,0,292.9799,1,4,,30_10_2014 level23_spatial_Mini 08_01 log.txt,37,37
54,0,297.1662,0,437,2761,2975,4263,509,-15.0,200,0,0,298.2436,1,5,,30_10_2014 level23_spatial_Mini 08_01 log.txt,37,37
55,0,302.0764,1,936,1551,2975,4263,503,-6.0,200,1,1,304.6612,1,2,,30_10_2014 level23_spatial_Mini 08_01 log.txt,37,37
56,0,310.8388,0,437,2761,2975,4263,505,-6.0,200,0,0,313.1138,1,1,,30_10_2014 level23_spatial_Mini 08_01 log.txt,37,37
57,0,318.1391,1,437,2761,2975,4263,507,-12.8,200,0,1,321.373,0,4,,30_10_2014 level23_spatial_Mini 08_01 log.txt,37,37
58,1,323.102,1,437,2761,2975,4263,507,-12.8,200,0,0,325.6096,1,4,,30_10_2014 level23_spatial_Mini 08_01 log.txt,37,37
59,0,330.6172,0,936,1551,2975,4263,510,-12.8,200,1,1,331.6543,1,2,,30_10_2014 level23_spatial_Mini 08_01 log.txt,37,37
60,0,333.1037,0,437,2761,2975,4263,502,-6.0,200,0,1,334.1562,0,4,,30_10_2014 level23_spatial_Mini 08_01 log.txt,37,37
61,1,339.3564,0,437,2761,2975,4263,502,-6.0,200,0,0,340.4435,1,4,,30_10_2014 level23_spatial_Mini 08_01 log.txt,37,37
62,0,345.2013,1,437,2761,2975,4263,511,-8.3,200,0,1,348.0866,0,0,,30_10_2014 level23_spatial_Mini 08_01 log.txt,37,37
63,1,350.0001,0,437,2761,2975,4263,511,-8.3,200,0,0,351.4422,1,0,,30_10_2014 level23_spatial_Mini 08_01 log.txt,37,37
64,0,356.7403,1,936,1551,2975,4263,501,-6.0,200,1,1,359.8307,1,1,,30_10_2014 level23_spatial_Mini 08_01 log.txt,37,37
65,0,362.4659,1,437,2761,2975,4263,504,-6.0,200,0,1,367.4518,0,2,,30_10_2014 level23_spatial_Mini 08_01 log.txt,37,37
66,1,369.2666,1,437,2761,2975,4263,504,-6.0,200,0,0,371.4153,1,2,,30_10_2014 level23_spatial_Mini 08_01 log.txt,37,37
67,0,376.3342,1,936,1551,2975,4263,508,-15.0,200,1,0,379.2962,0,5,,30_10_2014 level23_spatial_Mini 08_01 log.txt,37,37
68,1,386.3683,1,936,1551,2975,4263,508,-15.0,200,1,1,388.8036,1,5,,30_10_2014 level23_spatial_Mini 08_01 log.txt,37,37
69,0,391.1469,1,437,2761,2975,4263,510,-8.3,200,0,0,393.3886,1,2,,30_10_2014 level23_spatial_Mini 08_01 log.txt,37,37
70,0,397.0114,0,936,1551,2975,4263,507,-6.0,200,1,1,398.1089,1,3,,30_10_2014 level23_spatial_Mini 08_01 log.txt,37,37
71,0,401.3736,1,936,1551,2975,4263,508,-8.3,200,1,1,403.6503,1,1,,30_10_2014 level23_spatial_Mini 08_01 log.txt,37,37
72,0,407.5862,0,936,1551,2975,4263,503,-10.5,200,1,1,409.0392,1,2,,30_10_2014 level23_spatial_Mini 08_01 log.txt,37,37
73,0,411.2382,1,936,1551,2975,4263,504,-8.3,200,1,0,413.0364,0,0,,30_10_2014 level23_spatial_Mini 08_01 log.txt,37,37
74,1,415.7352,1,936,1551,2975,4263,504,-8.3,200,1,1,418.698,1,0,,30_10_2014 level23_spatial_Mini 08_01 log.txt,37,37
75,0,423.4633,1,936,1551,2975,4263,506,-10.5,200,1,1,427.0807,1,5,,30_10_2014 level23_spatial_Mini 08_01 log.txt,37,37
76,0,429.1829,0,437,2761,2975,4263,509,-6.0,200,0,0,430.2248,1,5,,30_10_2014 level23_spatial_Mini 08_01 log.txt,37,37
77,0,433.93,1,936,1551,2975,4263,501,-12.8,200,1,1,436.9266,1,4,,30_10_2014 level23_spatial_Mini 08_01 log.txt,37,37
78,0,440.781,1,437,2761,2975,4263,505,-15.0,200,0,0,442.9872,1,3,,30_10_2014 level23_spatial_Mini 08_01 log.txt,37,37
79,0,447.4381,1,437,2761,2975,4263,511,-8.3,200,0,0,450.1373,1,5,,30_10_2014 level23_spatial_Mini 08_01 log.txt,37,37
80,0,453.9578,0,437,2761,2975,4263,507,-6.0,200,0,1,455.4781,0,2,,30_10_2014 level23_spatial_Mini 08_01 log.txt,37,37
81,1,457.0703,0,437,2761,2975,4263,507,-6.0,200,0,1,458.2751,0,2,,30_10_2014 level23_spatial_Mini 08_01 log.txt,37,37
82,1,462.3188,1,437,2761,2975,4263,507,-6.0,200,0,0,464.7771,1,2,,30_10_2014 level23_spatial_Mini 08_01 log.txt,37,37
83,0,468.4272,1,437,2761,2975,4263,511,-10.5,200,0,0,469.9252,1,3,,30_10_2014 level23_spatial_Mini 08_01 log.txt,37,37
84,0,471.963,1,437,2761,2975,4263,503,-6.0,200,0,0,473.1718,1,4,,30_10_2014 level23_spatial_Mini 08_01 log.txt,37,37
85,0,477.2904,0,437,2761,2975,4263,509,-12.8,200,0,0,478.2213,1,5,,30_10_2014 level23_spatial_Mini 08_01 log.txt,37,37
86,0,483.0335,0,437,2761,2975,4263,501,-10.5,200,0,0,484.0266,1,1,,30_10_2014 level23_spatial_Mini 08_01 log.txt,37,37
87,0,488.2184,0,936,1551,2975,4263,510,-6.0,200,1,1,489.3773,1,5,,30_10_2014 level23_spatial_Mini 08_01 log.txt,37,37
88,0,491.2678,0,437,2761,2975,4263,508,-15.0,200,0,1,492.4731,0,1,,30_10_2014 level23_spatial_Mini 08_01 log.txt,37,37
89,1,495.702,0,437,2761,2975,4263,508,-15.0,200,0,0,496.6821,1,1,,30_10_2014 level23_spatial_Mini 08_01 log.txt,37,37
90,0,500.7266,1,437,2761,2975,4263,502,-12.8,200,0,0,502.0885,1,4,,30_10_2014 level23_spatial_Mini 08_01 log.txt,37,37
91,0,504.623,0,936,1551,2975,4263,505,-15.0,200,1,0,506.1832,0,3,,30_10_2014 level23_spatial_Mini 08_01 log.txt,37,37
92,1,509.0951,0,936,1551,2975,4263,505,-15.0,200,1,0,510.0934,0,3,,30_10_2014 level23_spatial_Mini 08_01 log.txt,37,37
93,1,519.1637,1,936,1551,2975,4263,505,-15.0,200,1,1,520.4173,1,3,,30_10_2014 level23_spatial_Mini 08_01 log.txt,37,37
94,0,521.9808,0,936,1551,2975,4263,504,-15.0,200,1,1,524.3108,1,1,,30_10_2014 level23_spatial_Mini 08_01 log.txt,37,37
95,0,526.7123,0,936,1551,2975,4263,504,-6.0,200,1,1,527.5015,1,2,,30_10_2014 level23_spatial_Mini 08_01 log.txt,37,37
96,0,530.7409,0,437,2761,2975,4263,510,-8.3,200,0,0,532.368,1,3,,30_10_2014 level23_spatial_Mini 08_01 log.txt,37,37
97,0,536.5355,1,437,2761,2975,4263,501,-12.8,200,0,1,538.6385,0,2,,30_10_2014 level23_spatial_Mini 08_01 log.txt,37,37
98,1,550.4972,0,437,2761,2975,4263,501,-12.8,200,0,0,551.7788,1,2,,30_10_2014 level23_spatial_Mini 08_01 log.txt,37,37
1,0,10.4739,0,936,1551,2975,4263,501,-10.5,200,1,0,13.7585,0,3,,31_10_2014 level23_spatial_Mini 14_15 log.txt,37,37
2,1,17.2333,1,936,1551,2975,4263,501,-10.5,200,1,0,19.722,0,3,,31_10_2014 level23_spatial_Mini 14_15 log.txt,37,37
3,1,24.0564,0,936,1551,2975,4263,501,-10.5,200,1,1,25.6666,1,3,,31_10_2014 level23_spatial_Mini 14_15 log.txt,37,37
4,0,27.9972,1,437,2761,2975,4263,504,-10.5,200,0,0,30.3956,1,4,,31_10_2014 level23_spatial_Mini 14_15 log.txt,37,37
5,0,34.58,1,437,2761,2975,4263,502,-6.0,200,0,0,36.6416,1,3,,31_10_2014 level23_spatial_Mini 14_15 log.txt,37,37
6,0,40.3287,0,936,1551,2975,4263,503,-6.0,200,1,1,43.2854,1,1,,31_10_2014 level23_spatial_Mini 14_15 log.txt,37,37
7,0,44.6683,0,936,1551,2975,4263,506,-15.0,200,1,1,45.87,1,3,,31_10_2014 level23_spatial_Mini 14_15 log.txt,37,37
8,0,47.4885,1,936,1551,2975,4263,505,-12.8,200,1,1,50.069,1,1,,31_10_2014 level23_spatial_Mini 14_15 log.txt,37,37
9,0,53.4037,0,936,1551,2975,4263,508,-12.8,200,1,1,54.7413,1,4,,31_10_2014 level23_spatial_Mini 14_15 log.txt,37,37
10,0,57.9063,0,936,1551,2975,4263,509,-15.0,200,1,1,59.0362,1,1,,31_10_2014 level23_spatial_Mini 14_15 log.txt,37,37
11,0,62.9871,0,437,2761,2975,4263,510,-8.3,200,0,0,64.0384,1,4,,31_10_2014 level23_spatial_Mini 14_15 log.txt,37,37
12,0,68.9432,1,936,1551,2975,4263,507,-6.0,200,1,0,71.289,0,5,,31_10_2014 level23_spatial_Mini 14_15 log.txt,37,37
13,1,75.3749,0,936,1551,2975,4263,507,-6.0,200,1,1,77.1739,1,5,,31_10_2014 level23_spatial_Mini 14_15 log.txt,37,37
14,0,79.4986,1,936,1551,2975,4263,509,-6.0,200,1,1,82.1894,1,2,,31_10_2014 level23_spatial_Mini 14_15 log.txt,37,37
15,0,85.6628,1,936,1551,2975,4263,501,-10.5,200,1,1,88.4651,1,4,,31_10_2014 level23_spatial_Mini 14_15 log.txt,37,37
16,0,97.0642,0,437,2761,2975,4263,506,-12.8,200,0,0,97.9916,1,5,,31_10_2014 level23_spatial_Mini 14_15 log.txt,37,37
17,0,103.0529,0,437,2761,2975,4263,504,-12.8,200,0,0,104.1156,1,2,,31_10_2014 level23_spatial_Mini 14_15 log.txt,37,37
18,0,112.2108,0,936,1551,2975,4263,503,-12.8,200,1,1,113.5563,1,3,,31_10_2014 level23_spatial_Mini 14_15 log.txt,37,37
19,0,117.0388,1,437,2761,2975,4263,508,-10.5,200,0,0,119.2947,1,2,,31_10_2014 level23_spatial_Mini 14_15 log.txt,37,37
20,0,123.2927,0,936,1551,2975,4263,502,-15.0,200,1,1,124.7997,1,5,,31_10_2014 level23_spatial_Mini 14_15 log.txt,37,37
21,0,127.6958,0,936,1551,2975,4263,510,-6.0,200,1,1,129.1078,1,0,,31_10_2014 level23_spatial_Mini 14_15 log.txt,37,37
22,0,132.2715,1,936,1551,2975,4263,511,-15.0,200,1,1,135.2109,1,2,,31_10_2014 level23_spatial_Mini 14_15 log.txt,37,37
23,0,138.9672,1,437,2761,2975,4263,507,-8.3,200,0,0,141.1462,1,5,,31_10_2014 level23_spatial_Mini 14_15 log.txt,37,37
24,0,144.9716,0,437,2761,2975,4263,501,-15.0,200,0,0,144.9867,1,3,,31_10_2014 level23_spatial_Mini 14_15 log.txt,37,37
25,0,149.1593,0,936,1551,2975,4263,505,-10.5,200,1,1,150.7691,1,0,,31_10_2014 level23_spatial_Mini 14_15 log.txt,37,37
26,0,153.4022,0,936,1551,2975,4263,508,-12.8,200,1,1,155.3304,1,5,,31_10_2014 level23_spatial_Mini 14_15 log.txt,37,37
27,0,158.5688,1,437,2761,2975,4263,511,-8.3,200,0,1,161.1821,0,1,,31_10_2014 level23_spatial_Mini 14_15 log.txt,37,37
28,1,168.4066,1,437,2761,2975,4263,511,-8.3,200,0,1,172.7106,0,1,,31_10_2014 level23_spatial_Mini 14_15 log.txt,37,37
29,1,178.1691,1,437,2761,2975,4263,511,-8.3,200,0,1,180.6952,0,1,,31_10_2014 level23_spatial_Mini 14_15 log.txt,37,37
30,1,182.2961,0,437,2761,2975,4263,511,-8.3,200,0,0,183.6976,1,1,,31_10_2014 level23_spatial_Mini 14_15 log.txt,37,37
31,0,188.3183,0,936,1551,2975,4263,507,-15.0,200,1,1,189.4779,1,0,,31_10_2014 level23_spatial_Mini 14_15 log.txt,37,37
32,0,192.4013,0,936,1551,2975,4263,504,-8.3,200,1,1,193.5999,1,2,,31_10_2014 level23_spatial_Mini 14_15 log.txt,37,37
33,0,196.4283,0,936,1551,2975,4263,510,-10.5,200,1,1,197.8416,1,5,,31_10_2014 level23_spatial_Mini 14_15 log.txt,37,37
34,0,200.575,1,936,1551,2975,4263,503,-6.0,200,1,0,202.8063,0,3,,31_10_2014 level23_spatial_Mini 14_15 log.txt,37,37
35,1,206.3213,1,936,1551,2975,4263,503,-6.0,200,1,0,217.7581,0,3,,31_10_2014 level23_spatial_Mini 14_15 log.txt,37,37
36,1,223.3008,1,936,1551,2975,4263,503,-6.0,200,1,1,225.7869,1,3,,31_10_2014 level23_spatial_Mini 14_15 log.txt,37,37
37,0,228.4772,1,437,2761,2975,4263,509,-12.8,200,0,1,231.0514,0,3,,31_10_2014 level23_spatial_Mini 14_15 log.txt,37,37
38,1,233.1625,1,437,2761,2975,4263,509,-12.8,200,0,0,236.903,1,3,,31_10_2014 level23_spatial_Mini 14_15 log.txt,37,37
39,0,240.7185,1,437,2761,2975,4263,502,-15.0,200,0,0,242.5879,1,2,,31_10_2014 level23_spatial_Mini 14_15 log.txt,37,37
40,0,246.4385,0,437,2761,2975,4263,505,-10.5,200,0,0,248.012,1,3,,31_10_2014 level23_spatial_Mini 14_15 log.txt,37,37
41,0,251.8581,0,437,2761,2975,4263,501,-10.5,200,0,0,252.8656,1,1,,31_10_2014 level23_spatial_Mini 14_15 log.txt,37,37
42,0,257.9211,0,437,2761,2975,4263,502,-12.8,200,0,0,257.9655,1,0,,31_10_2014 level23_spatial_Mini 14_15 log.txt,37,37
43,0,264.0773,0,936,1551,2975,4263,506,-8.3,200,1,1,265.3839,1,0,,31_10_2014 level23_spatial_Mini 14_15 log.txt,37,37
44,0,267.3414,0,437,2761,2975,4263,507,-15.0,200,0,0,268.4977,1,1,,31_10_2014 level23_spatial_Mini 14_15 log.txt,37,37
45,0,272.1628,0,936,1551,2975,4263,509,-8.3,200,1,0,273.4291,0,4,,31_10_2014 level23_spatial_Mini 14_15 log.txt,37,37
46,1,275.2238,1,936,1551,2975,4263,509,-8.3,200,1,1,278.0971,1,4,,31_10_2014 level23_spatial_Mini 14_15 log.txt,37,37
47,0,281.0937,0,437,2761,2975,4263,511,-10.5,200,0,0,282.6624,1,5,,31_10_2014 level23_spatial_Mini 14_15 log.txt,37,37
48,0,285.0333,0,437,2761,2975,4263,510,-6.0,200,0,0,286.2529,1,2,,31_10_2014 level23_spatial_Mini 14_15 log.txt,37,37
49,0,295.1961,1,437,2761,2975,4263,504,-8.3,200,0,0,295.3165,1,0,,31_10_2014 level23_spatial_Mini 14_15 log.txt,37,37
50,0,302.5763,0,437,2761,2975,4263,503,-6.0,200,0,0,302.6902,1,4,,31_10_2014 level23_spatial_Mini 14_15 log.txt,37,37
51,0,308.1901,1,936,1551,2975,4263,509,-15.0,200,1,0,308.1987,0,4,,31_10_2014 level23_spatial_Mini 14_15 log.txt,37,37
52,1,312.4389,1,936,1551,2975,4263,509,-15.0,200,1,0,312.5001,0,4,,31_10_2014 level23_spatial_Mini 14_15 log.txt,37,37
53,1,316.4397,1,936,1551,2975,4263,509,-15.0,200,1,0,316.4942,0,4,,31_10_2014 level23_spatial_Mini 14_15 log.txt,37,37
54,1,320.5778,0,936,1551,2975,4263,509,-15.0,200,1,0,320.642,0,4,,31_10_2014 level23_spatial_Mini 14_15 log.txt,37,37
55,1,333.2155,1,936,1551,2975,4263,509,-15.0,200,1,0,333.2389,0,4,,31_10_2014 level23_spatial_Mini 14_15 log.txt,37,37
56,1,348.0184,0,936,1551,2975,4263,509,-15.0,200,1,1,349.5444,1,4,,31_10_2014 level23_spatial_Mini 14_15 log.txt,37,37
57,0,351.6461,1,437,2761,2975,4263,506,-6.0,200,0,0,354.5773,1,1,,31_10_2014 level23_spatial_Mini 14_15 log.txt,37,37
58,0,360.8901,0,437,2761,2975,4263,507,-15.0,200,0,0,360.8757,1,5,,31_10_2014 level23_spatial_Mini 14_15 log.txt,37,37
59,0,381.9202,1,437,2761,2975,4263,511,-6.0,200,0,0,383.4711,1,0,,31_10_2014 level23_spatial_Mini 14_15 log.txt,37,37
60,0,385.9301,1,437,2761,2975,4263,508,-8.3,200,0,0,388.4294,1,2,,31_10_2014 level23_spatial_Mini 14_15 log.txt,37,37
61,0,393.102,1,936,1551,2975,4263,501,-12.8,200,1,0,395.4203,0,2,,31_10_2014 level23_spatial_Mini 14_15 log.txt,37,37
62,1,406.4881,1,936,1551,2975,4263,501,-12.8,200,1,0,409.0874,0,2,,31_10_2014 level23_spatial_Mini 14_15 log.txt,37,37
63,1,435.2562,0,936,1551,2975,4263,501,-12.8,200,1,0,435.3565,0,2,,31_10_2014 level23_spatial_Mini 14_15 log.txt,37,37
64,1,536.0192,0,936,1551,2975,4263,501,-12.8,200,1,0,537.4036,0,2,,31_10_2014 level23_spatial_Mini 14_15 log.txt,37,37
65,1,585.0946,1,936,1551,2975,4263,501,-12.8,200,1,0,589.1151,0,2,,31_10_2014 level23_spatial_Mini 14_15 log.txt,37,37
1,0,0.9648,1,936,1551,2975,4263,508,-6.0,200,1,0,2.548,0,3,,17_11_2014 level23_spatial_Mini 10_07 log.txt,37,37
2,1,7.0151,0,936,1551,2975,4263,508,-6.0,200,1,0,8.3249,0,3,,17_11_2014 level23_spatial_Mini 10_07 log.txt,37,37
3,1,10.9915,0,936,1551,2975,4263,508,-6.0,200,1,0,12.734,0,3,,17_11_2014 level23_spatial_Mini 10_07 log.txt,37,37
4,1,16.8833,1,936,1551,2975,4263,508,-6.0,200,1,0,17.8994,0,3,,17_11_2014 level23_spatial_Mini 10_07 log.txt,37,37
5,1,19.6731,0,936,1551,2975,4263,508,-6.0,200,1,0,24.9529,0,3,,17_11_2014 level23_spatial_Mini 10_07 log.txt,37,37
6,1,35.7733,1,936,1551,2975,4263,508,-6.0,200,1,1,47.7323,1,3,,17_11_2014 level23_spatial_Mini 10_07 log.txt,37,37
7,0,61.5319,0,437,2761,2975,4263,505,-15.0,200,0,0,74.093,1,1,,17_11_2014 level23_spatial_Mini 10_07 log.txt,37,37
8,0,82.6338,0,437,2761,2975,4263,501,-8.3,200,0,0,83.7323,1,0,,17_11_2014 level23_spatial_Mini 10_07 log.txt,37,37
9,0,88.6175,0,437,2761,2975,4263,511,-6.0,200,0,0,89.3699,1,1,,17_11_2014 level23_spatial_Mini 10_07 log.txt,37,37
10,0,99.3071,1,437,2761,2975,4263,503,-6.0,200,0,1,102.1618,0,5,,17_11_2014 level23_spatial_Mini 10_07 log.txt,37,37
11,1,104.2716,0,437,2761,2975,4263,503,-6.0,200,0,0,105.4146,1,5,,17_11_2014 level23_spatial_Mini 10_07 log.txt,37,37
12,0,111.277,1,936,1551,2975,4263,510,-15.0,200,1,0,112.4248,0,2,,17_11_2014 level23_spatial_Mini 10_07 log.txt,37,37
13,1,115.7242,0,936,1551,2975,4263,510,-15.0,200,1,1,116.9365,1,2,,17_11_2014 level23_spatial_Mini 10_07 log.txt,37,37
14,0,118.6421,0,936,1551,2975,4263,504,-6.0,200,1,1,119.4946,1,5,,17_11_2014 level23_spatial_Mini 10_07 log.txt,37,37
15,0,122.0234,1,936,1551,2975,4263,502,-10.5,200,1,0,122.846,0,3,,17_11_2014 level23_spatial_Mini 10_07 log.txt,37,37
16,1,127.1185,1,936,1551,2975,4263,502,-10.5,200,1,0,130.7233,0,3,,17_11_2014 level23_spatial_Mini 10_07 log.txt,37,37
17,1,133.3713,0,936,1551,2975,4263,502,-10.5,200,1,0,134.4241,0,3,,17_11_2014 level23_spatial_Mini 10_07 log.txt,37,37
18,1,146.1907,0,936,1551,2975,4263,502,-10.5,200,1,1,147.7733,1,3,,17_11_2014 level23_spatial_Mini 10_07 log.txt,37,37
19,0,150.7423,1,936,1551,2975,4263,509,-6.0,200,1,0,152.0356,0,2,,17_11_2014 level23_spatial_Mini 10_07 log.txt,37,37
20,1,155.1369,0,936,1551,2975,4263,509,-6.0,200,1,0,156.2855,0,2,,17_11_2014 level23_spatial_Mini 10_07 log.txt,37,37
21,1,163.1136,1,936,1551,2975,4263,509,-6.0,200,1,1,168.0345,1,2,,17_11_2014 level23_spatial_Mini 10_07 log.txt,37,37
22,0,174.6696,1,936,1551,2975,4263,506,-12.8,200,1,0,175.7099,0,2,,17_11_2014 level23_spatial_Mini 10_07 log.txt,37,37
23,1,179.3776,0,936,1551,2975,4263,506,-12.8,200,1,1,181.3294,1,2,,17_11_2014 level23_spatial_Mini 10_07 log.txt,37,37
24,0,189.4549,1,437,2761,2975,4263,511,-8.3,200,0,0,190.4235,1,2,,17_11_2014 level23_spatial_Mini 10_07 log.txt,37,37
25,0,198.9169,0,936,1551,2975,4263,508,-8.3,200,1,1,200.213,1,5,,17_11_2014 level23_spatial_Mini 10_07 log.txt,37,37
26,0,208.6287,0,936,1551,2975,4263,505,-8.3,200,1,0,209.4066,0,2,,17_11_2014 level23_spatial_Mini 10_07 log.txt,37,37
27,1,212.0889,0,936,1551,2975,4263,505,-8.3,200,1,1,213.8456,1,2,,17_11_2014 level23_spatial_Mini 10_07 log.txt,37,37
28,0,219.2728,0,936,1551,2975,4263,504,-10.5,200,1,0,220.2198,0,5,,17_11_2014 level23_spatial_Mini 10_07 log.txt,37,37
29,1,233.08,1,936,1551,2975,4263,504,-10.5,200,1,1,235.2158,1,5,,17_11_2014 level23_spatial_Mini 10_07 log.txt,37,37
30,0,237.5461,1,936,1551,2975,4263,509,-15.0,200,1,0,240.6537,0,1,,17_11_2014 level23_spatial_Mini 10_07 log.txt,37,37
31,1,249.0666,0,936,1551,2975,4263,509,-15.0,200,1,0,253.9051,0,1,,17_11_2014 level23_spatial_Mini 10_07 log.txt,37,37
32,1,277.2941,0,936,1551,2975,4263,509,-15.0,200,1,1,278.9395,1,1,,17_11_2014 level23_spatial_Mini 10_07 log.txt,37,37
33,0,283.5736,0,437,2761,2975,4263,510,-15.0,200,0,0,284.6031,1,0,,17_11_2014 level23_spatial_Mini 10_07 log.txt,37,37
34,0,300.1902,0,437,2761,2975,4263,501,-6.0,200,0,0,301.3751,1,3,,17_11_2014 level23_spatial_Mini 10_07 log.txt,37,37
35,0,313.8881,0,437,2761,2975,4263,507,-6.0,200,0,0,315.2732,1,0,,17_11_2014 level23_spatial_Mini 10_07 log.txt,37,37
36,0,317.1097,0,437,2761,2975,4263,503,-15.0,200,0,0,318.6615,1,2,,17_11_2014 level23_spatial_Mini 10_07 log.txt,37,37
37,0,321.1927,0,437,2761,2975,4263,506,-6.0,200,0,0,322.6923,1,2,,17_11_2014 level23_spatial_Mini 10_07 log.txt,37,37
38,0,325.4312,0,936,1551,2975,4263,506,-10.5,200,1,1,327.9487,1,2,,17_11_2014 level23_spatial_Mini 10_07 log.txt,37,37
39,0,332.2028,1,437,2761,2975,4263,504,-15.0,200,0,1,333.2895,0,3,,17_11_2014 level23_spatial_Mini 10_07 log.txt,37,37
40,1,337.4238,1,437,2761,2975,4263,504,-15.0,200,0,0,338.3076,1,3,,17_11_2014 level23_spatial_Mini 10_07 log.txt,37,37
41,0,343.4342,0,437,2761,2975,4263,505,-10.5,200,0,0,344.1533,1,4,,17_11_2014 level23_spatial_Mini 10_07 log.txt,37,37
42,0,345.6587,1,936,1551,2975,4263,501,-8.3,200,1,1,351.53,1,1,,17_11_2014 level23_spatial_Mini 10_07 log.txt,37,37
43,0,355.632,0,936,1551,2975,4263,507,-12.8,200,1,0,357.3082,0,3,,17_11_2014 level23_spatial_Mini 10_07 log.txt,37,37
44,1,362.7387,1,936,1551,2975,4263,507,-12.8,200,1,0,363.6071,0,3,,17_11_2014 level23_spatial_Mini 10_07 log.txt,37,37
45,1,376.8162,0,936,1551,2975,4263,507,-12.8,200,1,0,377.4872,0,3,,17_11_2014 level23_spatial_Mini 10_07 log.txt,37,37
46,1,383.3999,0,936,1551,2975,4263,507,-12.8,200,1,0,406.9032,0,3,,17_11_2014 level23_spatial_Mini 10_07 log.txt,37,37
47,1,412.274,1,936,1551,2975,4263,507,-12.8,200,1,0,429.92,0,3,,17_11_2014 level23_spatial_Mini 10_07 log.txt,37,37
48,1,440.3454,1,936,1551,2975,4263,507,-12.8,200,1,1,441.6238,1,3,,17_11_2014 level23_spatial_Mini 10_07 log.txt,37,37
49,0,446.708,0,437,2761,2975,4263,510,-8.3,200,0,0,447.1488,1,4,,17_11_2014 level23_spatial_Mini 10_07 log.txt,37,37
50,0,453.8669,0,936,1551,2975,4263,502,-10.5,200,1,0,454.9818,0,4,,17_11_2014 level23_spatial_Mini 10_07 log.txt,37,37
51,1,458.0545,1,936,1551,2975,4263,502,-10.5,200,1,1,459.1557,1,4,,17_11_2014 level23_spatial_Mini 10_07 log.txt,37,37
52,0,462.6452,0,437,2761,2975,4263,503,-6.0,200,0,0,463.2971,1,4,,17_11_2014 level23_spatial_Mini 10_07 log.txt,37,37
53,0,470.2657,0,936,1551,2975,4263,508,-8.3,200,1,0,471.3203,0,0,,17_11_2014 level23_spatial_Mini 10_07 log.txt,37,37
54,1,476.6417,0,936,1551,2975,4263,508,-8.3,200,1,0,477.546,0,0,,17_11_2014 level23_spatial_Mini 10_07 log.txt,37,37
55,1,479.9869,1,936,1551,2975,4263,508,-8.3,200,1,1,481.1477,1,0,,17_11_2014 level23_spatial_Mini 10_07 log.txt,37,37
56,0,484.2621,0,936,1551,2975,4263,511,-10.5,200,1,1,485.3617,1,0,,17_11_2014 level23_spatial_Mini 10_07 log.txt,37,37
57,0,487.6337,0,936,1551,2975,4263,510,-12.8,200,1,0,488.624,0,0,,17_11_2014 level23_spatial_Mini 10_07 log.txt,37,37
58,1,499.628,0,936,1551,2975,4263,510,-12.8,200,1,0,500.7686,0,0,,17_11_2014 level23_spatial_Mini 10_07 log.txt,37,37
59,1,505.1188,0,936,1551,2975,4263,510,-12.8,200,1,0,506.0942,0,0,,17_11_2014 level23_spatial_Mini 10_07 log.txt,37,37
60,1,509.718,0,936,1551,2975,4263,510,-12.8,200,1,1,511.8332,1,0,,17_11_2014 level23_spatial_Mini 10_07 log.txt,37,37
61,0,520.2914,0,936,1551,2975,4263,509,-12.8,200,1,1,521.874,1,1,,17_11_2014 level23_spatial_Mini 10_07 log.txt,37,37
62,0,533.9686,0,936,1551,2975,4263,504,-6.0,200,1,1,535.4502,1,4,,17_11_2014 level23_spatial_Mini 10_07 log.txt,37,37
63,0,538.4771,1,437,2761,2975,4263,502,-12.8,200,0,0,539.4376,1,2,,17_11_2014 level23_spatial_Mini 10_07 log.txt,37,37
64,0,547.0699,0,437,2761,2975,4263,501,-8.3,200,0,0,547.9695,1,3,,17_11_2014 level23_spatial_Mini 10_07 log.txt,37,37
65,0,558.5087,1,437,2761,2975,4263,505,-10.5,200,0,0,559.3884,1,5,,17_11_2014 level23_spatial_Mini 10_07 log.txt,37,37
66,0,565.6273,0,437,2761,2975,4263,506,-15.0,200,0,0,566.0291,1,5,,17_11_2014 level23_spatial_Mini 10_07 log.txt,37,37
67,0,574.4552,1,437,2761,2975,4263,503,-12.8,200,0,0,574.7791,1,4,,17_11_2014 level23_spatial_Mini 10_07 log.txt,37,37
68,0,580.6787,0,936,1551,2975,4263,507,-12.8,200,1,0,581.0103,0,5,,17_11_2014 level23_spatial_Mini 10_07 log.txt,37,37
69,1,582.7806,1,936,1551,2975,4263,507,-12.8,200,1,0,583.3703,0,5,,17_11_2014 level23_spatial_Mini 10_07 log.txt,37,37
70,1,585.3737,0,936,1551,2975,4263,507,-12.8,200,1,0,585.9869,0,5,,17_11_2014 level23_spatial_Mini 10_07 log.txt,37,37
71,1,588.0161,0,936,1551,2975,4263,507,-12.8,200,1,0,589.0089,0,5,,17_11_2014 level23_spatial_Mini 10_07 log.txt,37,37
72,1,593.3763,1,936,1551,2975,4263,507,-12.8,200,1,0,593.5525,0,5,,17_11_2014 level23_spatial_Mini 10_07 log.txt,37,37
73,1,595.4072,0,936,1551,2975,4263,507,-12.8,200,1,1,596.079,1,5,,17_11_2014 level23_spatial_Mini 10_07 log.txt,37,37
74,0,599.4707,1,936,1551,2975,4263,511,-6.0,200,1,1,600.4013,1,0,,17_11_2014 level23_spatial_Mini 10_07 log.txt,37,37
75,0,603.2986,0,936,1551,2975,4263,505,-15.0,200,1,0,603.8317,0,3,,17_11_2014 level23_spatial_Mini 10_07 log.txt,37,37
76,1,609.897,1,936,1551,2975,4263,505,-15.0,200,1,0,611.4857,0,3,,17_11_2014 level23_spatial_Mini 10_07 log.txt,37,37
77,1,613.3895,0,936,1551,2975,4263,505,-15.0,200,1,1,615.1104,1,3,,17_11_2014 level23_spatial_Mini 10_07 log.txt,37,37
78,0,621.3281,0,437,2761,2975,4263,504,-10.5,200,0,0,622.3287,1,1,,17_11_2014 level23_spatial_Mini 10_07 log.txt,37,37
79,0,631.6582,1,437,2761,2975,4263,507,-12.8,200,0,0,632.3618,1,1,,17_11_2014 level23_spatial_Mini 10_07 log.txt,37,37
80,0,645.6043,0,437,2761,2975,4263,506,-12.8,200,0,0,646.0506,1,5,,17_11_2014 level23_spatial_Mini 10_07 log.txt,37,37
81,0,652.3915,1,437,2761,2975,4263,508,-8.3,200,0,0,652.9202,1,1,,17_11_2014 level23_spatial_Mini 10_07 log.txt,37,37
82,0,663.9701,1,437,2761,2975,4263,503,-15.0,200,0,0,664.7008,1,4,,17_11_2014 level23_spatial_Mini 10_07 log.txt,37,37
83,0,667.9321,1,936,1551,2975,4263,509,-15.0,200,1,0,668.3918,0,4,,17_11_2014 level23_spatial_Mini 10_07 log.txt,37,37
84,1,672.5132,1,936,1551,2975,4263,509,-15.0,200,1,0,673.4464,0,4,,17_11_2014 level23_spatial_Mini 10_07 log.txt,37,37
85,1,678.7034,0,936,1551,2975,4263,509,-15.0,200,1,1,679.6691,1,4,,17_11_2014 level23_spatial_Mini 10_07 log.txt,37,37
86,0,684.6335,1,936,1551,2975,4263,502,-8.3,200,1,0,685.6154,0,4,,17_11_2014 level23_spatial_Mini 10_07 log.txt,37,37
87,1,691.8141,0,936,1551,2975,4263,502,-8.3,200,1,0,692.8232,0,4,,17_11_2014 level23_spatial_Mini 10_07 log.txt,37,37
88,1,697.9205,1,936,1551,2975,4263,502,-8.3,200,1,0,699.111,0,4,,17_11_2014 level23_spatial_Mini 10_07 log.txt,37,37
89,1,705.8818,0,936,1551,2975,4263,502,-8.3,200,1,1,707.6407,1,4,,17_11_2014 level23_spatial_Mini 10_07 log.txt,37,37
90,0,709.6105,0,936,1551,2975,4263,510,-8.3,200,1,0,710.5632,0,3,,17_11_2014 level23_spatial_Mini 10_07 log.txt,37,37
91,1,713.3078,1,936,1551,2975,4263,510,-8.3,200,1,0,714.4039,0,3,,17_11_2014 level23_spatial_Mini 10_07 log.txt,37,37
92,1,721.5186,0,936,1551,2975,4263,510,-8.3,200,1,1,722.8385,1,3,,17_11_2014 level23_spatial_Mini 10_07 log.txt,37,37
93,0,725.7201,0,437,2761,2975,4263,511,-10.5,200,0,0,726.2004,1,2,,17_11_2014 level23_spatial_Mini 10_07 log.txt,37,37
94,0,733.6551,1,936,1551,2975,4263,509,-10.5,200,1,0,734.2222,0,1,,17_11_2014 level23_spatial_Mini 10_07 log.txt,37,37
95,1,738.8786,1,936,1551,2975,4263,509,-10.5,200,1,0,739.6277,0,1,,17_11_2014 level23_spatial_Mini 10_07 log.txt,37,37
96,1,742.7513,1,936,1551,2975,4263,509,-10.5,200,1,0,743.7925,0,1,,17_11_2014 level23_spatial_Mini 10_07 log.txt,37,37
97,1,748.4572,0,936,1551,2975,4263,509,-10.5,200,1,1,752.5741,1,1,,17_11_2014 level23_spatial_Mini 10_07 log.txt,37,37
98,0,759.9709,0,936,1551,2975,4263,506,-12.8,200,1,0,760.8698,0,4,,17_11_2014 level23_spatial_Mini 10_07 log.txt,37,37
99,1,764.038,1,936,1551,2975,4263,506,-12.8,200,1,0,770.9833,0,4,,17_11_2014 level23_spatial_Mini 10_07 log.txt,37,37
100,1,779.1698,1,936,1551,2975,4263,506,-12.8,200,1,1,785.0634,1,4,,17_11_2014 level23_spatial_Mini 10_07 log.txt,37,37
101,0,786.8888,1,437,2761,2975,4263,502,-12.8,200,0,0,791.6873,1,0,,17_11_2014 level23_spatial_Mini 10_07 log.txt,37,37
102,0,795.9911,1,437,2761,2975,4263,503,-10.5,200,0,0,797.6804,1,0,,17_11_2014 level23_spatial_Mini 10_07 log.txt,37,37
103,0,801.9093,1,437,2761,2975,4263,511,-12.8,200,0,0,804.2115,1,3,,17_11_2014 level23_spatial_Mini 10_07 log.txt,37,37
104,0,809.1392,0,437,2761,2975,4263,501,-10.5,200,0,0,810.7474,1,3,,17_11_2014 level23_spatial_Mini 10_07 log.txt,37,37
105,0,817.4448,0,936,1551,2975,4263,507,-15.0,200,1,0,819.287,0,0,,17_11_2014 level23_spatial_Mini 10_07 log.txt,37,37
106,1,820.9831,1,936,1551,2975,4263,507,-15.0,200,1,0,827.1098,0,0,,17_11_2014 level23_spatial_Mini 10_07 log.txt,37,37
107,1,829.7529,0,936,1551,2975,4263,507,-15.0,200,1,1,830.9155,1,0,,17_11_2014 level23_spatial_Mini 10_07 log.txt,37,37
108,0,849.2244,0,936,1551,2975,4263,504,-6.0,200,1,0,850.5409,0,1,,17_11_2014 level23_spatial_Mini 10_07 log.txt,37,37
109,1,852.7328,1,936,1551,2975,4263,504,-6.0,200,1,0,854.7004,0,1,,17_11_2014 level23_spatial_Mini 10_07 log.txt,37,37
110,1,856.5516,0,936,1551,2975,4263,504,-6.0,200,1,0,857.593,0,1,,17_11_2014 level23_spatial_Mini 10_07 log.txt,37,37
111,1,866.4651,0,936,1551,2975,4263,504,-6.0,200,1,1,867.2657,1,1,,17_11_2014 level23_spatial_Mini 10_07 log.txt,37,37
112,0,869.7981,0,437,2761,2975,4263,508,-8.3,200,0,1,871.2906,0,5,,17_11_2014 level23_spatial_Mini 10_07 log.txt,37,37
113,1,873.0132,0,437,2761,2975,4263,508,-8.3,200,0,0,873.6458,1,5,,17_11_2014 level23_spatial_Mini 10_07 log.txt,37,37
114,0,879.2818,1,936,1551,2975,4263,510,-15.0,200,1,0,879.9636,0,5,,17_11_2014 level23_spatial_Mini 10_07 log.txt,37,37
115,1,882.2261,1,936,1551,2975,4263,510,-15.0,200,1,0,887.0548,0,5,,17_11_2014 level23_spatial_Mini 10_07 log.txt,37,37
116,1,889.9994,0,936,1551,2975,4263,510,-15.0,200,1,0,890.9052,0,5,,17_11_2014 level23_spatial_Mini 10_07 log.txt,37,37
117,1,892.6564,0,936,1551,2975,4263,510,-15.0,200,1,0,894.2544,0,5,,17_11_2014 level23_spatial_Mini 10_07 log.txt,37,37
118,1,896.2439,0,936,1551,2975,4263,510,-15.0,200,1,1,898.0216,1,5,,17_11_2014 level23_spatial_Mini 10_07 log.txt,37,37
119,0,911.6032,1,936,1551,2975,4263,506,-12.8,200,1,0,913.3072,0,1,,17_11_2014 level23_spatial_Mini 10_07 log.txt,37,37
120,1,915.7645,1,936,1551,2975,4263,506,-12.8,200,1,0,918.3112,0,1,,17_11_2014 level23_spatial_Mini 10_07 log.txt,37,37
121,1,922.4982,1,936,1551,2975,4263,506,-12.8,200,1,0,925.058,0,1,,17_11_2014 level23_spatial_Mini 10_07 log.txt,37,37
122,1,927.3994,1,936,1551,2975,4263,506,-12.8,200,1,1,932.7266,1,1,,17_11_2014 level23_spatial_Mini 10_07 log.txt,37,37
123,0,944.1015,1,437,2761,2975,4263,511,-10.5,200,0,0,948.8015,1,3,,17_11_2014 level23_spatial_Mini 10_07 log.txt,37,37
124,0,953.8376,1,437,2761,2975,4263,502,-15.0,200,0,0,955.9927,1,1,,17_11_2014 level23_spatial_Mini 10_07 log.txt,37,37
125,0,962.0186,1,936,1551,2975,4263,503,-10.5,200,1,0,964.2934,0,4,,17_11_2014 level23_spatial_Mini 10_07 log.txt,37,37
126,1,967.9248,0,936,1551,2975,4263,503,-10.5,200,1,0,970.2475,0,4,,17_11_2014 level23_spatial_Mini 10_07 log.txt,37,37
127,1,975.5093,1,936,1551,2975,4263,503,-10.5,200,1,1,978.5672,1,4,,17_11_2014 level23_spatial_Mini 10_07 log.txt,37,37
128,0,980.895,0,936,1551,2975,4263,504,-10.5,200,1,1,982.7304,1,5,,17_11_2014 level23_spatial_Mini 10_07 log.txt,37,37
129,0,996.505,1,437,2761,2975,4263,508,-12.8,200,0,0,998.7542,1,2,,17_11_2014 level23_spatial_Mini 10_07 log.txt,37,37
130,0,1004.2968,1,936,1551,2975,4263,507,-8.3,200,1,0,1006.6873,0,5,,17_11_2014 level23_spatial_Mini 10_07 log.txt,37,37
131,1,1009.1599,1,936,1551,2975,4263,507,-8.3,200,1,0,1011.9854,0,5,,17_11_2014 level23_spatial_Mini 10_07 log.txt,37,37
132,1,1016.9396,0,936,1551,2975,4263,507,-8.3,200,1,1,1018.9978,1,5,,17_11_2014 level23_spatial_Mini 10_07 log.txt,37,37
133,0,1021.2241,1,936,1551,2975,4263,501,-10.5,200,1,0,1023.7281,0,0,,17_11_2014 level23_spatial_Mini 10_07 log.txt,37,37
134,1,1025.6373,0,936,1551,2975,4263,501,-10.5,200,1,1,1028.8228,1,0,,17_11_2014 level23_spatial_Mini 10_07 log.txt,37,37
135,0,1033.2956,1,437,2761,2975,4263,509,-10.5,200,0,0,1035.3236,1,4,,17_11_2014 level23_spatial_Mini 10_07 log.txt,37,37
136,0,1040.0011,1,936,1551,2975,4263,510,-10.5,200,1,0,1045.6479,0,3,,17_11_2014 level23_spatial_Mini 10_07 log.txt,37,37
137,1,1047.3298,0,936,1551,2975,4263,510,-10.5,200,1,1,1049.1467,1,3,,17_11_2014 level23_spatial_Mini 10_07 log.txt,37,37
138,0,1058.2933,0,936,1551,2975,4263,510,-8.3,200,1,1,1059.6476,1,1,,17_11_2014 level23_spatial_Mini 10_07 log.txt,37,37
139,0,1070.9215,1,437,2761,2975,4263,503,-10.5,200,0,0,1073.3079,1,1,,17_11_2014 level23_spatial_Mini 10_07 log.txt,37,37
140,0,1077.1979,1,437,2761,2975,4263,509,-8.3,200,0,0,1079.7643,1,0,,17_11_2014 level23_spatial_Mini 10_07 log.txt,37,37
141,0,1083.7874,0,936,1551,2975,4263,501,-10.5,200,1,0,1085.2209,0,2,,17_11_2014 level23_spatial_Mini 10_07 log.txt,37,37
142,1,1087.3965,0,936,1551,2975,4263,501,-10.5,200,1,0,1088.8371,0,2,,17_11_2014 level23_spatial_Mini 10_07 log.txt,37,37
143,1,1091.205,1,936,1551,2975,4263,501,-10.5,200,1,0,1093.9509,0,2,,17_11_2014 level23_spatial_Mini 10_07 log.txt,37,37
144,1,1096.1261,0,936,1551,2975,4263,501,-10.5,200,1,1,1097.587,1,2,,17_11_2014 level23_spatial_Mini 10_07 log.txt,37,37
145,0,1100.2361,1,936,1551,2975,4263,505,-10.5,200,1,1,1102.8918,1,1,,17_11_2014 level23_spatial_Mini 10_07 log.txt,37,37
146,0,1106.2827,0,437,2761,2975,4263,511,-10.5,200,0,1,1107.5091,0,5,,17_11_2014 level23_spatial_Mini 10_07 log.txt,37,37
147,1,1109.6139,0,437,2761,2975,4263,511,-10.5,200,0,0,1110.7476,1,5,,17_11_2014 level23_spatial_Mini 10_07 log.txt,37,37
148,0,1114.5637,0,936,1551,2975,4263,507,-15.0,200,1,0,1115.6509,0,5,,17_11_2014 level23_spatial_Mini 10_07 log.txt,37,37
149,1,1119.5114,1,936,1551,2975,4263,507,-15.0,200,1,0,1122.3041,0,5,,17_11_2014 level23_spatial_Mini 10_07 log.txt,37,37
150,1,1126.8456,0,936,1551,2975,4263,507,-15.0,200,1,0,1127.9802,0,5,,17_11_2014 level23_spatial_Mini 10_07 log.txt,37,37
151,1,1132.3845,1,936,1551,2975,4263,507,-15.0,200,1,0,1132.541,0,5,,17_11_2014 level23_spatial_Mini 10_07 log.txt,37,37
152,1,1138.0263,1,936,1551,2975,4263,507,-15.0,200,1,0,1138.0713,0,5,,17_11_2014 level23_spatial_Mini 10_07 log.txt,37,37
153,1,1143.632,1,936,1551,2975,4263,507,-15.0,200,1,0,1143.7552,0,5,,17_11_2014 level23_spatial_Mini 10_07 log.txt,37,37
154,1,1148.4824,1,936,1551,2975,4263,507,-15.0,200,1,1,1154.584,1,5,,17_11_2014 level23_spatial_Mini 10_07 log.txt,37,37
155,0,1158.7437,1,437,2761,2975,4263,504,-6.0,200,0,0,1160.8982,1,3,,17_11_2014 level23_spatial_Mini 10_07 log.txt,37,37
156,0,1163.7434,1,936,1551,2975,4263,506,-15.0,200,1,0,1166.1887,0,0,,17_11_2014 level23_spatial_Mini 10_07 log.txt,37,37
157,1,1171.0312,0,936,1551,2975,4263,506,-15.0,200,1,1,1172.917,1,0,,17_11_2014 level23_spatial_Mini 10_07 log.txt,37,37
158,0,1176.4335,0,437,2761,2975,4263,508,-6.0,200,0,0,1177.7819,1,2,,17_11_2014 level23_spatial_Mini 10_07 log.txt,37,37
159,0,1182.0763,0,437,2761,2975,4263,504,-6.0,200,0,1,1183.788,0,4,,17_11_2014 level23_spatial_Mini 10_07 log.txt,37,37
160,1,1187.6893,1,437,2761,2975,4263,504,-6.0,200,0,0,1189.7786,1,4,,17_11_2014 level23_spatial_Mini 10_07 log.txt,37,37
161,0,1193.0579,1,936,1551,2975,4263,508,-12.8,200,1,1,1195.9107,1,2,,17_11_2014 level23_spatial_Mini 10_07 log.txt,37,37
162,0,1199.5158,0,437,2761,2975,4263,501,-12.8,200,0,0,1200.5741,1,4,,17_11_2014 level23_spatial_Mini 10_07 log.txt,37,37
163,0,1205.6221,0,936,1551,2975,4263,502,-8.3,200,1,1,1207.0054,1,4,,17_11_2014 level23_spatial_Mini 10_07 log.txt,37,37
164,0,1210.5058,0,437,2761,2975,4263,511,-8.3,200,0,0,1211.6849,1,3,,17_11_2014 level23_spatial_Mini 10_07 log.txt,37,37
165,0,1215.806,0,936,1551,2975,4263,507,-6.0,200,1,1,1216.9698,1,0,,17_11_2014 level23_spatial_Mini 10_07 log.txt,37,37
166,0,1220.3217,1,437,2761,2975,4263,503,-12.8,200,0,0,1222.7677,1,5,,17_11_2014 level23_spatial_Mini 10_07 log.txt,37,37
167,0,1227.6235,1,936,1551,2975,4263,505,-12.8,200,1,1,1231.6102,1,4,,17_11_2014 level23_spatial_Mini 10_07 log.txt,37,37
168,0,1235.6819,0,936,1551,2975,4263,506,-12.8,200,1,0,1237.1322,0,0,,17_11_2014 level23_spatial_Mini 10_07 log.txt,37,37
169,1,1239.0768,1,936,1551,2975,4263,506,-12.8,200,1,1,1241.8427,1,0,,17_11_2014 level23_spatial_Mini 10_07 log.txt,37,37
170,0,1245.3369,1,936,1551,2975,4263,510,-8.3,200,1,0,1247.6782,0,0,,17_11_2014 level23_spatial_Mini 10_07 log.txt,37,37
171,1,1249.3219,1,936,1551,2975,4263,510,-8.3,200,1,1,1251.8669,1,0,,17_11_2014 level23_spatial_Mini 10_07 log.txt,37,37
172,0,1255.6385,0,936,1551,2975,4263,511,-15.0,200,1,0,1256.7682,0,2,,17_11_2014 level23_spatial_Mini 10_07 log.txt,37,37
173,1,1258.4053,0,936,1551,2975,4263,511,-15.0,200,1,1,1259.6958,1,2,,17_11_2014 level23_spatial_Mini 10_07 log.txt,37,37
174,0,1264.445,1,437,2761,2975,4263,504,-8.3,200,0,0,1267.6787,1,5,,17_11_2014 level23_spatial_Mini 10_07 log.txt,37,37
175,0,1273.6439,1,437,2761,2975,4263,507,-15.0,200,0,0,1275.8946,1,4,,17_11_2014 level23_spatial_Mini 10_07 log.txt,37,37
176,0,1283.5853,1,936,1551,2975,4263,510,-6.0,200,1,0,1286.2763,0,1,,17_11_2014 level23_spatial_Mini 10_07 log.txt,37,37
177,1,1293.772,1,936,1551,2975,4263,510,-6.0,200,1,0,1297.2841,0,1,,17_11_2014 level23_spatial_Mini 10_07 log.txt,37,37
178,1,1299.9606,0,936,1551,2975,4263,510,-6.0,200,1,1,1301.4814,1,1,,17_11_2014 level23_spatial_Mini 10_07 log.txt,37,37
179,0,1306.4461,1,437,2761,2975,4263,506,-12.8,200,0,0,1308.3459,1,1,,17_11_2014 level23_spatial_Mini 10_07 log.txt,37,37
180,0,1312.0544,0,936,1551,2975,4263,501,-15.0,200,1,0,1313.3767,0,3,,17_11_2014 level23_spatial_Mini 10_07 log.txt,37,37
181,1,1316.9449,0,936,1551,2975,4263,501,-15.0,200,1,1,1318.6031,1,3,,17_11_2014 level23_spatial_Mini 10_07 log.txt,37,37
182,0,1322.0387,1,936,1551,2975,4263,502,-12.8,200,1,0,1324.7701,0,5,,17_11_2014 level23_spatial_Mini 10_07 log.txt,37,37
183,1,1331.9809,0,936,1551,2975,4263,502,-12.8,200,1,1,1333.7675,1,5,,17_11_2014 level23_spatial_Mini 10_07 log.txt,37,37
184,0,1339.4662,1,936,1551,2975,4263,503,-6.0,200,1,0,1341.433,0,2,,17_11_2014 level23_spatial_Mini 10_07 log.txt,37,37
185,1,1346.8856,0,936,1551,2975,4263,503,-6.0,200,1,1,1348.8407,1,2,,17_11_2014 level23_spatial_Mini 10_07 log.txt,37,37
186,0,1351.6399,1,437,2761,2975,4263,509,-15.0,200,0,0,1353.6251,1,3,,17_11_2014 level23_spatial_Mini 10_07 log.txt,37,37
187,0,1356.3938,0,437,2761,2975,4263,505,-12.8,200,0,1,1358.1713,0,3,,17_11_2014 level23_spatial_Mini 10_07 log.txt,37,37
188,1,1362.2402,1,437,2761,2975,4263,505,-12.8,200,0,1,1391.375,0,3,,17_11_2014 level23_spatial_Mini 10_07 log.txt,37,37
189,1,1393.6496,0,437,2761,2975,4263,505,-12.8,200,0,0,1395.4887,1,3,,17_11_2014 level23_spatial_Mini 10_07 log.txt,37,37
190,0,1405.1743,0,936,1551,2975,4263,501,-6.0,200,1,1,1406.3501,1,3,,17_11_2014 level23_spatial_Mini 10_07 log.txt,37,37
191,0,1410.1193,1,437,2761,2975,4263,507,-6.0,200,0,0,1412.3814,1,0,,17_11_2014 level23_spatial_Mini 10_07 log.txt,37,37
192,0,1553.71,0,437,2761,2975,4263,510,-8.3,200,0,0,1554.6607,1,2,,17_11_2014 level23_spatial_Mini 10_07 log.txt,37,37
193,0,1559.8638,1,437,2761,2975,4263,511,-10.5,200,0,0,1561.7303,1,2,,17_11_2014 level23_spatial_Mini 10_07 log.txt,37,37
194,0,1568.8648,0,936,1551,2975,4263,503,-15.0,200,1,0,1570.9661,0,4,,17_11_2014 level23_spatial_Mini 10_07 log.txt,37,37
1,0,80.8603,0,437,2761,2975,4263,508,-15.0,200,0,0,83.8786,1,0,,13_03_2014 level23_spatial_Mini 08_35 log.txt,37,37
2,0,85.5069,1,437,2761,2975,4263,507,-10.5,200,0,1,89.3323,0,4,,13_03_2014 level23_spatial_Mini 08_35 log.txt,37,37
3,1,91.0788,1,437,2761,2975,4263,507,-10.5,200,0,1,93.5685,0,4,,13_03_2014 level23_spatial_Mini 08_35 log.txt,37,37
4,1,97.9749,0,437,2761,2975,4263,507,-10.5,200,0,0,99.9159,1,4,,13_03_2014 level23_spatial_Mini 08_35 log.txt,37,37
5,0,104.1771,0,437,2761,2975,4263,502,-6.0,200,0,1,108.8723,0,1,,13_03_2014 level23_spatial_Mini 08_35 log.txt,37,37
6,1,115.79,1,437,2761,2975,4263,502,-6.0,200,0,1,116.194,0,1,,13_03_2014 level23_spatial_Mini 08_35 log.txt,37,37
7,1,120.9352,1,437,2761,2975,4263,502,-6.0,200,0,1,121.5601,0,1,,13_03_2014 level23_spatial_Mini 08_35 log.txt,37,37
8,1,127.9928,1,437,2761,2975,4263,502,-6.0,200,0,0,132.1767,1,1,,13_03_2014 level23_spatial_Mini 08_35 log.txt,37,37
9,0,136.4373,0,437,2761,2975,4263,504,-12.8,200,0,1,137.6719,0,4,,13_03_2014 level23_spatial_Mini 08_35 log.txt,37,37
10,1,141.7232,1,437,2761,2975,4263,504,-12.8,200,0,0,144.7968,1,4,,13_03_2014 level23_spatial_Mini 08_35 log.txt,37,37
11,0,149.1496,0,936,1551,2975,4263,510,-15.0,200,1,1,150.0704,1,0,,13_03_2014 level23_spatial_Mini 08_35 log.txt,37,37
12,0,153.8668,1,936,1551,2975,4263,506,-12.8,200,1,1,156.2296,1,0,,13_03_2014 level23_spatial_Mini 08_35 log.txt,37,37
13,0,159.1233,0,437,2761,2975,4263,511,-10.5,200,0,0,161.4413,1,3,,13_03_2014 level23_spatial_Mini 08_35 log.txt,37,37
14,0,165.6938,0,437,2761,2975,4263,503,-10.5,200,0,0,167.4121,1,5,,13_03_2014 level23_spatial_Mini 08_35 log.txt,37,37
15,0,171.0814,1,936,1551,2975,4263,505,-8.3,200,1,1,171.6459,1,3,,13_03_2014 level23_spatial_Mini 08_35 log.txt,37,37
16,0,175.513,1,437,2761,2975,4263,509,-8.3,200,0,1,178.4779,0,5,,13_03_2014 level23_spatial_Mini 08_35 log.txt,37,37
17,1,183.8324,0,437,2761,2975,4263,509,-8.3,200,0,0,185.4663,1,5,,13_03_2014 level23_spatial_Mini 08_35 log.txt,37,37
18,0,190.8326,0,936,1551,2975,4263,503,-6.0,200,1,1,191.4045,1,4,,13_03_2014 level23_spatial_Mini 08_35 log.txt,37,37
19,0,194.2276,1,437,2761,2975,4263,505,-8.3,200,0,1,196.2663,0,0,,13_03_2014 level23_spatial_Mini 08_35 log.txt,37,37
20,1,201.1049,0,437,2761,2975,4263,505,-8.3,200,0,0,202.3243,1,0,,13_03_2014 level23_spatial_Mini 08_35 log.txt,37,37
21,0,206.5562,1,936,1551,2975,4263,507,-15.0,200,1,1,207.3035,1,4,,13_03_2014 level23_spatial_Mini 08_35 log.txt,37,37
22,0,209.6045,0,437,2761,2975,4263,509,-6.0,200,0,1,211.2432,0,5,,13_03_2014 level23_spatial_Mini 08_35 log.txt,37,37
23,1,216.3464,1,437,2761,2975,4263,509,-6.0,200,0,0,218.9479,1,5,,13_03_2014 level23_spatial_Mini 08_35 log.txt,37,37
24,0,223.9245,1,437,2761,2975,4263,501,-6.0,200,0,0,227.3143,1,2,,13_03_2014 level23_spatial_Mini 08_35 log.txt,37,37
25,0,234.9932,0,936,1551,2975,4263,504,-15.0,200,1,1,235.5567,1,2,,13_03_2014 level23_spatial_Mini 08_35 log.txt,37,37
26,0,238.9962,0,437,2761,2975,4263,506,-6.0,200,0,0,240.5123,1,3,,13_03_2014 level23_spatial_Mini 08_35 log.txt,37,37
27,0,244.8534,0,936,1551,2975,4263,510,-10.5,200,1,1,245.3471,1,4,,13_03_2014 level23_spatial_Mini 08_35 log.txt,37,37
28,0,248.5943,1,936,1551,2975,4263,511,-10.5,200,1,1,250.9785,1,1,,13_03_2014 level23_spatial_Mini 08_35 log.txt,37,37
29,0,254.0792,0,936,1551,2975,4263,508,-6.0,200,1,0,255.5261,0,3,,13_03_2014 level23_spatial_Mini 08_35 log.txt,37,37
30,1,257.3599,1,936,1551,2975,4263,508,-6.0,200,1,1,258.1157,1,3,,13_03_2014 level23_spatial_Mini 08_35 log.txt,37,37
31,0,262.7796,1,936,1551,2975,4263,510,-15.0,200,1,1,265.8909,1,1,,13_03_2014 level23_spatial_Mini 08_35 log.txt,37,37
32,0,269.5388,0,936,1551,2975,4263,505,-12.8,200,1,0,271.618,0,4,,13_03_2014 level23_spatial_Mini 08_35 log.txt,37,37
33,1,274.6974,0,936,1551,2975,4263,505,-12.8,200,1,1,275.5695,1,4,,13_03_2014 level23_spatial_Mini 08_35 log.txt,37,37
34,0,278.2032,0,936,1551,2975,4263,507,-8.3,200,1,1,279.0964,1,1,,13_03_2014 level23_spatial_Mini 08_35 log.txt,37,37
35,0,282.2881,0,936,1551,2975,4263,501,-6.0,200,1,1,286.1888,1,0,,13_03_2014 level23_spatial_Mini 08_35 log.txt,37,37
36,0,290.0826,1,936,1551,2975,4263,509,-8.3,200,1,1,292.1478,1,4,,13_03_2014 level23_spatial_Mini 08_35 log.txt,37,37
37,0,296.4551,0,437,2761,2975,4263,506,-8.3,200,0,1,299.8903,0,3,,13_03_2014 level23_spatial_Mini 08_35 log.txt,37,37
38,1,308.8638,1,437,2761,2975,4263,506,-8.3,200,0,1,309.2448,0,3,,13_03_2014 level23_spatial_Mini 08_35 log.txt,37,37
39,1,314.3389,0,437,2761,2975,4263,506,-8.3,200,0,0,315.2189,1,3,,13_03_2014 level23_spatial_Mini 08_35 log.txt,37,37
40,0,318.9712,0,437,2761,2975,4263,503,-12.8,200,0,1,319.4178,0,0,,13_03_2014 level23_spatial_Mini 08_35 log.txt,37,37
41,1,323.4413,1,437,2761,2975,4263,503,-12.8,200,0,0,326.7218,1,0,,13_03_2014 level23_spatial_Mini 08_35 log.txt,37,37
42,0,330.5943,0,437,2761,2975,4263,511,-12.8,200,0,0,331.9707,1,1,,13_03_2014 level23_spatial_Mini 08_35 log.txt,37,37
43,0,337.5575,1,437,2761,2975,4263,502,-8.3,200,0,1,343.0451,0,4,,13_03_2014 level23_spatial_Mini 08_35 log.txt,37,37
44,1,346.7172,1,437,2761,2975,4263,502,-8.3,200,0,1,350.0253,0,4,,13_03_2014 level23_spatial_Mini 08_35 log.txt,37,37
45,1,355.881,0,437,2761,2975,4263,502,-8.3,200,0,0,357.1591,1,4,,13_03_2014 level23_spatial_Mini 08_35 log.txt,37,37
46,0,361.4197,1,437,2761,2975,4263,504,-15.0,200,0,0,364.4345,1,5,,13_03_2014 level23_spatial_Mini 08_35 log.txt,37,37
47,0,368.2454,0,936,1551,2975,4263,511,-10.5,200,1,1,369.2477,1,2,,13_03_2014 level23_spatial_Mini 08_35 log.txt,37,37
48,0,372.9447,1,936,1551,2975,4263,503,-10.5,200,1,1,375.0278,1,3,,13_03_2014 level23_spatial_Mini 08_35 log.txt,37,37
49,0,379.3584,1,936,1551,2975,4263,508,-15.0,200,1,1,381.6585,1,3,,13_03_2014 level23_spatial_Mini 08_35 log.txt,37,37
50,0,384.8577,0,437,2761,2975,4263,507,-8.3,200,0,0,386.8161,1,2,,13_03_2014 level23_spatial_Mini 08_35 log.txt,37,37
51,0,392.5549,1,936,1551,2975,4263,510,-12.8,200,1,1,393.2439,1,1,,13_03_2014 level23_spatial_Mini 08_35 log.txt,37,37
52,0,396.3508,1,437,2761,2975,4263,502,-12.8,200,0,1,398.8641,0,5,,13_03_2014 level23_spatial_Mini 08_35 log.txt,37,37
53,1,400.9438,0,437,2761,2975,4263,502,-12.8,200,0,0,402.2212,1,5,,13_03_2014 level23_spatial_Mini 08_35 log.txt,37,37
54,0,406.255,0,936,1551,2975,4263,506,-8.3,200,1,1,407.3258,1,2,,13_03_2014 level23_spatial_Mini 08_35 log.txt,37,37
55,0,410.066,1,437,2761,2975,4263,501,-8.3,200,0,1,412.6722,0,1,,13_03_2014 level23_spatial_Mini 08_35 log.txt,37,37
56,1,427.2808,1,437,2761,2975,4263,501,-8.3,200,0,1,433.3818,0,1,,13_03_2014 level23_spatial_Mini 08_35 log.txt,37,37
57,1,437.9132,1,437,2761,2975,4263,501,-8.3,200,0,1,440.1581,0,1,,13_03_2014 level23_spatial_Mini 08_35 log.txt,37,37
58,1,449.1425,1,437,2761,2975,4263,501,-8.3,200,0,0,452.5198,1,1,,13_03_2014 level23_spatial_Mini 08_35 log.txt,37,37
