Trial,CorrectionTrial,StartTime,CenterReward,F1,F2,F3,F4,HoldTime,Atten,Pitch,Side,Response,RespTime,Correct,SpatialMask,UniversalStartTime,originalFile,LeftTemperature,RightTemperature
1,0,3.0629,1,936,1551,2975,4263,508,-6,200,0,0,4.0701,1,2,735935.409757672,02_12_2014 level23_spatial_Magnum 09_50 log.txt,37,37
2,0,7.8397,0,437,2761,2975,4263,501,-6,200,1,0,8.6794,0,3,735935.409812959,02_12_2014 level23_spatial_Magnum 09_50 log.txt,37,37
3,1,12.2676,0,437,2761,2975,4263,501,-6,200,1,1,13.7294,1,3,735935.409864208,02_12_2014 level23_spatial_Magnum 09_50 log.txt,37,37
4,0,18.5086,1,437,2761,2975,4263,507,-12.8,200,1,0,21.2692,0,2,735935.409936442,02_12_2014 level23_spatial_Magnum 09_50 log.txt,37,37
5,1,29.9378,1,437,2761,2975,4263,507,-12.8,200,1,1,33.4829,1,2,735935.410068725,02_12_2014 level23_spatial_Magnum 09_50 log.txt,37,37
6,0,35.0257,1,437,2761,2975,4263,505,-12.8,200,1,1,38.2811,1,0,735935.410127612,02_12_2014 level23_spatial_Magnum 09_50 log.txt,37,37
7,0,40.5428,1,936,1551,2975,4263,509,-8.3,200,0,0,42.2971,1,0,735935.410191468,02_12_2014 level23_spatial_Magnum 09_50 log.txt,37,37
8,0,45.6769,0,936,1551,2975,4263,506,-15,200,0,0,46.6333,1,2,735935.41025089,02_12_2014 level23_spatial_Magnum 09_50 log.txt,37,37
9,0,49.8429,0,936,1551,2975,4263,511,-6,200,0,0,50.8347,1,3,735935.410299108,02_12_2014 level23_spatial_Magnum 09_50 log.txt,37,37
10,0,54.1396,0,936,1551,2975,4263,503,-15,200,0,0,55.1004,1,3,735935.410348838,02_12_2014 level23_spatial_Magnum 09_50 log.txt,37,37
11,0,58.1612,0,437,2761,2975,4263,510,-8.3,200,1,1,59.5496,1,1,735935.410395384,02_12_2014 level23_spatial_Magnum 09_50 log.txt,37,37
12,0,65.8409,1,437,2761,2975,4263,504,-10.5,200,1,1,69.1461,1,5,735935.41048427,02_12_2014 level23_spatial_Magnum 09_50 log.txt,37,37
13,0,71.0022,0,437,2761,2975,4263,509,-10.5,200,1,0,71.6792,0,2,735935.410544007,02_12_2014 level23_spatial_Magnum 09_50 log.txt,37,37
14,1,75.058,1,437,2761,2975,4263,509,-10.5,200,1,1,78.779,1,2,735935.410590949,02_12_2014 level23_spatial_Magnum 09_50 log.txt,37,37
15,0,81.0294,0,437,2761,2975,4263,501,-10.5,200,1,1,82.8373,1,1,735935.410660063,02_12_2014 level23_spatial_Magnum 09_50 log.txt,37,37
16,0,88.5222,0,437,2761,2975,4263,503,-8.3,200,1,1,90.0558,1,5,735935.410746785,02_12_2014 level23_spatial_Magnum 09_50 log.txt,37,37
17,0,92.02,1,936,1551,2975,4263,510,-12.8,200,0,0,93.7594,1,0,735935.410787269,02_12_2014 level23_spatial_Magnum 09_50 log.txt,37,37
18,0,96.6743,0,936,1551,2975,4263,508,-10.5,200,0,1,98.8034,0,3,735935.410841138,02_12_2014 level23_spatial_Magnum 09_50 log.txt,37,37
19,1,103.4938,0,936,1551,2975,4263,508,-10.5,200,0,0,104.1968,1,3,735935.410920067,02_12_2014 level23_spatial_Magnum 09_50 log.txt,37,37
20,0,107.1312,1,936,1551,2975,4263,507,-8.3,200,0,0,108.6599,1,1,735935.410962167,02_12_2014 level23_spatial_Magnum 09_50 log.txt,37,37
21,0,111.5041,0,936,1551,2975,4263,506,-8.3,200,0,0,112.3122,1,3,735935.411012779,02_12_2014 level23_spatial_Magnum 09_50 log.txt,37,37
22,0,115.577,0,437,2761,2975,4263,504,-8.3,200,1,0,116.3808,0,2,735935.411059919,02_12_2014 level23_spatial_Magnum 09_50 log.txt,37,37
23,1,118.9546,1,437,2761,2975,4263,504,-8.3,200,1,1,129.0814,1,2,735935.411099012,02_12_2014 level23_spatial_Magnum 09_50 log.txt,37,37
24,0,130.5185,0,936,1551,2975,4263,505,-8.3,200,0,0,131.1993,1,5,735935.411232853,02_12_2014 level23_spatial_Magnum 09_50 log.txt,37,37
25,0,134.3442,0,936,1551,2975,4263,502,-10.5,200,0,0,135.1347,1,2,735935.411277132,02_12_2014 level23_spatial_Magnum 09_50 log.txt,37,37
26,0,138.2485,0,936,1551,2975,4263,506,-10.5,200,0,0,139.0195,1,0,735935.411322321,02_12_2014 level23_spatial_Magnum 09_50 log.txt,37,37
27,0,142.4052,1,936,1551,2975,4263,509,-15,200,0,0,143.3992,1,4,735935.411370431,02_12_2014 level23_spatial_Magnum 09_50 log.txt,37,37
28,0,149.4569,1,437,2761,2975,4263,503,-15,200,1,1,151.2078,1,4,735935.411452048,02_12_2014 level23_spatial_Magnum 09_50 log.txt,37,37
29,0,157.4777,0,437,2761,2975,4263,507,-12.8,200,1,0,158.2691,0,5,735935.411544881,02_12_2014 level23_spatial_Magnum 09_50 log.txt,37,37
30,1,161.0612,1,437,2761,2975,4263,507,-12.8,200,1,1,163.6914,1,5,735935.411586356,02_12_2014 level23_spatial_Magnum 09_50 log.txt,37,37
31,0,165.2604,0,936,1551,2975,4263,505,-6,200,0,0,165.9297,1,0,735935.411634958,02_12_2014 level23_spatial_Magnum 09_50 log.txt,37,37
32,0,169.0254,0,936,1551,2975,4263,508,-15,200,0,0,170.1955,1,1,735935.411678535,02_12_2014 level23_spatial_Magnum 09_50 log.txt,37,37
33,0,174.2688,0,437,2761,2975,4263,502,-6,200,1,1,176.8604,1,5,735935.411739222,02_12_2014 level23_spatial_Magnum 09_50 log.txt,37,37
34,0,177.9414,1,437,2761,2975,4263,511,-10.5,200,1,1,180.7825,1,3,735935.411781729,02_12_2014 level23_spatial_Magnum 09_50 log.txt,37,37
35,0,188.8568,0,437,2761,2975,4263,504,-10.5,200,1,0,189.4416,0,4,735935.411908065,02_12_2014 level23_spatial_Magnum 09_50 log.txt,37,37
36,1,191.9894,0,437,2761,2975,4263,504,-10.5,200,1,1,196.1284,1,4,735935.411944322,02_12_2014 level23_spatial_Magnum 09_50 log.txt,37,37
37,0,202.1048,1,437,2761,2975,4263,510,-6,200,1,1,206.2414,1,2,735935.412061398,02_12_2014 level23_spatial_Magnum 09_50 log.txt,37,37
38,0,211.8946,1,936,1551,2975,4263,509,-6,200,0,1,218.0393,0,1,735935.412174706,02_12_2014 level23_spatial_Magnum 09_50 log.txt,37,37
39,1,220.5001,1,936,1551,2975,4263,509,-6,200,0,0,223.1949,1,1,735935.412274307,02_12_2014 level23_spatial_Magnum 09_50 log.txt,37,37
40,0,227.3618,0,437,2761,2975,4263,503,-10.5,200,1,1,229.1501,1,0,735935.412353725,02_12_2014 level23_spatial_Magnum 09_50 log.txt,37,37
41,0,230.5468,1,936,1551,2975,4263,508,-12.8,200,0,0,232.368,1,4,735935.412390588,02_12_2014 level23_spatial_Magnum 09_50 log.txt,37,37
42,0,235.5672,0,936,1551,2975,4263,510,-12.8,200,0,0,236.5935,1,3,735935.412448694,02_12_2014 level23_spatial_Magnum 09_50 log.txt,37,37
43,0,239.7713,0,936,1551,2975,4263,501,-6,200,0,0,240.601,1,4,735935.412497353,02_12_2014 level23_spatial_Magnum 09_50 log.txt,37,37
44,0,243.9229,1,936,1551,2975,4263,502,-10.5,200,0,0,246.6398,1,1,735935.412545404,02_12_2014 level23_spatial_Magnum 09_50 log.txt,37,37
45,0,250.4469,0,936,1551,2975,4263,506,-15,200,0,0,251.3714,1,5,735935.412620913,02_12_2014 level23_spatial_Magnum 09_50 log.txt,37,37
46,0,255.2148,0,437,2761,2975,4263,504,-12.8,200,1,1,256.7794,1,4,735935.412676097,02_12_2014 level23_spatial_Magnum 09_50 log.txt,37,37
47,0,260.4768,0,437,2761,2975,4263,511,-8.3,200,1,1,262.3879,1,4,735935.412737,02_12_2014 level23_spatial_Magnum 09_50 log.txt,37,37
48,0,265.6162,0,437,2761,2975,4263,505,-12.8,200,1,1,267.4417,1,1,735935.412796484,02_12_2014 level23_spatial_Magnum 09_50 log.txt,37,37
49,0,275.3827,0,936,1551,2975,4263,505,-12.8,200,0,0,276.1081,1,5,735935.412909522,02_12_2014 level23_spatial_Magnum 09_50 log.txt,37,37
50,0,279.2013,0,936,1551,2975,4263,504,-12.8,200,0,0,279.9415,1,2,735935.412953719,02_12_2014 level23_spatial_Magnum 09_50 log.txt,37,37
51,0,283.3406,1,437,2761,2975,4263,507,-8.3,200,1,1,287.0667,1,3,735935.413001627,02_12_2014 level23_spatial_Magnum 09_50 log.txt,37,37
52,0,291.4675,0,936,1551,2975,4263,503,-6,200,0,0,292.4137,1,5,735935.413095689,02_12_2014 level23_spatial_Magnum 09_50 log.txt,37,37
53,0,295.8932,0,936,1551,2975,4263,506,-10.5,200,0,0,296.6843,1,5,735935.413146912,02_12_2014 level23_spatial_Magnum 09_50 log.txt,37,37
54,0,300.0219,1,437,2761,2975,4263,508,-15,200,1,0,303.2266,0,2,735935.413194698,02_12_2014 level23_spatial_Magnum 09_50 log.txt,37,37
55,1,307.7189,0,437,2761,2975,4263,508,-15,200,1,1,308.9414,1,2,735935.413283784,02_12_2014 level23_spatial_Magnum 09_50 log.txt,37,37
56,0,315.9333,1,437,2761,2975,4263,502,-12.8,200,1,1,318.7961,1,3,735935.413378858,02_12_2014 level23_spatial_Magnum 09_50 log.txt,37,37
57,0,326.0484,1,936,1551,2975,4263,509,-12.8,200,0,1,330.2636,0,1,735935.413495931,02_12_2014 level23_spatial_Magnum 09_50 log.txt,37,37
58,1,334.2788,1,936,1551,2975,4263,509,-12.8,200,0,0,336.2141,1,1,735935.41359119,02_12_2014 level23_spatial_Magnum 09_50 log.txt,37,37
59,0,339.6632,0,936,1551,2975,4263,510,-15,200,0,0,340.5428,1,0,735935.413653509,02_12_2014 level23_spatial_Magnum 09_50 log.txt,37,37
60,0,344.0896,1,437,2761,2975,4263,501,-15,200,1,0,347.4952,0,0,735935.413704741,02_12_2014 level23_spatial_Magnum 09_50 log.txt,37,37
61,1,351.1159,0,437,2761,2975,4263,501,-15,200,1,1,352.4402,1,0,735935.413786064,02_12_2014 level23_spatial_Magnum 09_50 log.txt,37,37
62,0,353.9794,0,437,2761,2975,4263,506,-15,200,1,1,355.6246,1,3,735935.413819206,02_12_2014 level23_spatial_Magnum 09_50 log.txt,37,37
63,0,358.5716,1,936,1551,2975,4263,504,-8.3,200,0,0,360.5685,1,2,735935.413872357,02_12_2014 level23_spatial_Magnum 09_50 log.txt,37,37
64,0,363.4945,1,437,2761,2975,4263,508,-15,200,1,1,368.2398,1,1,735935.413929334,02_12_2014 level23_spatial_Magnum 09_50 log.txt,37,37
65,0,370.8064,0,437,2761,2975,4263,507,-15,200,1,1,372.4114,1,5,735935.414013963,02_12_2014 level23_spatial_Magnum 09_50 log.txt,37,37
66,0,383.173,0,437,2761,2975,4263,501,-8.3,200,1,0,383.9247,0,0,735935.414157095,02_12_2014 level23_spatial_Magnum 09_50 log.txt,37,37
67,1,385.7727,0,437,2761,2975,4263,501,-8.3,200,1,0,386.5612,0,0,735935.414187184,02_12_2014 level23_spatial_Magnum 09_50 log.txt,37,37
68,1,388.7166,1,437,2761,2975,4263,501,-8.3,200,1,1,391.4765,1,0,735935.414221257,02_12_2014 level23_spatial_Magnum 09_50 log.txt,37,37
69,0,393.6447,0,437,2761,2975,4263,509,-6,200,1,1,395.14,1,1,735935.414278295,02_12_2014 level23_spatial_Magnum 09_50 log.txt,37,37
70,0,397.5488,1,437,2761,2975,4263,511,-6,200,1,1,400.9505,1,0,735935.414323481,02_12_2014 level23_spatial_Magnum 09_50 log.txt,37,37
71,0,410.4149,0,936,1551,2975,4263,502,-8.3,200,0,0,411.2813,1,4,735935.414472395,02_12_2014 level23_spatial_Magnum 09_50 log.txt,37,37
72,0,414.3878,1,437,2761,2975,4263,505,-6,200,1,1,418.7617,1,4,735935.414518377,02_12_2014 level23_spatial_Magnum 09_50 log.txt,37,37
73,0,420.1585,0,936,1551,2975,4263,503,-10.5,200,0,0,420.9186,1,4,735935.414585168,02_12_2014 level23_spatial_Magnum 09_50 log.txt,37,37
74,0,424.4416,1,437,2761,2975,4263,501,-6,200,1,0,428.5453,0,0,735935.414634741,02_12_2014 level23_spatial_Magnum 09_50 log.txt,37,37
75,1,432.6288,0,437,2761,2975,4263,501,-6,200,1,1,434.1212,1,0,735935.4147295,02_12_2014 level23_spatial_Magnum 09_50 log.txt,37,37
76,0,441.3997,1,437,2761,2975,4263,507,-6,200,1,1,452.4932,1,1,735935.414831015,02_12_2014 level23_spatial_Magnum 09_50 log.txt,37,37
77,0,456.7664,1,936,1551,2975,4263,509,-15,200,0,0,465.2522,1,4,735935.41500887,02_12_2014 level23_spatial_Magnum 09_50 log.txt,37,37
78,0,468.4524,1,936,1551,2975,4263,502,-12.8,200,0,0,470.659,1,2,735935.415144125,02_12_2014 level23_spatial_Magnum 09_50 log.txt,37,37
79,0,475.0068,1,936,1551,2975,4263,506,-8.3,200,0,0,476.7104,1,4,735935.415219986,02_12_2014 level23_spatial_Magnum 09_50 log.txt,37,37
80,0,479.6148,0,437,2761,2975,4263,511,-15,200,1,1,481.6033,1,0,735935.415273319,02_12_2014 level23_spatial_Magnum 09_50 log.txt,37,37
81,0,483.1824,1,437,2761,2975,4263,510,-8.3,200,1,1,486.9453,1,4,735935.415314611,02_12_2014 level23_spatial_Magnum 09_50 log.txt,37,37
82,0,489.004,1,936,1551,2975,4263,504,-8.3,200,0,0,490.7924,1,5,735935.415381991,02_12_2014 level23_spatial_Magnum 09_50 log.txt,37,37
83,0,494.1185,0,437,2761,2975,4263,503,-15,200,1,1,496.3212,1,1,735935.415441186,02_12_2014 level23_spatial_Magnum 09_50 log.txt,37,37
84,0,506.4648,0,936,1551,2975,4263,508,-8.3,200,0,0,507.261,1,0,735935.415584083,02_12_2014 level23_spatial_Magnum 09_50 log.txt,37,37
85,0,510.6885,1,437,2761,2975,4263,510,-12.8,200,1,0,512.9122,0,0,735935.415632969,02_12_2014 level23_spatial_Magnum 09_50 log.txt,37,37
86,1,516.7629,1,437,2761,2975,4263,510,-12.8,200,1,1,519.6763,1,0,735935.415703274,02_12_2014 level23_spatial_Magnum 09_50 log.txt,37,37
87,0,522.1538,1,437,2761,2975,4263,503,-10.5,200,1,1,527.0274,1,5,735935.415765669,02_12_2014 level23_spatial_Magnum 09_50 log.txt,37,37
88,0,531.0086,1,437,2761,2975,4263,501,-8.3,200,1,0,532.9195,0,2,735935.415868155,02_12_2014 level23_spatial_Magnum 09_50 log.txt,37,37
89,1,540.2783,1,437,2761,2975,4263,501,-8.3,200,1,0,541.8609,0,2,735935.415975443,02_12_2014 level23_spatial_Magnum 09_50 log.txt,37,37
90,1,543.795,0,437,2761,2975,4263,501,-8.3,200,1,0,544.7196,0,2,735935.416016146,02_12_2014 level23_spatial_Magnum 09_50 log.txt,37,37
91,1,551.298,0,437,2761,2975,4263,501,-8.3,200,1,0,552.1507,0,2,735935.416102986,02_12_2014 level23_spatial_Magnum 09_50 log.txt,37,37
92,1,555.3061,1,437,2761,2975,4263,501,-8.3,200,1,1,558.3785,1,2,735935.416149376,02_12_2014 level23_spatial_Magnum 09_50 log.txt,37,37
93,0,560.5059,0,936,1551,2975,4263,507,-10.5,200,0,0,561.3079,1,5,735935.416209559,02_12_2014 level23_spatial_Magnum 09_50 log.txt,37,37
94,0,564.4459,0,936,1551,2975,4263,508,-15,200,0,0,565.2301,1,0,735935.416255161,02_12_2014 level23_spatial_Magnum 09_50 log.txt,37,37
95,0,568.1382,1,936,1551,2975,4263,505,-12.8,200,0,0,569.8113,1,4,735935.416297896,02_12_2014 level23_spatial_Magnum 09_50 log.txt,37,37
96,0,579.163,0,437,2761,2975,4263,502,-10.5,200,1,1,580.7139,1,3,735935.416425498,02_12_2014 level23_spatial_Magnum 09_50 log.txt,37,37
97,0,582.868,0,936,1551,2975,4263,511,-10.5,200,0,0,583.7217,1,3,735935.41646838,02_12_2014 level23_spatial_Magnum 09_50 log.txt,37,37
98,0,587.1638,1,437,2761,2975,4263,504,-10.5,200,1,1,590.2061,1,0,735935.4165181,02_12_2014 level23_spatial_Magnum 09_50 log.txt,37,37
99,0,599.1433,1,437,2761,2975,4263,506,-12.8,200,1,0,601.6879,0,2,735935.416656751,02_12_2014 level23_spatial_Magnum 09_50 log.txt,37,37
100,1,604.2942,0,437,2761,2975,4263,506,-12.8,200,1,1,605.439,1,2,735935.416716368,02_12_2014 level23_spatial_Magnum 09_50 log.txt,37,37
101,0,610.4264,1,437,2761,2975,4263,508,-8.3,200,1,1,614.2396,1,1,735935.416787343,02_12_2014 level23_spatial_Magnum 09_50 log.txt,37,37
102,0,616.4662,1,936,1551,2975,4263,504,-8.3,200,0,0,618.8296,1,3,735935.416857248,02_12_2014 level23_spatial_Magnum 09_50 log.txt,37,37
103,0,622.0016,0,936,1551,2975,4263,501,-12.8,200,0,0,623.0338,1,1,735935.416921315,02_12_2014 level23_spatial_Magnum 09_50 log.txt,37,37
104,0,626.9631,1,936,1551,2975,4263,502,-10.5,200,0,0,629.0507,1,2,735935.41697874,02_12_2014 level23_spatial_Magnum 09_50 log.txt,37,37
105,0,633.3204,1,437,2761,2975,4263,507,-8.3,200,1,1,640.716,1,3,735935.41705232,02_12_2014 level23_spatial_Magnum 09_50 log.txt,37,37
106,0,646.1797,1,437,2761,2975,4263,506,-12.8,200,1,1,651.3533,1,3,735935.417201154,02_12_2014 level23_spatial_Magnum 09_50 log.txt,37,37
107,0,655.0207,0,437,2761,2975,4263,503,-12.8,200,1,0,655.9844,0,4,735935.41730348,02_12_2014 level23_spatial_Magnum 09_50 log.txt,37,37
108,1,658.7056,0,437,2761,2975,4263,503,-12.8,200,1,1,660.0998,1,4,735935.41734613,02_12_2014 level23_spatial_Magnum 09_50 log.txt,37,37
109,0,663.5142,1,437,2761,2975,4263,509,-10.5,200,1,1,666.0784,1,4,735935.417401785,02_12_2014 level23_spatial_Magnum 09_50 log.txt,37,37
110,0,674.9458,0,437,2761,2975,4263,510,-6,200,1,1,677.1167,1,2,735935.417534095,02_12_2014 level23_spatial_Magnum 09_50 log.txt,37,37
111,0,680.4905,1,936,1551,2975,4263,511,-15,200,0,0,682.4399,1,5,735935.41759827,02_12_2014 level23_spatial_Magnum 09_50 log.txt,37,37
112,0,685.5859,1,936,1551,2975,4263,505,-6,200,0,0,688.7196,1,4,735935.417657244,02_12_2014 level23_spatial_Magnum 09_50 log.txt,37,37
113,0,692.3712,1,437,2761,2975,4263,507,-15,200,1,1,696.1489,1,3,735935.417735778,02_12_2014 level23_spatial_Magnum 09_50 log.txt,37,37
114,0,702.976,1,437,2761,2975,4263,510,-8.3,200,1,1,706.0212,1,5,735935.417858519,02_12_2014 level23_spatial_Magnum 09_50 log.txt,37,37
115,0,708.1302,1,936,1551,2975,4263,502,-8.3,200,0,0,709.9036,1,1,735935.417918174,02_12_2014 level23_spatial_Magnum 09_50 log.txt,37,37
116,0,714.7559,1,936,1551,2975,4263,501,-12.8,200,0,1,718.5563,0,0,735935.41799486,02_12_2014 level23_spatial_Magnum 09_50 log.txt,37,37
117,1,721.8154,0,936,1551,2975,4263,501,-12.8,200,0,0,722.632,1,0,735935.418076567,02_12_2014 level23_spatial_Magnum 09_50 log.txt,37,37
118,0,725.8214,1,936,1551,2975,4263,508,-10.5,200,0,1,729.9899,0,1,735935.418122933,02_12_2014 level23_spatial_Magnum 09_50 log.txt,37,37
119,1,735.0879,1,936,1551,2975,4263,508,-10.5,200,0,0,736.956,1,1,735935.418230184,02_12_2014 level23_spatial_Magnum 09_50 log.txt,37,37
120,0,740.0363,1,936,1551,2975,4263,503,-8.3,200,0,0,741.9047,1,2,735935.418287457,02_12_2014 level23_spatial_Magnum 09_50 log.txt,37,37
121,0,744.846,1,936,1551,2975,4263,506,-6,200,0,0,747.0597,1,5,735935.418343125,02_12_2014 level23_spatial_Magnum 09_50 log.txt,37,37
122,0,750.6702,0,437,2761,2975,4263,511,-12.8,200,1,1,752.5439,1,5,735935.418410535,02_12_2014 level23_spatial_Magnum 09_50 log.txt,37,37
123,0,754.2476,0,936,1551,2975,4263,504,-15,200,0,1,756.096,0,3,735935.41845194,02_12_2014 level23_spatial_Magnum 09_50 log.txt,37,37
124,1,759.1846,1,936,1551,2975,4263,504,-15,200,0,0,761.5717,1,3,735935.418509081,02_12_2014 level23_spatial_Magnum 09_50 log.txt,37,37
125,0,764.972,0,936,1551,2975,4263,504,-12.8,200,0,0,765.9341,1,5,735935.418576065,02_12_2014 level23_spatial_Magnum 09_50 log.txt,37,37
126,0,768.8877,0,936,1551,2975,4263,509,-10.5,200,0,0,769.7544,1,4,735935.418621385,02_12_2014 level23_spatial_Magnum 09_50 log.txt,37,37
127,0,773.3057,1,437,2761,2975,4263,503,-10.5,200,1,1,775.6413,1,2,735935.41867252,02_12_2014 level23_spatial_Magnum 09_50 log.txt,37,37
128,0,777.6081,0,437,2761,2975,4263,508,-15,200,1,1,779.3395,1,5,735935.418722316,02_12_2014 level23_spatial_Magnum 09_50 log.txt,37,37
129,0,781.5408,1,936,1551,2975,4263,507,-6,200,0,1,784.1632,0,1,735935.418767833,02_12_2014 level23_spatial_Magnum 09_50 log.txt,37,37
130,1,786.4781,1,936,1551,2975,4263,507,-6,200,0,0,788.4196,1,1,735935.418824978,02_12_2014 level23_spatial_Magnum 09_50 log.txt,37,37
131,0,792.199,0,437,2761,2975,4263,502,-10.5,200,1,1,793.2672,1,1,735935.418891192,02_12_2014 level23_spatial_Magnum 09_50 log.txt,37,37
132,0,804.1777,1,437,2761,2975,4263,501,-6,200,1,0,806.1219,0,4,735935.419029835,02_12_2014 level23_spatial_Magnum 09_50 log.txt,37,37
133,1,815.4382,0,437,2761,2975,4263,501,-6,200,1,0,816.3953,0,4,735935.419160164,02_12_2014 level23_spatial_Magnum 09_50 log.txt,37,37
134,1,818.5543,0,437,2761,2975,4263,501,-6,200,1,0,822.8342,0,4,735935.41919623,02_12_2014 level23_spatial_Magnum 09_50 log.txt,37,37
135,1,826.3248,1,437,2761,2975,4263,501,-6,200,1,1,829.3101,1,4,735935.419286167,02_12_2014 level23_spatial_Magnum 09_50 log.txt,37,37
136,0,832.7201,1,936,1551,2975,4263,505,-6,200,0,0,834.8221,1,2,735935.419360186,02_12_2014 level23_spatial_Magnum 09_50 log.txt,37,37
137,0,850.1387,0,437,2761,2975,4263,510,-8.3,200,1,0,851.038,0,0,735935.419561791,02_12_2014 level23_spatial_Magnum 09_50 log.txt,37,37
1,0,702.785,1,936,1551,2975,4263,509,-15,200,0,0,704.0209,1,0,735935.663689641,02_12_2014 level23_spatial_Magnum 15_44 log.txt,37,13
2,0,711.8955,0,936,1551,2975,4263,505,-12.8,200,0,1,713.6347,0,5,735935.663795087,02_12_2014 level23_spatial_Magnum 15_44 log.txt,37,13
3,1,730.9337,1,936,1551,2975,4263,505,-12.8,200,0,0,732.6391,1,5,735935.664015436,02_12_2014 level23_spatial_Magnum 15_44 log.txt,37,13
4,0,736.685,0,437,2761,2975,4263,502,-6,200,1,0,738.2093,0,1,735935.664082002,02_12_2014 level23_spatial_Magnum 15_44 log.txt,37,13
5,1,741.7081,1,437,2761,2975,4263,502,-6,200,1,0,744.9506,0,1,735935.66414014,02_12_2014 level23_spatial_Magnum 15_44 log.txt,37,13
6,1,749.3706,1,437,2761,2975,4263,502,-6,200,1,0,753.1555,0,1,735935.664228826,02_12_2014 level23_spatial_Magnum 15_44 log.txt,37,13
7,1,758.2215,1,437,2761,2975,4263,502,-6,200,1,1,760.8018,1,1,735935.664331267,02_12_2014 level23_spatial_Magnum 15_44 log.txt,37,13
8,0,763.5372,1,437,2761,2975,4263,508,-6,200,1,0,766.8081,0,3,735935.664392792,02_12_2014 level23_spatial_Magnum 15_44 log.txt,37,13
9,1,771.4434,0,437,2761,2975,4263,508,-6,200,1,1,773.0246,1,3,735935.664484299,02_12_2014 level23_spatial_Magnum 15_44 log.txt,37,13
10,0,774.8823,0,437,2761,2975,4263,506,-12.8,200,1,0,775.6637,0,0,735935.664524101,02_12_2014 level23_spatial_Magnum 15_44 log.txt,37,13
11,1,777.2529,0,437,2761,2975,4263,506,-12.8,200,1,1,778.7585,1,0,735935.664551538,02_12_2014 level23_spatial_Magnum 15_44 log.txt,37,13
12,0,785.4009,0,936,1551,2975,4263,501,-12.8,200,0,0,786.3913,1,1,735935.664645844,02_12_2014 level23_spatial_Magnum 15_44 log.txt,37,13
13,0,789.844,1,437,2761,2975,4263,510,-12.8,200,1,1,794.5916,1,4,735935.664697269,02_12_2014 level23_spatial_Magnum 15_44 log.txt,37,13
14,0,803.5124,0,936,1551,2975,4263,507,-6,200,0,0,804.5554,1,0,735935.664855468,02_12_2014 level23_spatial_Magnum 15_44 log.txt,37,13
15,0,808.2429,1,437,2761,2975,4263,504,-10.5,200,1,1,813.2507,1,3,735935.664910219,02_12_2014 level23_spatial_Magnum 15_44 log.txt,37,13
16,0,815.6998,0,437,2761,2975,4263,503,-6,200,1,0,816.8706,0,2,735935.664996526,02_12_2014 level23_spatial_Magnum 15_44 log.txt,37,13
17,1,818.9854,1,437,2761,2975,4263,503,-6,200,1,1,823.4259,1,2,735935.665034553,02_12_2014 level23_spatial_Magnum 15_44 log.txt,37,13
18,0,825.4742,1,437,2761,2975,4263,510,-6,200,1,1,828.7757,1,4,735935.665109655,02_12_2014 level23_spatial_Magnum 15_44 log.txt,37,13
19,0,841.072,1,936,1551,2975,4263,504,-15,200,0,0,843.7507,1,2,735935.665290185,02_12_2014 level23_spatial_Magnum 15_44 log.txt,37,13
20,0,847.3073,0,936,1551,2975,4263,508,-10.5,200,0,0,848.3067,1,3,735935.665362353,02_12_2014 level23_spatial_Magnum 15_44 log.txt,37,13
21,0,851.7464,1,936,1551,2975,4263,509,-8.3,200,0,0,854.7149,1,4,735935.665413731,02_12_2014 level23_spatial_Magnum 15_44 log.txt,37,13
22,0,858.238,1,437,2761,2975,4263,507,-8.3,200,1,1,863.989,1,2,735935.665488866,02_12_2014 level23_spatial_Magnum 15_44 log.txt,37,13
23,0,868.5151,1,936,1551,2975,4263,511,-10.5,200,0,0,871.8038,1,0,735935.665607814,02_12_2014 level23_spatial_Magnum 15_44 log.txt,37,13
24,0,875.4032,0,437,2761,2975,4263,503,-6,200,1,1,876.9103,1,5,735935.665687537,02_12_2014 level23_spatial_Magnum 15_44 log.txt,37,12
25,0,879.2225,1,936,1551,2975,4263,506,-6,200,0,0,882.2227,1,1,735935.665731742,02_12_2014 level23_spatial_Magnum 15_44 log.txt,37,12
26,0,885.7457,0,437,2761,2975,4263,505,-8.3,200,1,1,887.4,1,5,735935.665807242,02_12_2014 level23_spatial_Magnum 15_44 log.txt,37,12
27,0,895.7086,1,936,1551,2975,4263,501,-8.3,200,0,0,898.6715,1,2,735935.665922553,02_12_2014 level23_spatial_Magnum 15_44 log.txt,37,12
28,0,905.4838,0,936,1551,2975,4263,506,-6,200,0,0,906.6118,1,3,735935.666035692,02_12_2014 level23_spatial_Magnum 15_44 log.txt,37,12
29,0,910.1406,1,437,2761,2975,4263,505,-12.8,200,1,0,910.7078,0,3,735935.66608959,02_12_2014 level23_spatial_Magnum 15_44 log.txt,37,12
30,1,912.4001,1,437,2761,2975,4263,505,-12.8,200,1,1,919.0856,1,3,735935.666115742,02_12_2014 level23_spatial_Magnum 15_44 log.txt,37,12
31,0,921.799,0,936,1551,2975,4263,507,-10.5,200,0,0,922.6921,1,1,735935.666224526,02_12_2014 level23_spatial_Magnum 15_44 log.txt,37,12
32,0,925.6802,0,936,1551,2975,4263,508,-12.8,200,0,0,926.6427,1,3,735935.666269447,02_12_2014 level23_spatial_Magnum 15_44 log.txt,37,12
33,0,930.4237,0,936,1551,2975,4263,501,-8.3,200,0,0,931.5302,1,0,735935.666324348,02_12_2014 level23_spatial_Magnum 15_44 log.txt,37,12
34,0,935.4784,0,437,2761,2975,4263,509,-15,200,1,1,937.2335,1,3,735935.666382852,02_12_2014 level23_spatial_Magnum 15_44 log.txt,37,12
35,0,939.5853,0,936,1551,2975,4263,511,-12.8,200,0,0,940.6622,1,0,735935.666430385,02_12_2014 level23_spatial_Magnum 15_44 log.txt,37,12
36,0,948.2985,1,437,2761,2975,4263,510,-8.3,200,1,1,953.8411,1,4,735935.666531233,02_12_2014 level23_spatial_Magnum 15_44 log.txt,37,12
37,0,956.1128,0,437,2761,2975,4263,503,-15,200,1,1,958.0113,1,5,735935.666621676,02_12_2014 level23_spatial_Magnum 15_44 log.txt,37,12
38,0,960.9579,0,437,2761,2975,4263,504,-15,200,1,1,963.2301,1,4,735935.666677754,02_12_2014 level23_spatial_Magnum 15_44 log.txt,37,12
39,0,970.8539,0,936,1551,2975,4263,503,-6,200,0,0,971.68,1,4,735935.666792291,02_12_2014 level23_spatial_Magnum 15_44 log.txt,37,12
40,0,975.118,0,437,2761,2975,4263,502,-8.3,200,1,1,977.3901,1,1,735935.666841644,02_12_2014 level23_spatial_Magnum 15_44 log.txt,37,12
41,0,983.8591,1,437,2761,2975,4263,505,-12.8,200,1,0,985.8677,0,1,735935.666942814,02_12_2014 level23_spatial_Magnum 15_44 log.txt,37,12
42,1,988.3541,1,437,2761,2975,4263,505,-12.8,200,1,1,991.5891,1,1,735935.666994839,02_12_2014 level23_spatial_Magnum 15_44 log.txt,37,12
43,0,999.6384,0,437,2761,2975,4263,507,-8.3,200,1,1,1001.1073,1,0,735935.667125445,02_12_2014 level23_spatial_Magnum 15_44 log.txt,37,12
44,0,1011.3461,0,437,2761,2975,4263,501,-12.8,200,1,0,1011.9844,0,5,735935.66726095,02_12_2014 level23_spatial_Magnum 15_44 log.txt,37,12
45,1,1017.5165,0,437,2761,2975,4263,501,-12.8,200,1,1,1019.6317,1,5,735935.667332367,02_12_2014 level23_spatial_Magnum 15_44 log.txt,37,12
46,0,1026.4202,0,437,2761,2975,4263,511,-6,200,1,0,1027.3248,0,0,735935.667435419,02_12_2014 level23_spatial_Magnum 15_44 log.txt,37,12
47,1,1030.7616,1,437,2761,2975,4263,511,-6,200,1,1,1034.0667,1,0,735935.667485667,02_12_2014 level23_spatial_Magnum 15_44 log.txt,37,12
48,0,1038.2865,0,437,2761,2975,4263,506,-10.5,200,1,0,1039.126,0,2,735935.66757276,02_12_2014 level23_spatial_Magnum 15_44 log.txt,37,12
49,1,1041.0362,0,437,2761,2975,4263,506,-10.5,200,1,0,1042.2537,0,2,735935.667604586,02_12_2014 level23_spatial_Magnum 15_44 log.txt,37,12
50,1,1044.3365,0,437,2761,2975,4263,506,-10.5,200,1,1,1046.5057,1,2,735935.667642784,02_12_2014 level23_spatial_Magnum 15_44 log.txt,37,12
51,0,1048.8418,1,936,1551,2975,4263,508,-15,200,0,0,1051.2622,1,4,735935.667694928,02_12_2014 level23_spatial_Magnum 15_44 log.txt,37,12
52,0,1054.8281,1,936,1551,2975,4263,509,-6,200,0,0,1060.003,1,5,735935.667764214,02_12_2014 level23_spatial_Magnum 15_44 log.txt,37,12
53,0,1063.2811,1,936,1551,2975,4263,504,-8.3,200,0,1,1067.0627,0,3,735935.66786205,02_12_2014 level23_spatial_Magnum 15_44 log.txt,37,12
54,1,1069.1217,1,936,1551,2975,4263,504,-8.3,200,0,0,1071.54,1,3,735935.667929649,02_12_2014 level23_spatial_Magnum 15_44 log.txt,37,12
55,0,1075.1372,0,437,2761,2975,4263,508,-8.3,200,1,1,1079.8857,1,3,735935.667999273,02_12_2014 level23_spatial_Magnum 15_44 log.txt,37,12
56,0,1081.24,0,437,2761,2975,4263,510,-10.5,200,1,0,1082.1906,0,0,735935.668069907,02_12_2014 level23_spatial_Magnum 15_44 log.txt,37,12
57,1,1085.6231,0,437,2761,2975,4263,510,-10.5,200,1,1,1088.2024,1,0,735935.668120638,02_12_2014 level23_spatial_Magnum 15_44 log.txt,37,12
58,0,1104.3594,1,936,1551,2975,4263,504,-10.5,200,0,0,1106.563,1,5,735935.668337493,02_12_2014 level23_spatial_Magnum 15_44 log.txt,37,13
59,0,1110.1164,0,936,1551,2975,4263,502,-12.8,200,0,0,1111.0195,1,2,735935.668404125,02_12_2014 level23_spatial_Magnum 15_44 log.txt,37,13
60,0,1114.5585,1,936,1551,2975,4263,511,-8.3,200,0,0,1117.4361,1,1,735935.668455538,02_12_2014 level23_spatial_Magnum 15_44 log.txt,37,13
61,0,1121.6476,0,437,2761,2975,4263,503,-15,200,1,1,1126.3765,1,1,735935.668537588,02_12_2014 level23_spatial_Magnum 15_44 log.txt,37,13
62,0,1129.3111,0,437,2761,2975,4263,501,-15,200,1,1,1131.7166,1,0,735935.668626286,02_12_2014 level23_spatial_Magnum 15_44 log.txt,37,13
63,0,1134.2141,0,936,1551,2975,4263,507,-6,200,0,0,1135.0355,1,2,735935.668683034,02_12_2014 level23_spatial_Magnum 15_44 log.txt,37,13
64,0,1138.8009,1,437,2761,2975,4263,509,-10.5,200,1,0,1143.1875,0,5,735935.668736122,02_12_2014 level23_spatial_Magnum 15_44 log.txt,37,13
65,1,1146.3739,1,437,2761,2975,4263,509,-10.5,200,1,1,1149.7243,1,5,735935.668823772,02_12_2014 level23_spatial_Magnum 15_44 log.txt,37,13
66,0,1161.5601,1,936,1551,2975,4263,506,-15,200,0,0,1165.3671,1,1,735935.668999538,02_12_2014 level23_spatial_Magnum 15_44 log.txt,37,13
67,0,1169.2161,1,936,1551,2975,4263,508,-15,200,0,0,1172.3982,1,3,735935.669088149,02_12_2014 level23_spatial_Magnum 15_44 log.txt,37,13
68,0,1176.1082,0,936,1551,2975,4263,503,-10.5,200,0,0,1176.7956,1,4,735935.669167919,02_12_2014 level23_spatial_Magnum 15_44 log.txt,37,13
69,0,1180.4061,1,936,1551,2975,4263,507,-15,200,0,0,1182.7104,1,5,735935.669217663,02_12_2014 level23_spatial_Magnum 15_44 log.txt,37,13
70,0,1185.9684,0,437,2761,2975,4263,504,-12.8,200,1,0,1186.9856,0,2,735935.669282042,02_12_2014 level23_spatial_Magnum 15_44 log.txt,37,13
71,1,1189.455,1,437,2761,2975,4263,504,-12.8,200,1,1,1197.5406,1,2,735935.669322396,02_12_2014 level23_spatial_Magnum 15_44 log.txt,37,13
72,0,1199.2269,1,936,1551,2975,4263,505,-8.3,200,0,0,1201.835,1,5,735935.669435497,02_12_2014 level23_spatial_Magnum 15_44 log.txt,37,13
73,0,1205.328,1,936,1551,2975,4263,501,-12.8,200,0,0,1207.5971,1,4,735935.669506111,02_12_2014 level23_spatial_Magnum 15_44 log.txt,37,13
74,0,1211.4792,0,437,2761,2975,4263,509,-10.5,200,1,1,1213.6722,1,1,735935.669577306,02_12_2014 level23_spatial_Magnum 15_44 log.txt,37,13
75,0,1223.5243,0,437,2761,2975,4263,506,-10.5,200,1,1,1226.0635,1,4,735935.669716717,02_12_2014 level23_spatial_Magnum 15_44 log.txt,37,13
76,0,1233.4976,1,437,2761,2975,4263,502,-15,200,1,0,1238.6233,0,2,735935.669832148,02_12_2014 level23_spatial_Magnum 15_44 log.txt,37,13
77,1,1240.5409,1,437,2761,2975,4263,502,-15,200,1,1,1249.0972,1,2,735935.669913668,02_12_2014 level23_spatial_Magnum 15_44 log.txt,37,13
78,0,1251.5641,1,936,1551,2975,4263,510,-10.5,200,0,0,1253.4352,1,2,735935.670041251,02_12_2014 level23_spatial_Magnum 15_44 log.txt,37,13
79,0,1256.6955,0,437,2761,2975,4263,510,-15,200,1,1,1258.7994,1,4,735935.670100642,02_12_2014 level23_spatial_Magnum 15_44 log.txt,37,13
80,0,1265.9397,0,437,2761,2975,4263,501,-8.3,200,1,0,1266.9918,0,4,735935.670207635,02_12_2014 level23_spatial_Magnum 15_44 log.txt,37,13
81,1,1273.5233,0,437,2761,2975,4263,501,-8.3,200,1,1,1274.8582,1,4,735935.670295409,02_12_2014 level23_spatial_Magnum 15_44 log.txt,37,13
82,0,1280.8861,0,437,2761,2975,4263,509,-8.3,200,1,0,1281.73,0,1,735935.670380626,02_12_2014 level23_spatial_Magnum 15_44 log.txt,37,13
83,1,1283.6845,0,437,2761,2975,4263,509,-8.3,200,1,1,1285.2654,1,1,735935.670413015,02_12_2014 level23_spatial_Magnum 15_44 log.txt,37,13
84,0,1292.4427,0,936,1551,2975,4263,506,-8.3,200,0,1,1295.5064,0,3,735935.670514383,02_12_2014 level23_spatial_Magnum 15_44 log.txt,37,13
85,1,1298.1379,1,936,1551,2975,4263,506,-8.3,200,0,0,1298.7344,1,3,735935.6705803,02_12_2014 level23_spatial_Magnum 15_44 log.txt,37,13
86,0,1302.7566,1,437,2761,2975,4263,511,-6,200,1,0,1308.643,0,2,735935.670633757,02_12_2014 level23_spatial_Magnum 15_44 log.txt,37,13
87,1,1310.4724,1,437,2761,2975,4263,511,-6,200,1,0,1312.262,0,2,735935.67072306,02_12_2014 level23_spatial_Magnum 15_44 log.txt,37,13
88,1,1321.132,0,437,2761,2975,4263,511,-6,200,1,1,1323.5229,1,2,735935.670846435,02_12_2014 level23_spatial_Magnum 15_44 log.txt,37,13
89,0,1330.9236,0,936,1551,2975,4263,503,-10.5,200,0,0,1331.8474,1,1,735935.670959764,02_12_2014 level23_spatial_Magnum 15_44 log.txt,37,13
90,0,1335.0638,0,936,1551,2975,4263,502,-15,200,0,0,1335.9974,1,5,735935.671007683,02_12_2014 level23_spatial_Magnum 15_44 log.txt,37,13
91,0,1339.9105,0,936,1551,2975,4263,505,-8.3,200,0,0,1340.8716,1,1,735935.671063779,02_12_2014 level23_spatial_Magnum 15_44 log.txt,37,13
92,0,1344.2888,1,936,1551,2975,4263,504,-10.5,200,0,0,1346.2697,1,5,735935.671114454,02_12_2014 level23_spatial_Magnum 15_44 log.txt,37,13
93,0,1349.4125,0,437,2761,2975,4263,507,-6,200,1,0,1350.4193,0,0,735935.671173756,02_12_2014 level23_spatial_Magnum 15_44 log.txt,37,13
94,1,1354.8878,1,437,2761,2975,4263,507,-6,200,1,0,1360.7633,0,0,735935.671237127,02_12_2014 level23_spatial_Magnum 15_44 log.txt,37,13
95,1,1362.4519,1,437,2761,2975,4263,507,-6,200,1,0,1364.9494,0,0,735935.671324675,02_12_2014 level23_spatial_Magnum 15_44 log.txt,37,13
96,1,1367.3492,0,437,2761,2975,4263,507,-6,200,1,1,1369.4312,1,0,735935.671381357,02_12_2014 level23_spatial_Magnum 15_44 log.txt,37,13
97,0,1371.1737,1,437,2761,2975,4263,509,-10.5,200,1,1,1373.9819,1,3,735935.671425622,02_12_2014 level23_spatial_Magnum 15_44 log.txt,37,13
98,0,1383.5023,1,936,1551,2975,4263,507,-6,200,0,0,1385.392,1,4,735935.671568314,02_12_2014 level23_spatial_Magnum 15_44 log.txt,37,13
99,0,1389.1638,0,437,2761,2975,4263,502,-12.8,200,1,1,1393.0861,1,5,735935.67163384,02_12_2014 level23_spatial_Magnum 15_44 log.txt,37,13
100,0,1397.3863,0,437,2761,2975,4263,505,-12.8,200,1,0,1398.3916,0,2,735935.671729008,02_12_2014 level23_spatial_Magnum 15_44 log.txt,37,13
101,1,1404.3564,1,437,2761,2975,4263,505,-12.8,200,1,1,1406.9591,1,2,735935.671809681,02_12_2014 level23_spatial_Magnum 15_44 log.txt,37,13
102,0,1413.1626,1,437,2761,2975,4263,510,-8.3,200,1,1,1418.0896,1,0,735935.671911604,02_12_2014 level23_spatial_Magnum 15_44 log.txt,37,13
103,0,1421.6759,0,936,1551,2975,4263,504,-8.3,200,0,0,1422.7454,1,2,735935.672010138,02_12_2014 level23_spatial_Magnum 15_44 log.txt,37,12
104,0,1426.2514,1,936,1551,2975,4263,503,-10.5,200,0,0,1428.1346,1,2,735935.672063095,02_12_2014 level23_spatial_Magnum 15_44 log.txt,37,12
105,0,1431.9729,1,936,1551,2975,4263,501,-12.8,200,0,0,1434.0512,1,0,735935.672129316,02_12_2014 level23_spatial_Magnum 15_44 log.txt,37,12
106,0,1438.3769,1,936,1551,2975,4263,506,-12.8,200,0,0,1440.557,1,4,735935.672203436,02_12_2014 level23_spatial_Magnum 15_44 log.txt,37,12
107,0,1444.1914,1,437,2761,2975,4263,508,-15,200,1,1,1451.6096,1,1,735935.672270734,02_12_2014 level23_spatial_Magnum 15_44 log.txt,37,12
108,0,1456.815,1,936,1551,2975,4263,511,-12.8,200,0,0,1458.8913,1,1,735935.67241684,02_12_2014 level23_spatial_Magnum 15_44 log.txt,37,13
109,0,1462.0898,1,936,1551,2975,4263,501,-8.3,200,0,0,1463.8734,1,5,735935.672477891,02_12_2014 level23_spatial_Magnum 15_44 log.txt,37,13
110,0,1467.9936,1,936,1551,2975,4263,509,-10.5,200,0,0,1470.1765,1,4,735935.672546222,02_12_2014 level23_spatial_Magnum 15_44 log.txt,37,13
111,0,1474.8475,1,437,2761,2975,4263,508,-6,200,1,1,1480.3162,1,3,735935.67262555,02_12_2014 level23_spatial_Magnum 15_44 log.txt,37,12.1524944679139
112,0,1482.3498,0,936,1551,2975,4263,503,-10.5,200,0,0,1484.5192,1,3,735935.672712382,02_12_2014 level23_spatial_Magnum 15_44 log.txt,37,12
113,0,1489.6357,0,936,1551,2975,4263,505,-12.8,200,0,1,1490.6687,0,3,735935.67279671,02_12_2014 level23_spatial_Magnum 15_44 log.txt,37,12
114,1,1496.1266,1,936,1551,2975,4263,505,-12.8,200,0,0,1497.9999,1,3,735935.672871836,02_12_2014 level23_spatial_Magnum 15_44 log.txt,37,12
115,0,1501.3685,0,437,2761,2975,4263,502,-10.5,200,1,1,1507.4148,1,5,735935.672932506,02_12_2014 level23_spatial_Magnum 15_44 log.txt,37,13
116,0,1509.3085,0,936,1551,2975,4263,506,-6,200,0,0,1510.1872,1,0,735935.673024404,02_12_2014 level23_spatial_Magnum 15_44 log.txt,37,13
117,0,1513.2962,0,437,2761,2975,4263,510,-12.8,200,1,1,1515.0047,1,0,735935.673070558,02_12_2014 level23_spatial_Magnum 15_44 log.txt,37,13
118,0,1517.2341,1,437,2761,2975,4263,507,-15,200,1,0,1519.5945,0,0,735935.673116135,02_12_2014 level23_spatial_Magnum 15_44 log.txt,37,13
119,1,1530.3651,1,437,2761,2975,4263,507,-15,200,1,0,1532.1684,0,0,735935.673268115,02_12_2014 level23_spatial_Magnum 15_44 log.txt,37,13
120,1,1534.9675,0,437,2761,2975,4263,507,-15,200,1,1,1536.8828,1,0,735935.673321383,02_12_2014 level23_spatial_Magnum 15_44 log.txt,37,13
121,0,1541.0165,1,437,2761,2975,4263,508,-10.5,200,1,1,1545.256,1,4,735935.673391395,02_12_2014 level23_spatial_Magnum 15_44 log.txt,37,13
122,0,1552.3987,0,936,1551,2975,4263,502,-10.5,200,0,0,1553.2604,1,0,735935.673523133,02_12_2014 level23_spatial_Magnum 15_44 log.txt,37,13
123,0,1585.5582,0,437,2761,2975,4263,506,-6,200,1,0,1587.3283,0,4,735935.673906924,02_12_2014 level23_spatial_Magnum 15_44 log.txt,37,13
1,0,10.6182,0,936,1551,2975,4263,502,-15.5,200,0,1,11.9055,0,1,735692.448734007,03_04_2014 level23_spatial_Magnum 10_46 log.txt,37,37
2,1,20.7558,0,936,1551,2975,4263,502,-15.5,200,0,1,21.9126,0,1,735692.44885134,03_04_2014 level23_spatial_Magnum 10_46 log.txt,37,37
3,1,25.2518,0,936,1551,2975,4263,502,-15.5,200,0,0,41.4939,1,1,735692.448903377,03_04_2014 level23_spatial_Magnum 10_46 log.txt,37,37
4,0,48.8989,1,936,1551,2975,4263,511,-11,200,0,1,50.2059,0,5,735692.449177071,03_04_2014 level23_spatial_Magnum 10_46 log.txt,37,37
5,1,58.905,0,936,1551,2975,4263,511,-11,200,0,0,62.0917,1,5,735692.449292882,03_04_2014 level23_spatial_Magnum 10_46 log.txt,37,37
6,0,68.2588,1,936,1551,2975,4263,506,-20,200,0,0,70.2124,1,3,735692.449401144,03_04_2014 level23_spatial_Magnum 10_46 log.txt,37,37
7,0,76.7964,0,936,1551,2975,4263,510,-17.8,200,0,0,79.5138,1,0,735692.449499958,03_04_2014 level23_spatial_Magnum 10_46 log.txt,37,37
8,0,85.2283,0,936,1551,2975,4263,504,-15.5,200,0,0,89.4936,1,3,735692.44959755,03_04_2014 level23_spatial_Magnum 10_46 log.txt,37,37
9,0,99.2745,1,936,1551,2975,4263,507,-11,200,0,1,103.2018,0,2,735692.449760122,03_04_2014 level23_spatial_Magnum 10_46 log.txt,37,37
10,1,112.0419,0,936,1551,2975,4263,507,-11,200,0,0,114.2244,1,2,735692.449907892,03_04_2014 level23_spatial_Magnum 10_46 log.txt,37,37
11,0,120.1348,0,437,2761,2975,4263,508,-15,200,1,1,121.0916,1,3,735692.45000156,03_04_2014 level23_spatial_Magnum 10_46 log.txt,37,37
12,0,124.6658,0,936,1551,2975,4263,501,-20,200,0,0,127.3803,1,1,735692.450054002,03_04_2014 level23_spatial_Magnum 10_46 log.txt,37,37
13,0,133.1922,1,936,1551,2975,4263,503,-13.3,200,0,0,136.7955,1,0,735692.450152687,03_04_2014 level23_spatial_Magnum 10_46 log.txt,37,37
14,0,142.7286,0,936,1551,2975,4263,509,-17.8,200,0,1,144.0458,0,4,735692.450263062,03_04_2014 level23_spatial_Magnum 10_46 log.txt,37,37
15,1,145.6765,0,936,1551,2975,4263,509,-17.8,200,0,0,147.6149,1,4,735692.450297182,03_04_2014 level23_spatial_Magnum 10_46 log.txt,37,37
16,0,154.5714,1,936,1551,2975,4263,505,-11,200,0,0,158.8491,1,4,735692.450400132,03_04_2014 level23_spatial_Magnum 10_46 log.txt,37,37
17,0,165.1151,1,437,2761,2975,4263,509,-6,200,1,0,170.8477,0,1,735692.450522166,03_04_2014 level23_spatial_Magnum 10_46 log.txt,37,37
18,1,172.9589,0,437,2761,2975,4263,509,-6,200,1,1,174.641,1,1,735692.45061295,03_04_2014 level23_spatial_Magnum 10_46 log.txt,37,37
19,0,177.9904,0,437,2761,2975,4263,508,-12.8,200,1,1,178.9736,1,4,735692.450671185,03_04_2014 level23_spatial_Magnum 10_46 log.txt,37,37
20,0,182.7796,1,936,1551,2975,4263,504,-11,200,0,1,185.0217,0,0,735692.450726616,03_04_2014 level23_spatial_Magnum 10_46 log.txt,37,37
21,1,190.3406,0,936,1551,2975,4263,504,-11,200,0,0,192.4927,1,0,735692.450814127,03_04_2014 level23_spatial_Magnum 10_46 log.txt,37,37
22,0,199.1445,1,437,2761,2975,4263,502,-6,200,1,1,201.9944,1,0,735692.450916024,03_04_2014 level23_spatial_Magnum 10_46 log.txt,37,37
23,0,204.9232,0,936,1551,2975,4263,506,-17.8,200,0,0,208.0854,1,1,735692.450982907,03_04_2014 level23_spatial_Magnum 10_46 log.txt,37,37
24,0,213.4332,0,936,1551,2975,4263,511,-17.8,200,0,0,215.3418,1,5,735692.451081403,03_04_2014 level23_spatial_Magnum 10_46 log.txt,37,37
25,0,220.3523,0,936,1551,2975,4263,510,-20,200,0,1,221.3936,0,4,735692.451161485,03_04_2014 level23_spatial_Magnum 10_46 log.txt,37,37
26,1,227.1828,0,936,1551,2975,4263,510,-20,200,0,0,228.7863,1,4,735692.451240542,03_04_2014 level23_spatial_Magnum 10_46 log.txt,37,37
27,0,234.0502,1,437,2761,2975,4263,501,-6,200,1,0,238.4213,0,4,735692.451320025,03_04_2014 level23_spatial_Magnum 10_46 log.txt,37,37
28,1,241.6568,1,437,2761,2975,4263,501,-6,200,1,1,245.2539,1,4,735692.451408065,03_04_2014 level23_spatial_Magnum 10_46 log.txt,37,37
29,0,248.7268,1,936,1551,2975,4263,503,-17.8,200,0,0,251.9476,1,2,735692.451489894,03_04_2014 level23_spatial_Magnum 10_46 log.txt,37,37
30,0,257.4203,1,437,2761,2975,4263,503,-8.3,200,1,1,262.1736,1,1,735692.451590513,03_04_2014 level23_spatial_Magnum 10_46 log.txt,37,37
31,0,265.4591,0,437,2761,2975,4263,506,-10.5,200,1,1,266.2009,1,5,735692.451683554,03_04_2014 level23_spatial_Magnum 10_46 log.txt,37,37
32,0,269.5177,1,936,1551,2975,4263,502,-13.3,200,0,0,271.8511,1,1,735692.451730529,03_04_2014 level23_spatial_Magnum 10_46 log.txt,37,37
33,0,276.5609,0,437,2761,2975,4263,504,-6,200,1,1,279.6498,1,3,735692.451812048,03_04_2014 level23_spatial_Magnum 10_46 log.txt,37,37
34,0,282.7336,1,437,2761,2975,4263,511,-6,200,1,0,285.2944,0,2,735692.451883491,03_04_2014 level23_spatial_Magnum 10_46 log.txt,37,37
35,1,287.4413,0,437,2761,2975,4263,511,-6,200,1,1,289.9116,1,2,735692.451937978,03_04_2014 level23_spatial_Magnum 10_46 log.txt,37,37
36,0,293.6631,0,936,1551,2975,4263,510,-13.3,200,0,1,294.3528,0,4,735692.45200999,03_04_2014 level23_spatial_Magnum 10_46 log.txt,37,37
37,1,297.8107,0,936,1551,2975,4263,510,-13.3,200,0,0,299.6756,1,4,735692.452057994,03_04_2014 level23_spatial_Magnum 10_46 log.txt,37,37
38,0,306.2427,1,936,1551,2975,4263,505,-17.8,200,0,0,311.0768,1,3,735692.452155587,03_04_2014 level23_spatial_Magnum 10_46 log.txt,37,37
39,0,316.1551,1,936,1551,2975,4263,501,-13.3,200,0,0,320.3285,1,2,735692.452270314,03_04_2014 level23_spatial_Magnum 10_46 log.txt,37,37
40,0,326.0015,1,437,2761,2975,4263,507,-12.8,200,1,1,328.7678,1,3,735692.452384277,03_04_2014 level23_spatial_Magnum 10_46 log.txt,37,37
41,0,332.0437,0,936,1551,2975,4263,509,-15.5,200,0,0,334.4212,1,2,735692.45245421,03_04_2014 level23_spatial_Magnum 10_46 log.txt,37,37
42,0,339.7031,0,437,2761,2975,4263,506,-15,200,1,0,341.9661,0,0,735692.45254286,03_04_2014 level23_spatial_Magnum 10_46 log.txt,37,37
43,1,345.1288,0,437,2761,2975,4263,506,-15,200,1,0,347.5588,0,0,735692.452605657,03_04_2014 level23_spatial_Magnum 10_46 log.txt,37,37
44,1,349.4234,1,437,2761,2975,4263,506,-15,200,1,1,352.1364,1,0,735692.452655363,03_04_2014 level23_spatial_Magnum 10_46 log.txt,37,37
45,0,355.471,1,437,2761,2975,4263,502,-15,200,1,1,355.7766,1,5,735692.452725359,03_04_2014 level23_spatial_Magnum 10_46 log.txt,37,37
46,0,362.1649,0,437,2761,2975,4263,511,-8.3,200,1,1,364.8987,1,3,735692.452802835,03_04_2014 level23_spatial_Magnum 10_46 log.txt,37,37
47,0,368.1544,1,437,2761,2975,4263,508,-8.3,200,1,1,371.0237,1,4,735692.452872157,03_04_2014 level23_spatial_Magnum 10_46 log.txt,37,37
48,0,374.1694,1,437,2761,2975,4263,503,-10.5,200,1,0,379.3474,0,4,735692.452941776,03_04_2014 level23_spatial_Magnum 10_46 log.txt,37,37
49,1,381.408,1,437,2761,2975,4263,503,-10.5,200,1,1,384.9779,1,4,735692.453025556,03_04_2014 level23_spatial_Magnum 10_46 log.txt,37,37
50,0,388.297,1,437,2761,2975,4263,504,-10.5,200,1,1,391.1549,1,3,735692.453105289,03_04_2014 level23_spatial_Magnum 10_46 log.txt,37,37
51,0,394.9446,1,437,2761,2975,4263,507,-10.5,200,1,1,397.4841,1,2,735692.453182229,03_04_2014 level23_spatial_Magnum 10_46 log.txt,37,37
52,0,400.728,0,936,1551,2975,4263,510,-11,200,0,0,411.3686,1,1,735692.453249167,03_04_2014 level23_spatial_Magnum 10_46 log.txt,37,37
53,0,417.6443,1,936,1551,2975,4263,501,-11,200,0,0,422.1717,1,3,735692.453444957,03_04_2014 level23_spatial_Magnum 10_46 log.txt,37,37
54,0,427.4917,0,437,2761,2975,4263,505,-15,200,1,1,428.7685,1,1,735692.453558932,03_04_2014 level23_spatial_Magnum 10_46 log.txt,37,37
55,0,431.936,0,936,1551,2975,4263,506,-15.5,200,0,0,433.7709,1,4,735692.45361037,03_04_2014 level23_spatial_Magnum 10_46 log.txt,37,37
56,0,438.3803,0,437,2761,2975,4263,511,-8.3,200,1,1,439.4972,1,0,735692.453684957,03_04_2014 level23_spatial_Magnum 10_46 log.txt,37,37
57,0,443.2067,0,437,2761,2975,4263,501,-15,200,1,1,444.0603,1,4,735692.453740818,03_04_2014 level23_spatial_Magnum 10_46 log.txt,37,37
58,0,447.6129,1,437,2761,2975,4263,510,-6,200,1,1,450.5029,1,5,735692.453791816,03_04_2014 level23_spatial_Magnum 10_46 log.txt,37,37
59,0,453.8963,0,437,2761,2975,4263,508,-12.8,200,1,0,455.8488,0,2,735692.453864541,03_04_2014 level23_spatial_Magnum 10_46 log.txt,37,37
60,1,458.3954,1,437,2761,2975,4263,508,-12.8,200,1,1,461.111,1,2,735692.453916613,03_04_2014 level23_spatial_Magnum 10_46 log.txt,37,37
61,0,464.7514,1,437,2761,2975,4263,504,-8.3,200,1,1,467.344,1,5,735692.453990178,03_04_2014 level23_spatial_Magnum 10_46 log.txt,37,37
62,0,470.6737,0,936,1551,2975,4263,505,-15.5,200,0,0,472.3658,1,5,735692.454058723,03_04_2014 level23_spatial_Magnum 10_46 log.txt,37,37
63,0,477.7278,1,437,2761,2975,4263,502,-15,200,1,1,481.2134,1,2,735692.454140368,03_04_2014 level23_spatial_Magnum 10_46 log.txt,37,37
64,0,484.3189,1,437,2761,2975,4263,503,-8.3,200,1,1,487.1837,1,2,735692.454216654,03_04_2014 level23_spatial_Magnum 10_46 log.txt,37,37
65,0,490.211,1,936,1551,2975,4263,509,-13.3,200,0,1,493.6346,0,3,735692.45428485,03_04_2014 level23_spatial_Magnum 10_46 log.txt,37,37
66,1,499.4873,1,936,1551,2975,4263,509,-13.3,200,0,0,503.3952,1,3,735692.454392214,03_04_2014 level23_spatial_Magnum 10_46 log.txt,37,37
67,0,507.7718,1,437,2761,2975,4263,504,-12.8,200,1,1,511.119,1,5,735692.4544881,03_04_2014 level23_spatial_Magnum 10_46 log.txt,37,37
68,0,514.0673,0,437,2761,2975,4263,511,-10.5,200,1,0,515.8273,0,1,735692.454560964,03_04_2014 level23_spatial_Magnum 10_46 log.txt,37,37
69,1,519.0397,0,437,2761,2975,4263,511,-10.5,200,1,1,520.1399,1,1,735692.454618515,03_04_2014 level23_spatial_Magnum 10_46 log.txt,37,37
70,0,523.1766,0,936,1551,2975,4263,505,-20,200,0,0,524.5569,1,0,735692.454666396,03_04_2014 level23_spatial_Magnum 10_46 log.txt,37,37
71,0,530.1117,1,437,2761,2975,4263,503,-10.5,200,1,0,534.6277,0,0,735692.454746663,03_04_2014 level23_spatial_Magnum 10_46 log.txt,37,37
72,1,537.7556,0,437,2761,2975,4263,503,-10.5,200,1,1,538.7743,1,0,735692.454835134,03_04_2014 level23_spatial_Magnum 10_46 log.txt,37,37
73,0,542.2525,0,936,1551,2975,4263,501,-20,200,0,0,545.0863,1,2,735692.454887182,03_04_2014 level23_spatial_Magnum 10_46 log.txt,37,37
74,0,549.2624,1,936,1551,2975,4263,509,-20,200,0,1,551.8031,0,5,735692.454968315,03_04_2014 level23_spatial_Magnum 10_46 log.txt,37,37
75,1,555.5277,1,936,1551,2975,4263,509,-20,200,0,1,557.6821,0,5,735692.45504083,03_04_2014 level23_spatial_Magnum 10_46 log.txt,37,37
76,1,559.6148,1,936,1551,2975,4263,509,-20,200,0,1,563.5117,0,5,735692.455088134,03_04_2014 level23_spatial_Magnum 10_46 log.txt,37,37
77,1,565.4604,1,936,1551,2975,4263,509,-20,200,0,0,569.154,1,5,735692.455155792,03_04_2014 level23_spatial_Magnum 10_46 log.txt,37,37
78,0,574.7111,0,437,2761,2975,4263,508,-12.8,200,1,1,576.2236,1,0,735692.45526286,03_04_2014 level23_spatial_Magnum 10_46 log.txt,37,37
79,0,579.432,0,936,1551,2975,4263,510,-15.5,200,0,0,581.6462,1,0,735692.4553175,03_04_2014 level23_spatial_Magnum 10_46 log.txt,37,37
80,0,586.9706,1,936,1551,2975,4263,507,-13.3,200,0,0,590.09,1,5,735692.455404752,03_04_2014 level23_spatial_Magnum 10_46 log.txt,37,37
81,0,595.1142,0,437,2761,2975,4263,506,-12.8,200,1,1,596.4619,1,1,735692.455499007,03_04_2014 level23_spatial_Magnum 10_46 log.txt,37,37
82,0,599.5357,0,437,2761,2975,4263,508,-6,200,1,0,601.6952,0,2,735692.455550182,03_04_2014 level23_spatial_Magnum 10_46 log.txt,37,37
83,1,604.1505,0,437,2761,2975,4263,508,-6,200,1,1,605.339,1,2,735692.455603594,03_04_2014 level23_spatial_Magnum 10_46 log.txt,37,37
84,0,608.5741,1,437,2761,2975,4263,503,-8.3,200,1,1,610.9949,1,2,735692.455654793,03_04_2014 level23_spatial_Magnum 10_46 log.txt,37,37
85,0,614.4798,1,936,1551,2975,4263,507,-15.5,200,0,0,617.6213,1,2,735692.455723146,03_04_2014 level23_spatial_Magnum 10_46 log.txt,37,37
86,0,623.2424,1,437,2761,2975,4263,505,-6,200,1,1,627.2308,1,1,735692.455824565,03_04_2014 level23_spatial_Magnum 10_46 log.txt,37,37
87,0,630.5259,1,936,1551,2975,4263,504,-20,200,0,1,632.5832,0,4,735692.455908865,03_04_2014 level23_spatial_Magnum 10_46 log.txt,37,37
88,1,634.5036,1,936,1551,2975,4263,504,-20,200,0,1,638.2307,0,4,735692.455954903,03_04_2014 level23_spatial_Magnum 10_46 log.txt,37,37
89,1,644.4347,0,936,1551,2975,4263,504,-20,200,0,0,646.7339,1,4,735692.456069846,03_04_2014 level23_spatial_Magnum 10_46 log.txt,37,37
90,0,652.1247,0,936,1551,2975,4263,510,-13.3,200,0,0,653.81,1,3,735692.456158851,03_04_2014 level23_spatial_Magnum 10_46 log.txt,37,37
91,0,659.7575,0,936,1551,2975,4263,501,-13.3,200,0,0,661.8551,1,2,735692.456247193,03_04_2014 level23_spatial_Magnum 10_46 log.txt,37,37
92,0,666.9779,1,437,2761,2975,4263,509,-10.5,200,1,1,669.5841,1,1,735692.456330763,03_04_2014 level23_spatial_Magnum 10_46 log.txt,37,37
93,0,672.5658,1,437,2761,2975,4263,511,-15,200,1,1,674.4197,1,1,735692.456395438,03_04_2014 level23_spatial_Magnum 10_46 log.txt,37,37
94,0,677.938,0,437,2761,2975,4263,502,-15,200,1,1,679.2224,1,5,735692.456457616,03_04_2014 level23_spatial_Magnum 10_46 log.txt,37,37
95,0,682.8313,1,936,1551,2975,4263,507,-13.3,200,0,0,687.5736,1,0,735692.456514251,03_04_2014 level23_spatial_Magnum 10_46 log.txt,37,37
96,0,692.1551,0,437,2761,2975,4263,506,-6,200,1,0,694.129,0,0,735692.456622166,03_04_2014 level23_spatial_Magnum 10_46 log.txt,37,37
97,1,697.5191,1,437,2761,2975,4263,506,-6,200,1,1,699.7429,1,0,735692.456684249,03_04_2014 level23_spatial_Magnum 10_46 log.txt,37,37
98,0,702.9968,1,437,2761,2975,4263,501,-8.3,200,1,1,706.0118,1,1,735692.456747648,03_04_2014 level23_spatial_Magnum 10_46 log.txt,37,37
99,0,709.3223,1,936,1551,2975,4263,510,-15.5,200,0,1,712.7834,0,3,735692.45682086,03_04_2014 level23_spatial_Magnum 10_46 log.txt,37,37
100,1,716.7656,0,936,1551,2975,4263,510,-15.5,200,0,0,718.9739,1,3,735692.456907009,03_04_2014 level23_spatial_Magnum 10_46 log.txt,37,37
101,0,724.2627,0,936,1551,2975,4263,505,-17.8,200,0,0,726.3623,1,4,735692.456993781,03_04_2014 level23_spatial_Magnum 10_46 log.txt,37,37
102,0,731.9467,0,936,1551,2975,4263,508,-17.8,200,0,0,733.731,1,5,735692.457082717,03_04_2014 level23_spatial_Magnum 10_46 log.txt,37,37
103,0,738.6358,1,437,2761,2975,4263,503,-10.5,200,1,1,741.0275,1,4,735692.457160137,03_04_2014 level23_spatial_Magnum 10_46 log.txt,37,37
104,0,744.2031,1,936,1551,2975,4263,504,-11,200,0,0,746.9222,1,5,735692.457224573,03_04_2014 level23_spatial_Magnum 10_46 log.txt,37,37
105,0,751.8466,0,437,2761,2975,4263,502,-8.3,200,1,1,753.3516,1,5,735692.457313039,03_04_2014 level23_spatial_Magnum 10_46 log.txt,37,37
106,0,756.2804,0,437,2761,2975,4263,509,-10.5,200,1,1,757.3262,1,2,735692.457364356,03_04_2014 level23_spatial_Magnum 10_46 log.txt,37,37
107,0,761.0972,1,936,1551,2975,4263,508,-17.8,200,0,1,763.8992,0,1,735692.457420107,03_04_2014 level23_spatial_Magnum 10_46 log.txt,37,37
108,1,769.3831,1,936,1551,2975,4263,508,-17.8,200,0,0,773.2711,1,1,735692.457516008,03_04_2014 level23_spatial_Magnum 10_46 log.txt,37,37
109,0,778.4518,1,437,2761,2975,4263,511,-15,200,1,0,782.0882,0,4,735692.45762097,03_04_2014 level23_spatial_Magnum 10_46 log.txt,37,37
110,1,784.8964,1,437,2761,2975,4263,511,-15,200,1,1,788.6586,1,4,735692.45769556,03_04_2014 level23_spatial_Magnum 10_46 log.txt,37,37
111,0,791.8186,0,936,1551,2975,4263,506,-13.3,200,0,0,794.1158,1,1,735692.457775678,03_04_2014 level23_spatial_Magnum 10_46 log.txt,37,37
112,0,799.3453,0,936,1551,2975,4263,503,-13.3,200,0,1,800.4312,0,5,735692.457862793,03_04_2014 level23_spatial_Magnum 10_46 log.txt,37,37
113,1,802.517,0,936,1551,2975,4263,503,-13.3,200,0,1,803.5511,0,5,735692.457899502,03_04_2014 level23_spatial_Magnum 10_46 log.txt,37,37
114,1,805.234,1,936,1551,2975,4263,503,-13.3,200,0,1,806.3998,0,5,735692.457930949,03_04_2014 level23_spatial_Magnum 10_46 log.txt,37,37
115,1,812.8523,0,936,1551,2975,4263,503,-13.3,200,0,1,813.9611,0,5,735692.458019124,03_04_2014 level23_spatial_Magnum 10_46 log.txt,37,37
116,1,816.2435,0,936,1551,2975,4263,503,-13.3,200,0,0,817.6146,1,5,735692.458058374,03_04_2014 level23_spatial_Magnum 10_46 log.txt,37,37
117,0,823.347,1,437,2761,2975,4263,505,-10.5,200,1,0,826.2582,0,3,735692.45814059,03_04_2014 level23_spatial_Magnum 10_46 log.txt,37,37
118,1,829.9573,1,437,2761,2975,4263,505,-10.5,200,1,1,832.9391,1,3,735692.458217098,03_04_2014 level23_spatial_Magnum 10_46 log.txt,37,37
119,0,835.9528,0,437,2761,2975,4263,510,-15,200,1,0,837.801,0,2,735692.458286491,03_04_2014 level23_spatial_Magnum 10_46 log.txt,37,37
120,1,841.0627,1,437,2761,2975,4263,510,-15,200,1,1,843.5773,1,2,735692.458345633,03_04_2014 level23_spatial_Magnum 10_46 log.txt,37,37
121,0,846.268,0,437,2761,2975,4263,509,-6,200,1,1,847.1844,1,3,735692.45840588,03_04_2014 level23_spatial_Magnum 10_46 log.txt,37,37
122,0,850.4574,1,936,1551,2975,4263,501,-20,200,0,0,854.2351,1,5,735692.458454368,03_04_2014 level23_spatial_Magnum 10_46 log.txt,37,37
123,0,858.4706,1,437,2761,2975,4263,502,-8.3,200,1,1,862.5451,1,0,735692.458547113,03_04_2014 level23_spatial_Magnum 10_46 log.txt,37,37
124,0,865.7438,1,936,1551,2975,4263,507,-17.8,200,0,1,868.495,0,0,735692.458631294,03_04_2014 level23_spatial_Magnum 10_46 log.txt,37,37
125,1,870.2825,0,936,1551,2975,4263,507,-17.8,200,0,0,872.516,1,0,735692.458683825,03_04_2014 level23_spatial_Magnum 10_46 log.txt,37,37
126,0,878.5797,0,936,1551,2975,4263,507,-17.8,200,0,0,880.0968,1,2,735692.458779858,03_04_2014 level23_spatial_Magnum 10_46 log.txt,37,37
127,0,885.7258,0,936,1551,2975,4263,501,-11,200,0,0,888.0579,1,4,735692.458862567,03_04_2014 level23_spatial_Magnum 10_46 log.txt,37,37
128,0,892.7908,0,437,2761,2975,4263,502,-6,200,1,1,893.8148,1,4,735692.458944338,03_04_2014 level23_spatial_Magnum 10_46 log.txt,37,37
129,0,896.7505,0,936,1551,2975,4263,511,-20,200,0,0,898.2886,1,1,735692.458990168,03_04_2014 level23_spatial_Magnum 10_46 log.txt,37,37
130,0,904.3299,0,936,1551,2975,4263,508,-20,200,0,1,905.4906,0,3,735692.459077892,03_04_2014 level23_spatial_Magnum 10_46 log.txt,37,37
131,1,911.5002,1,936,1551,2975,4263,508,-20,200,0,1,913.3702,0,3,735692.459160882,03_04_2014 level23_spatial_Magnum 10_46 log.txt,37,37
132,1,915.7415,1,936,1551,2975,4263,508,-20,200,0,1,917.8459,0,3,735692.459209971,03_04_2014 level23_spatial_Magnum 10_46 log.txt,37,37
133,1,924.8497,1,936,1551,2975,4263,508,-20,200,0,0,928.808,1,3,735692.45931539,03_04_2014 level23_spatial_Magnum 10_46 log.txt,37,37
134,0,934.4323,0,437,2761,2975,4263,509,-12.8,200,1,1,935.6507,1,1,735692.4594263,03_04_2014 level23_spatial_Magnum 10_46 log.txt,37,37
135,0,938.2849,0,437,2761,2975,4263,503,-12.8,200,1,1,939.3803,1,0,735692.45947089,03_04_2014 level23_spatial_Magnum 10_46 log.txt,37,37
136,0,941.9791,1,936,1551,2975,4263,504,-15.5,200,0,0,945.4263,1,4,735692.459513647,03_04_2014 level23_spatial_Magnum 10_46 log.txt,37,37
137,0,949.3419,0,437,2761,2975,4263,505,-8.3,200,1,1,950.6282,1,4,735692.459598865,03_04_2014 level23_spatial_Magnum 10_46 log.txt,37,37
138,0,953.6608,0,437,2761,2975,4263,510,-15,200,1,1,954.6754,1,0,735692.459648852,03_04_2014 level23_spatial_Magnum 10_46 log.txt,37,37
139,0,957.5469,0,437,2761,2975,4263,511,-10.5,200,1,0,959.755,0,0,735692.45969383,03_04_2014 level23_spatial_Magnum 10_46 log.txt,37,37
140,1,961.6191,0,437,2761,2975,4263,511,-10.5,200,1,0,963.5336,0,0,735692.459740962,03_04_2014 level23_spatial_Magnum 10_46 log.txt,37,37
141,1,965.9762,0,437,2761,2975,4263,511,-10.5,200,1,1,967.2046,1,0,735692.459791391,03_04_2014 level23_spatial_Magnum 10_46 log.txt,37,37
142,0,973.9032,1,936,1551,2975,4263,502,-15.5,200,0,1,976.1531,0,5,735692.459883139,03_04_2014 level23_spatial_Magnum 10_46 log.txt,37,37
143,1,978.0648,1,936,1551,2975,4263,502,-15.5,200,0,1,981.0456,0,5,735692.459931306,03_04_2014 level23_spatial_Magnum 10_46 log.txt,37,37
144,1,982.6149,1,936,1551,2975,4263,502,-15.5,200,0,0,986.5785,1,5,735692.459983969,03_04_2014 level23_spatial_Magnum 10_46 log.txt,37,37
145,0,992.7884,0,437,2761,2975,4263,503,-12.8,200,1,1,993.9824,1,3,735692.460101718,03_04_2014 level23_spatial_Magnum 10_46 log.txt,37,37
146,0,997.0494,0,936,1551,2975,4263,505,-15.5,200,0,1,998.0408,0,0,735692.460151035,03_04_2014 level23_spatial_Magnum 10_46 log.txt,37,37
147,1,1003.1242,1,936,1551,2975,4263,505,-15.5,200,0,0,1005.957,1,0,735692.460221345,03_04_2014 level23_spatial_Magnum 10_46 log.txt,37,37
148,0,1011.5382,0,437,2761,2975,4263,510,-6,200,1,1,1012.5306,1,5,735692.460318729,03_04_2014 level23_spatial_Magnum 10_46 log.txt,37,37
149,0,1015.7853,1,936,1551,2975,4263,506,-20,200,0,1,1017.9989,0,0,735692.460367885,03_04_2014 level23_spatial_Magnum 10_46 log.txt,37,37
150,1,1028.1128,1,936,1551,2975,4263,506,-20,200,0,0,1032.6943,1,0,735692.460510565,03_04_2014 level23_spatial_Magnum 10_46 log.txt,37,37
151,0,1037.747,1,936,1551,2975,4263,501,-15.5,200,0,0,1040.6102,1,1,735692.460622072,03_04_2014 level23_spatial_Magnum 10_46 log.txt,37,37
152,0,1045.5043,1,437,2761,2975,4263,509,-12.8,200,1,0,1049.3881,0,2,735692.460711855,03_04_2014 level23_spatial_Magnum 10_46 log.txt,37,37
153,1,1051.6458,0,437,2761,2975,4263,509,-12.8,200,1,1,1053.0811,1,2,735692.460782938,03_04_2014 level23_spatial_Magnum 10_46 log.txt,37,37
154,0,1056.3617,0,437,2761,2975,4263,504,-10.5,200,1,1,1057.2914,1,5,735692.46083752,03_04_2014 level23_spatial_Magnum 10_46 log.txt,37,37
155,0,1060.7575,0,437,2761,2975,4263,508,-15,200,1,1,1061.6659,1,3,735692.460888397,03_04_2014 level23_spatial_Magnum 10_46 log.txt,37,37
1,0,1.3933,0,437,2761,2975,4263,507,-6,200,1,0,2.3857,0,3,735936.430571682,03_12_2014 level23_spatial_Magnum 10_20 log.txt,37,37
2,1,7.717,1,437,2761,2975,4263,507,-6,200,1,0,8.4918,0,3,735936.430644873,03_12_2014 level23_spatial_Magnum 10_20 log.txt,37,37
3,1,13.0498,0,437,2761,2975,4263,507,-6,200,1,1,14.3283,1,3,735936.430706595,03_12_2014 level23_spatial_Magnum 10_20 log.txt,37,37
4,0,16.4903,0,936,1551,2975,4263,506,-15,200,0,0,17.302,1,2,735936.430746416,03_12_2014 level23_spatial_Magnum 10_20 log.txt,37,37
5,0,21.2501,0,936,1551,2975,4263,510,-6,200,0,0,21.9253,1,3,735936.430801506,03_12_2014 level23_spatial_Magnum 10_20 log.txt,37,37
6,0,25.5523,1,437,2761,2975,4263,503,-6,200,1,0,26.8111,0,2,735936.4308513,03_12_2014 level23_spatial_Magnum 10_20 log.txt,37,37
7,1,28.7416,0,437,2761,2975,4263,503,-6,200,1,0,29.7133,0,2,735936.430888213,03_12_2014 level23_spatial_Magnum 10_20 log.txt,37,37
8,1,37.3601,0,437,2761,2975,4263,503,-6,200,1,1,38.9986,1,2,735936.430987964,03_12_2014 level23_spatial_Magnum 10_20 log.txt,37,37
9,0,41.8543,0,936,1551,2975,4263,511,-6,200,0,0,42.5578,1,0,735936.43103998,03_12_2014 level23_spatial_Magnum 10_20 log.txt,37,37
10,0,46.021,0,437,2761,2975,4263,501,-15,200,1,0,47.0018,0,2,735936.431088206,03_12_2014 level23_spatial_Magnum 10_20 log.txt,37,37
11,1,52.0654,1,437,2761,2975,4263,501,-15,200,1,1,54.7619,1,2,735936.431158164,03_12_2014 level23_spatial_Magnum 10_20 log.txt,37,37
12,0,58.0881,0,437,2761,2975,4263,509,-12.8,200,1,1,59.6051,1,3,735936.431227871,03_12_2014 level23_spatial_Magnum 10_20 log.txt,37,37
13,0,69.7366,1,936,1551,2975,4263,502,-8.3,200,0,0,72.2327,1,4,735936.431362692,03_12_2014 level23_spatial_Magnum 10_20 log.txt,37,37
14,0,75.4417,1,936,1551,2975,4263,505,-15,200,0,0,76.633,1,0,735936.431428723,03_12_2014 level23_spatial_Magnum 10_20 log.txt,37,37
15,0,81.0458,1,936,1551,2975,4263,504,-12.8,200,0,0,82.2702,1,0,735936.431493586,03_12_2014 level23_spatial_Magnum 10_20 log.txt,37,37
16,0,85.5256,1,437,2761,2975,4263,509,-10.5,200,1,1,87.2559,1,1,735936.431545435,03_12_2014 level23_spatial_Magnum 10_20 log.txt,37,37
17,0,89.3541,0,437,2761,2975,4263,501,-8.3,200,1,1,90.8337,1,1,735936.431589746,03_12_2014 level23_spatial_Magnum 10_20 log.txt,37,37
18,0,97.929,0,936,1551,2975,4263,503,-12.8,200,0,0,98.6745,1,1,735936.431688993,03_12_2014 level23_spatial_Magnum 10_20 log.txt,37,37
19,0,101.7333,1,936,1551,2975,4263,508,-15,200,0,0,102.4466,1,5,735936.431733024,03_12_2014 level23_spatial_Magnum 10_20 log.txt,37,37
20,0,105.6853,1,437,2761,2975,4263,510,-15,200,1,0,108.2336,0,4,735936.431778765,03_12_2014 level23_spatial_Magnum 10_20 log.txt,37,37
21,1,111.7035,0,437,2761,2975,4263,510,-15,200,1,1,113.0467,1,4,735936.43184842,03_12_2014 level23_spatial_Magnum 10_20 log.txt,37,37
22,0,118.0026,1,936,1551,2975,4263,502,-8.3,200,0,0,118.6158,1,0,735936.431921326,03_12_2014 level23_spatial_Magnum 10_20 log.txt,37,37
23,0,121.5931,0,936,1551,2975,4263,511,-8.3,200,0,0,125.5059,1,1,735936.431962883,03_12_2014 level23_spatial_Magnum 10_20 log.txt,37,37
24,0,128.8234,1,437,2761,2975,4263,507,-10.5,200,1,0,133.2001,0,4,735936.432046567,03_12_2014 level23_spatial_Magnum 10_20 log.txt,37,37
25,1,137.2922,0,437,2761,2975,4263,507,-10.5,200,1,1,138.89,1,4,735936.432144586,03_12_2014 level23_spatial_Magnum 10_20 log.txt,37,37
26,0,144.0336,1,936,1551,2975,4263,506,-6,200,0,1,146.4527,0,1,735936.432222611,03_12_2014 level23_spatial_Magnum 10_20 log.txt,37,37
27,1,150.2043,0,936,1551,2975,4263,506,-6,200,0,0,151.2337,1,1,735936.432294031,03_12_2014 level23_spatial_Magnum 10_20 log.txt,37,37
28,0,154.4253,0,936,1551,2975,4263,504,-10.5,200,0,1,155.9769,0,3,735936.432342885,03_12_2014 level23_spatial_Magnum 10_20 log.txt,37,37
29,1,158.2464,1,936,1551,2975,4263,504,-10.5,200,0,1,162.5214,0,3,735936.432387111,03_12_2014 level23_spatial_Magnum 10_20 log.txt,37,37
30,1,164.8455,0,936,1551,2975,4263,504,-10.5,200,0,0,165.4964,1,3,735936.43246349,03_12_2014 level23_spatial_Magnum 10_20 log.txt,37,37
31,0,168.5571,0,936,1551,2975,4263,504,-12.8,200,0,0,169.3426,1,2,735936.432506448,03_12_2014 level23_spatial_Magnum 10_20 log.txt,37,37
32,0,175.0371,1,936,1551,2975,4263,506,-6,200,0,0,177.2205,1,2,735936.432581448,03_12_2014 level23_spatial_Magnum 10_20 log.txt,37,37
33,0,180.6894,0,936,1551,2975,4263,502,-12.8,200,0,0,181.65,1,5,735936.432646868,03_12_2014 level23_spatial_Magnum 10_20 log.txt,37,37
34,0,184.7632,1,936,1551,2975,4263,511,-15,200,0,0,187.1399,1,4,735936.432694018,03_12_2014 level23_spatial_Magnum 10_20 log.txt,37,37
35,0,190.169,0,437,2761,2975,4263,505,-15,200,1,1,191.344,1,3,735936.432756586,03_12_2014 level23_spatial_Magnum 10_20 log.txt,37,37
36,0,194.1179,0,437,2761,2975,4263,508,-12.8,200,1,1,195.6786,1,5,735936.43280229,03_12_2014 level23_spatial_Magnum 10_20 log.txt,37,37
37,0,198.2263,0,936,1551,2975,4263,501,-10.5,200,0,0,199.0134,1,2,735936.432849841,03_12_2014 level23_spatial_Magnum 10_20 log.txt,37,37
38,0,202.2795,0,936,1551,2975,4263,510,-8.3,200,0,0,203.0663,1,5,735936.432896753,03_12_2014 level23_spatial_Magnum 10_20 log.txt,37,37
39,0,206.1396,1,936,1551,2975,4263,507,-10.5,200,0,0,208.5368,1,1,735936.43294143,03_12_2014 level23_spatial_Magnum 10_20 log.txt,37,37
40,0,211.9885,1,936,1551,2975,4263,503,-8.3,200,0,0,216.1329,1,2,735936.433009126,03_12_2014 level23_spatial_Magnum 10_20 log.txt,37,37
41,0,219.576,0,437,2761,2975,4263,503,-6,200,1,1,221.036,1,5,735936.433096944,03_12_2014 level23_spatial_Magnum 10_20 log.txt,37,37
42,0,230.8189,1,936,1551,2975,4263,507,-10.5,200,0,0,232.8875,1,4,735936.433227071,03_12_2014 level23_spatial_Magnum 10_20 log.txt,37,37
43,0,236.2302,0,936,1551,2975,4263,504,-15,200,0,0,237.1898,1,3,735936.433289701,03_12_2014 level23_spatial_Magnum 10_20 log.txt,37,37
44,0,243.551,0,437,2761,2975,4263,511,-12.8,200,1,1,244.9717,1,4,735936.433374433,03_12_2014 level23_spatial_Magnum 10_20 log.txt,37,37
45,0,247.4736,1,936,1551,2975,4263,502,-12.8,200,0,0,249.6405,1,4,735936.433419833,03_12_2014 level23_spatial_Magnum 10_20 log.txt,37,37
46,0,252.961,0,936,1551,2975,4263,508,-6,200,0,0,253.7863,1,5,735936.433483345,03_12_2014 level23_spatial_Magnum 10_20 log.txt,37,37
47,0,256.8608,0,437,2761,2975,4263,505,-10.5,200,1,1,258.4722,1,3,735936.433528481,03_12_2014 level23_spatial_Magnum 10_20 log.txt,37,37
48,0,262.5309,1,437,2761,2975,4263,510,-12.8,200,1,1,266.5614,1,2,735936.433594108,03_12_2014 level23_spatial_Magnum 10_20 log.txt,37,37
49,0,275.0862,0,437,2761,2975,4263,501,-12.8,200,1,0,276.0267,0,1,735936.433739424,03_12_2014 level23_spatial_Magnum 10_20 log.txt,37,37
50,1,286.0451,0,437,2761,2975,4263,501,-12.8,200,1,1,287.9211,1,1,735936.433866263,03_12_2014 level23_spatial_Magnum 10_20 log.txt,37,37
51,0,297.4121,1,437,2761,2975,4263,506,-15,200,1,1,301.0494,1,0,735936.433997825,03_12_2014 level23_spatial_Magnum 10_20 log.txt,37,37
52,0,309.1995,0,437,2761,2975,4263,505,-8.3,200,1,0,311.0055,0,5,735936.434134253,03_12_2014 level23_spatial_Magnum 10_20 log.txt,37,37
53,1,314.8694,1,437,2761,2975,4263,505,-8.3,200,1,1,318.4054,1,5,735936.434199877,03_12_2014 level23_spatial_Magnum 10_20 log.txt,37,37
54,0,322.3758,1,437,2761,2975,4263,503,-10.5,200,1,1,326.4863,1,2,735936.434286757,03_12_2014 level23_spatial_Magnum 10_20 log.txt,37,37
55,0,334.8633,0,936,1551,2975,4263,501,-12.8,200,0,0,335.915,1,3,735936.434431288,03_12_2014 level23_spatial_Magnum 10_20 log.txt,37,37
56,0,339.3846,1,936,1551,2975,4263,506,-8.3,200,0,0,343.5713,1,3,735936.434483618,03_12_2014 level23_spatial_Magnum 10_20 log.txt,37,37
57,0,346.7699,1,437,2761,2975,4263,510,-10.5,200,1,0,350.2414,0,5,735936.434569096,03_12_2014 level23_spatial_Magnum 10_20 log.txt,37,37
58,1,354.7075,1,437,2761,2975,4263,510,-10.5,200,1,1,358.5554,1,5,735936.434660966,03_12_2014 level23_spatial_Magnum 10_20 log.txt,37,37
59,0,361.0979,1,437,2761,2975,4263,509,-8.3,200,1,1,364.6552,1,0,735936.434734929,03_12_2014 level23_spatial_Magnum 10_20 log.txt,37,37
60,0,370.0523,0,437,2761,2975,4263,507,-12.8,200,1,1,372.2974,1,0,735936.434838568,03_12_2014 level23_spatial_Magnum 10_20 log.txt,37,37
61,0,381.0209,0,437,2761,2975,4263,502,-6,200,1,0,382,0,1,735936.43496552,03_12_2014 level23_spatial_Magnum 10_20 log.txt,37,37
62,1,386.8837,0,437,2761,2975,4263,502,-6,200,1,1,388.9213,1,1,735936.435033376,03_12_2014 level23_spatial_Magnum 10_20 log.txt,37,37
63,0,396.5622,1,437,2761,2975,4263,504,-8.3,200,1,1,400.6665,1,2,735936.435145396,03_12_2014 level23_spatial_Magnum 10_20 log.txt,37,37
64,0,408.5851,0,437,2761,2975,4263,508,-10.5,200,1,0,409.4151,0,0,735936.43528455,03_12_2014 level23_spatial_Magnum 10_20 log.txt,37,37
65,1,411.189,0,437,2761,2975,4263,508,-10.5,200,1,0,412.1504,0,0,735936.435314687,03_12_2014 level23_spatial_Magnum 10_20 log.txt,37,37
66,1,415.9107,1,437,2761,2975,4263,508,-10.5,200,1,1,421.2083,1,0,735936.435369337,03_12_2014 level23_spatial_Magnum 10_20 log.txt,37,37
67,0,423.12,1,437,2761,2975,4263,511,-8.3,200,1,1,426.8569,1,3,735936.435452778,03_12_2014 level23_spatial_Magnum 10_20 log.txt,37,37
68,0,432.2242,1,936,1551,2975,4263,506,-6,200,0,0,434.234,1,4,735936.43555815,03_12_2014 level23_spatial_Magnum 10_20 log.txt,37,37
69,0,437.6821,1,437,2761,2975,4263,501,-15,200,1,0,442.6642,0,1,735936.435621321,03_12_2014 level23_spatial_Magnum 10_20 log.txt,37,37
70,1,445.5122,1,437,2761,2975,4263,501,-15,200,1,1,448.3051,1,1,735936.435711947,03_12_2014 level23_spatial_Magnum 10_20 log.txt,37,37
71,0,451.8947,0,936,1551,2975,4263,504,-10.5,200,0,0,452.9114,1,0,735936.435785818,03_12_2014 level23_spatial_Magnum 10_20 log.txt,37,37
72,0,456.7259,1,936,1551,2975,4263,509,-10.5,200,0,0,458.8774,1,5,735936.435841735,03_12_2014 level23_spatial_Magnum 10_20 log.txt,37,37
73,0,462.6139,0,437,2761,2975,4263,510,-15,200,1,1,464.2483,1,5,735936.435909883,03_12_2014 level23_spatial_Magnum 10_20 log.txt,37,37
74,0,466.3536,0,437,2761,2975,4263,505,-6,200,1,1,467.9619,1,4,735936.435953167,03_12_2014 level23_spatial_Magnum 10_20 log.txt,37,37
75,0,473.6374,0,437,2761,2975,4263,508,-8.3,200,1,0,474.4455,0,4,735936.43603747,03_12_2014 level23_spatial_Magnum 10_20 log.txt,37,37
76,1,477.4413,1,437,2761,2975,4263,508,-8.3,200,1,1,481.1384,1,4,735936.436081497,03_12_2014 level23_spatial_Magnum 10_20 log.txt,37,37
77,0,483.9039,1,936,1551,2975,4263,503,-15,200,0,0,490.104,1,1,735936.436156295,03_12_2014 level23_spatial_Magnum 10_20 log.txt,37,37
78,0,493.4093,0,437,2761,2975,4263,502,-6,200,1,0,494.4386,0,0,735936.436266311,03_12_2014 level23_spatial_Magnum 10_20 log.txt,37,37
79,1,497.6599,0,437,2761,2975,4263,502,-6,200,1,1,499.7026,1,0,735936.436315508,03_12_2014 level23_spatial_Magnum 10_20 log.txt,37,37
80,0,501.434,0,936,1551,2975,4263,509,-6,200,0,0,502.448,1,5,735936.43635919,03_12_2014 level23_spatial_Magnum 10_20 log.txt,37,37
81,0,505.6853,0,437,2761,2975,4263,503,-6,200,1,0,506.5103,0,5,735936.436408395,03_12_2014 level23_spatial_Magnum 10_20 log.txt,37,37
82,1,508.3847,1,437,2761,2975,4263,503,-6,200,1,1,511.2749,1,5,735936.436439638,03_12_2014 level23_spatial_Magnum 10_20 log.txt,37,37
83,0,516.1159,1,936,1551,2975,4263,504,-6,200,0,0,519.436,1,0,735936.436529119,03_12_2014 level23_spatial_Magnum 10_20 log.txt,37,37
84,0,523.0354,1,936,1551,2975,4263,502,-8.3,200,0,0,526.9088,1,1,735936.436609206,03_12_2014 level23_spatial_Magnum 10_20 log.txt,37,37
85,0,530.7954,0,936,1551,2975,4263,506,-15,200,0,0,531.7385,1,3,735936.436699021,03_12_2014 level23_spatial_Magnum 10_20 log.txt,37,37
86,0,539.3468,1,936,1551,2975,4263,501,-10.5,200,0,0,541.1424,1,4,735936.436797995,03_12_2014 level23_spatial_Magnum 10_20 log.txt,37,37
87,0,545.0361,0,437,2761,2975,4263,505,-6,200,1,0,546.0971,0,1,735936.436863844,03_12_2014 level23_spatial_Magnum 10_20 log.txt,37,37
88,1,548.3158,1,437,2761,2975,4263,505,-6,200,1,1,552.2969,1,1,735936.436901803,03_12_2014 level23_spatial_Magnum 10_20 log.txt,37,37
89,0,557.4849,0,936,1551,2975,4263,510,-10.5,200,0,0,558.3766,1,5,735936.437007927,03_12_2014 level23_spatial_Magnum 10_20 log.txt,37,37
90,0,561.446,0,936,1551,2975,4263,511,-8.3,200,0,0,562.2437,1,0,735936.437053773,03_12_2014 level23_spatial_Magnum 10_20 log.txt,37,37
91,0,565.6941,1,936,1551,2975,4263,507,-12.8,200,0,1,566.2727,0,4,735936.437102941,03_12_2014 level23_spatial_Magnum 10_20 log.txt,37,37
92,1,574.3797,0,936,1551,2975,4263,507,-12.8,200,0,0,575.2151,1,4,735936.437203469,03_12_2014 level23_spatial_Magnum 10_20 log.txt,37,37
93,0,578.6162,0,437,2761,2975,4263,506,-10.5,200,1,1,580.1857,1,1,735936.437252502,03_12_2014 level23_spatial_Magnum 10_20 log.txt,37,37
94,0,586.0818,0,936,1551,2975,4263,509,-12.8,200,0,0,586.9721,1,0,735936.43733891,03_12_2014 level23_spatial_Magnum 10_20 log.txt,37,37
95,0,590.3879,1,936,1551,2975,4263,508,-15,200,0,0,592.4388,1,5,735936.437388749,03_12_2014 level23_spatial_Magnum 10_20 log.txt,37,37
96,0,595.6274,1,936,1551,2975,4263,511,-12.8,200,0,0,598.3747,1,5,735936.437449391,03_12_2014 level23_spatial_Magnum 10_20 log.txt,37,37
97,0,602.8115,0,936,1551,2975,4263,507,-12.8,200,0,0,603.9124,1,2,735936.43753254,03_12_2014 level23_spatial_Magnum 10_20 log.txt,37,37
98,0,607.4201,1,936,1551,2975,4263,501,-6,200,0,0,609.5079,1,3,735936.437585881,03_12_2014 level23_spatial_Magnum 10_20 log.txt,37,37
99,0,612.8755,0,437,2761,2975,4263,510,-12.8,200,1,0,614.0613,0,4,735936.437649022,03_12_2014 level23_spatial_Magnum 10_20 log.txt,37,37
100,1,617.0928,1,437,2761,2975,4263,510,-12.8,200,1,1,620.5082,1,4,735936.437697833,03_12_2014 level23_spatial_Magnum 10_20 log.txt,37,37
101,0,623.4446,1,437,2761,2975,4263,502,-8.3,200,1,1,628.3199,1,5,735936.437771349,03_12_2014 level23_spatial_Magnum 10_20 log.txt,37,37
102,0,643.0283,0,437,2761,2975,4263,504,-15,200,1,0,644.0501,0,5,735936.437998013,03_12_2014 level23_spatial_Magnum 10_20 log.txt,37,37
103,1,647.7672,0,437,2761,2975,4263,504,-15,200,1,1,649.2823,1,5,735936.438052861,03_12_2014 level23_spatial_Magnum 10_20 log.txt,37,37
104,0,652.9429,0,936,1551,2975,4263,505,-15,200,0,0,653.6849,1,4,735936.438112765,03_12_2014 level23_spatial_Magnum 10_20 log.txt,37,37
105,0,656.9344,0,437,2761,2975,4263,508,-15,200,1,1,657.8404,1,4,735936.438158963,03_12_2014 level23_spatial_Magnum 10_20 log.txt,37,37
106,0,661.9444,1,936,1551,2975,4263,501,-12.8,200,0,0,663.7251,1,3,735936.438216949,03_12_2014 level23_spatial_Magnum 10_20 log.txt,37,37
107,0,666.7104,0,437,2761,2975,4263,511,-10.5,200,1,0,667.506,0,0,735936.438272111,03_12_2014 level23_spatial_Magnum 10_20 log.txt,37,37
108,1,674.8582,0,437,2761,2975,4263,511,-10.5,200,1,1,676.5276,1,0,735936.438366414,03_12_2014 level23_spatial_Magnum 10_20 log.txt,37,37
109,0,682.3928,1,437,2761,2975,4263,510,-8.3,200,1,0,684.9473,0,3,735936.43845362,03_12_2014 level23_spatial_Magnum 10_20 log.txt,37,37
110,1,686.6246,0,437,2761,2975,4263,510,-8.3,200,1,1,688.546,1,3,735936.438502599,03_12_2014 level23_spatial_Magnum 10_20 log.txt,37,37
111,0,693.0006,1,437,2761,2975,4263,507,-10.5,200,1,0,696.7035,0,5,735936.438576396,03_12_2014 level23_spatial_Magnum 10_20 log.txt,37,37
112,1,700.2796,0,437,2761,2975,4263,507,-10.5,200,1,1,701.343,1,5,735936.438660643,03_12_2014 level23_spatial_Magnum 10_20 log.txt,37,37
113,0,707.0334,1,936,1551,2975,4263,503,-6,200,0,0,710.9955,1,1,735936.438738812,03_12_2014 level23_spatial_Magnum 10_20 log.txt,37,37
114,0,714.1181,0,936,1551,2975,4263,506,-10.5,200,0,0,714.9014,1,0,735936.438820811,03_12_2014 level23_spatial_Magnum 10_20 log.txt,37,37
115,0,717.9724,1,437,2761,2975,4263,505,-12.8,200,1,0,721.2762,0,1,735936.438865421,03_12_2014 level23_spatial_Magnum 10_20 log.txt,37,37
116,1,728.5152,1,437,2761,2975,4263,505,-12.8,200,1,1,731.8244,1,1,735936.438987444,03_12_2014 level23_spatial_Magnum 10_20 log.txt,37,37
117,0,735.912,1,437,2761,2975,4263,509,-12.8,200,1,0,737.9038,0,5,735936.439073056,03_12_2014 level23_spatial_Magnum 10_20 log.txt,37,37
118,1,740.2202,0,437,2761,2975,4263,509,-12.8,200,1,1,742.0517,1,5,735936.439122919,03_12_2014 level23_spatial_Magnum 10_20 log.txt,37,37
119,0,748.7917,0,437,2761,2975,4263,502,-10.5,200,1,1,750.4989,1,4,735936.439222126,03_12_2014 level23_spatial_Magnum 10_20 log.txt,37,37
120,0,753.288,1,936,1551,2975,4263,505,-8.3,200,0,0,755.1126,1,4,735936.439274167,03_12_2014 level23_spatial_Magnum 10_20 log.txt,37,37
121,0,758.1558,0,437,2761,2975,4263,506,-6,200,1,1,760.3224,1,2,735936.439330507,03_12_2014 level23_spatial_Magnum 10_20 log.txt,37,37
122,0,763.9026,0,936,1551,2975,4263,504,-8.3,200,0,0,764.6306,1,5,735936.439397021,03_12_2014 level23_spatial_Magnum 10_20 log.txt,37,37
123,0,767.7915,1,437,2761,2975,4263,507,-8.3,200,1,1,769.4266,1,2,735936.439442031,03_12_2014 level23_spatial_Magnum 10_20 log.txt,37,37
124,0,770.7224,1,936,1551,2975,4263,511,-8.3,200,0,0,776.1785,1,2,735936.439475954,03_12_2014 level23_spatial_Magnum 10_20 log.txt,37,37
125,0,779.4242,0,437,2761,2975,4263,509,-8.3,200,1,1,787.4174,1,1,735936.439576669,03_12_2014 level23_spatial_Magnum 10_20 log.txt,37,37
126,0,797.5139,1,936,1551,2975,4263,508,-6,200,0,0,799.5956,1,4,735936.43978604,03_12_2014 level23_spatial_Magnum 10_20 log.txt,37,37
127,0,807.2439,1,936,1551,2975,4263,502,-12.8,200,0,0,809.8857,1,1,735936.439898656,03_12_2014 level23_spatial_Magnum 10_20 log.txt,37,37
128,0,813.5057,1,936,1551,2975,4263,503,-10.5,200,0,0,816.4445,1,2,735936.439971131,03_12_2014 level23_spatial_Magnum 10_20 log.txt,37,37
129,0,819.494,1,437,2761,2975,4263,501,-15,200,1,1,822.9686,1,1,735936.44004044,03_12_2014 level23_spatial_Magnum 10_20 log.txt,37,37
130,0,827.5782,0,936,1551,2975,4263,509,-10.5,200,0,0,828.5929,1,1,735936.440134007,03_12_2014 level23_spatial_Magnum 10_20 log.txt,37,37
131,0,835.5685,1,437,2761,2975,4263,507,-6,200,1,0,838.178,0,0,735936.440226487,03_12_2014 level23_spatial_Magnum 10_20 log.txt,37,37
132,1,842.3754,1,437,2761,2975,4263,507,-6,200,1,1,846.4699,1,0,735936.440305271,03_12_2014 level23_spatial_Magnum 10_20 log.txt,37,37
133,0,853.1465,0,936,1551,2975,4263,506,-15,200,0,0,853.9125,1,1,735936.440429936,03_12_2014 level23_spatial_Magnum 10_20 log.txt,37,37
134,0,857.2931,0,437,2761,2975,4263,503,-12.8,200,1,1,858.2185,1,0,735936.440477929,03_12_2014 level23_spatial_Magnum 10_20 log.txt,37,37
135,0,860.7774,1,437,2761,2975,4263,511,-15,200,1,0,863.1252,0,3,735936.440518257,03_12_2014 level23_spatial_Magnum 10_20 log.txt,37,37
136,1,876.4497,0,437,2761,2975,4263,511,-15,200,1,0,877.5141,0,3,735936.440699649,03_12_2014 level23_spatial_Magnum 10_20 log.txt,37,37
137,1,879.6511,0,437,2761,2975,4263,511,-15,200,1,1,881.3906,1,3,735936.440736703,03_12_2014 level23_spatial_Magnum 10_20 log.txt,37,37
138,0,885.8711,0,936,1551,2975,4263,502,-15,200,0,0,886.5992,1,2,735936.440808693,03_12_2014 level23_spatial_Magnum 10_20 log.txt,37,37
139,0,889.4909,0,437,2761,2975,4263,510,-15,200,1,0,890.356,0,0,735936.440850589,03_12_2014 level23_spatial_Magnum 10_20 log.txt,37,37
1,0,2369.5499,0,936,1551,2975,4263,502,-8.3,200,0,0,2370.5323,1,4,735936.643397568,03_12_2014 level23_spatial_Magnum 14_47 log.txt,36,12
2,0,2374.4648,0,936,1551,2975,4263,501,-15,200,0,0,2375.542,1,0,735936.643454454,03_12_2014 level23_spatial_Magnum 14_47 log.txt,36,12
3,0,2379.9126,1,437,2761,2975,4263,506,-12.8,200,1,1,2381.6328,1,4,735936.643517507,03_12_2014 level23_spatial_Magnum 14_47 log.txt,36,12
4,0,2390.4594,0,437,2761,2975,4263,510,-6,200,1,0,2396.3655,0,0,735936.643639576,03_12_2014 level23_spatial_Magnum 14_47 log.txt,36,12
5,1,2400.7619,0,437,2761,2975,4263,510,-6,200,1,0,2401.7612,0,0,735936.643758818,03_12_2014 level23_spatial_Magnum 14_47 log.txt,36,11
6,1,2404.1677,1,437,2761,2975,4263,510,-6,200,1,0,2406.3618,0,0,735936.643798237,03_12_2014 level23_spatial_Magnum 14_47 log.txt,36,11
1,0,284.0709,1,437,2761,2975,4263,502,-15,200,1,1,285.4285,1,4,735937.379676747,04_12_2014 level23_spatial_Magnum 09_02 log.txt,37,37
2,0,292.5925,0,437,2761,2975,4263,511,-15,200,1,0,293.3383,0,0,735937.379775376,04_12_2014 level23_spatial_Magnum 09_02 log.txt,37,37
3,1,297.2937,1,437,2761,2975,4263,511,-15,200,1,0,297.9973,0,0,735937.379829788,04_12_2014 level23_spatial_Magnum 09_02 log.txt,37,37
4,1,299.7029,0,437,2761,2975,4263,511,-15,200,1,1,304.4654,1,0,735937.379857672,04_12_2014 level23_spatial_Magnum 09_02 log.txt,37,37
5,0,308.3865,0,437,2761,2975,4263,501,-12.8,200,1,1,309.9865,1,5,735937.379958177,04_12_2014 level23_spatial_Magnum 09_02 log.txt,37,37
6,0,316.6669,0,936,1551,2975,4263,509,-6,200,0,0,317.1332,1,4,735937.380054015,04_12_2014 level23_spatial_Magnum 09_02 log.txt,37,37
7,0,320.8195,1,936,1551,2975,4263,508,-15,200,0,0,322.4975,1,5,735937.380102078,04_12_2014 level23_spatial_Magnum 09_02 log.txt,37,37
8,0,325.9109,0,437,2761,2975,4263,504,-8.3,200,1,0,326.7113,0,0,735937.380161006,04_12_2014 level23_spatial_Magnum 09_02 log.txt,37,37
9,1,329.565,1,437,2761,2975,4263,504,-8.3,200,1,1,332.7227,1,0,735937.380203299,04_12_2014 level23_spatial_Magnum 09_02 log.txt,37,37
10,0,336.6674,1,437,2761,2975,4263,506,-12.8,200,1,1,341.4084,1,1,735937.380285502,04_12_2014 level23_spatial_Magnum 09_02 log.txt,37,37
11,0,347.7116,1,936,1551,2975,4263,503,-10.5,200,0,0,349.6036,1,5,735937.380413329,04_12_2014 level23_spatial_Magnum 09_02 log.txt,37,37
12,0,352.5569,1,936,1551,2975,4263,507,-10.5,200,0,0,354.449,1,4,735937.380469409,04_12_2014 level23_spatial_Magnum 09_02 log.txt,37,37
13,0,357.5947,0,437,2761,2975,4263,510,-15,200,1,1,359.6528,1,2,735937.380527716,04_12_2014 level23_spatial_Magnum 09_02 log.txt,37,37
14,0,361.2522,0,437,2761,2975,4263,502,-6,200,1,1,362.7314,1,2,735937.380570049,04_12_2014 level23_spatial_Magnum 09_02 log.txt,37,37
15,0,365.4222,1,936,1551,2975,4263,508,-15,200,0,0,367.2767,1,4,735937.380618313,04_12_2014 level23_spatial_Magnum 09_02 log.txt,37,37
16,0,370.6116,0,936,1551,2975,4263,503,-6,200,0,0,371.6531,1,2,735937.380678375,04_12_2014 level23_spatial_Magnum 09_02 log.txt,37,37
17,0,374.9279,0,936,1551,2975,4263,504,-15,200,0,0,375.832,1,2,735937.380728332,04_12_2014 level23_spatial_Magnum 09_02 log.txt,37,37
18,0,378.8202,1,437,2761,2975,4263,507,-15,200,1,1,384.7784,1,1,735937.380773382,04_12_2014 level23_spatial_Magnum 09_02 log.txt,37,37
19,0,392.1654,1,437,2761,2975,4263,501,-15,200,1,1,395.5894,1,3,735937.38092784,04_12_2014 level23_spatial_Magnum 09_02 log.txt,37,37
20,0,397.936,0,437,2761,2975,4263,506,-15,200,1,0,398.734,0,5,735937.38099463,04_12_2014 level23_spatial_Magnum 09_02 log.txt,37,37
21,1,401.954,1,437,2761,2975,4263,506,-15,200,1,1,406.055,1,5,735937.381041134,04_12_2014 level23_spatial_Magnum 09_02 log.txt,37,37
22,0,410.041,0,936,1551,2975,4263,510,-8.3,200,0,0,410.8364,1,0,735937.381134734,04_12_2014 level23_spatial_Magnum 09_02 log.txt,37,37
23,0,414.1336,1,936,1551,2975,4263,511,-6,200,0,0,416.8262,1,0,735937.381182102,04_12_2014 level23_spatial_Magnum 09_02 log.txt,37,37
24,0,420.1384,0,437,2761,2975,4263,505,-8.3,200,1,0,421.0917,0,2,735937.381251602,04_12_2014 level23_spatial_Magnum 09_02 log.txt,37,37
25,1,423.8048,0,437,2761,2975,4263,505,-8.3,200,1,1,424.7011,1,2,735937.381294037,04_12_2014 level23_spatial_Magnum 09_02 log.txt,37,37
26,0,431.881,1,437,2761,2975,4263,501,-10.5,200,1,1,435.8212,1,2,735937.381387512,04_12_2014 level23_spatial_Magnum 09_02 log.txt,37,37
27,0,437.7815,1,936,1551,2975,4263,505,-10.5,200,0,0,441.1073,1,1,735937.381455804,04_12_2014 level23_spatial_Magnum 09_02 log.txt,37,37
28,0,444.1324,1,437,2761,2975,4263,502,-8.3,200,1,1,448.1424,1,1,735937.38152931,04_12_2014 level23_spatial_Magnum 09_02 log.txt,37,37
29,0,455.6492,0,936,1551,2975,4263,509,-8.3,200,0,0,456.5442,1,5,735937.381662606,04_12_2014 level23_spatial_Magnum 09_02 log.txt,37,37
30,0,459.6882,0,936,1551,2975,4263,510,-12.8,200,0,0,460.5479,1,4,735937.381709354,04_12_2014 level23_spatial_Magnum 09_02 log.txt,37,37
31,0,464.0037,1,437,2761,2975,4263,508,-10.5,200,1,0,466.8239,0,1,735937.381759302,04_12_2014 level23_spatial_Magnum 09_02 log.txt,37,37
32,1,470.3284,1,437,2761,2975,4263,508,-10.5,200,1,1,473.346,1,1,735937.381832505,04_12_2014 level23_spatial_Magnum 09_02 log.txt,37,37
33,0,475.8498,0,936,1551,2975,4263,506,-12.8,200,0,0,476.6246,1,2,735937.38189641,04_12_2014 level23_spatial_Magnum 09_02 log.txt,37,37
34,0,479.9181,1,936,1551,2975,4263,504,-15,200,0,0,481.6958,1,3,735937.381943497,04_12_2014 level23_spatial_Magnum 09_02 log.txt,37,37
35,0,484.6135,1,437,2761,2975,4263,511,-8.3,200,1,0,488.9076,0,4,735937.381997842,04_12_2014 level23_spatial_Magnum 09_02 log.txt,37,37
36,1,493.6517,0,437,2761,2975,4263,511,-8.3,200,1,1,495.3294,1,4,735937.38210245,04_12_2014 level23_spatial_Magnum 09_02 log.txt,37,37
37,0,497.8352,1,437,2761,2975,4263,503,-6,200,1,1,500.4244,1,3,735937.38215087,04_12_2014 level23_spatial_Magnum 09_02 log.txt,37,37
38,0,506.2644,0,437,2761,2975,4263,503,-8.3,200,1,1,509.1086,1,3,735937.382248431,04_12_2014 level23_spatial_Magnum 09_02 log.txt,37,37
39,0,510.1665,1,437,2761,2975,4263,504,-12.8,200,1,0,510.8017,0,4,735937.382293594,04_12_2014 level23_spatial_Magnum 09_02 log.txt,37,37
40,1,518.3565,1,437,2761,2975,4263,504,-12.8,200,1,1,522.9765,1,4,735937.382388385,04_12_2014 level23_spatial_Magnum 09_02 log.txt,37,37
41,0,526.5009,1,437,2761,2975,4263,508,-10.5,200,1,0,531.6689,0,3,735937.382482649,04_12_2014 level23_spatial_Magnum 09_02 log.txt,37,37
42,1,534.8385,0,437,2761,2975,4263,508,-10.5,200,1,1,537.012,1,3,735937.382579149,04_12_2014 level23_spatial_Magnum 09_02 log.txt,37,37
43,0,544.2701,1,936,1551,2975,4263,501,-10.5,200,0,0,546.2625,1,3,735937.382688311,04_12_2014 level23_spatial_Magnum 09_02 log.txt,37,37
44,0,549.4344,1,437,2761,2975,4263,505,-10.5,200,1,0,553.7467,0,0,735937.382748083,04_12_2014 level23_spatial_Magnum 09_02 log.txt,37,37
45,1,555.3409,1,437,2761,2975,4263,505,-10.5,200,1,1,559.2281,1,0,735937.382816446,04_12_2014 level23_spatial_Magnum 09_02 log.txt,37,37
46,0,562.6401,0,936,1551,2975,4263,502,-12.8,200,0,0,563.3844,1,1,735937.382900927,04_12_2014 level23_spatial_Magnum 09_02 log.txt,37,37
47,0,566.9742,0,437,2761,2975,4263,510,-6,200,1,1,568.1017,1,0,735937.38295109,04_12_2014 level23_spatial_Magnum 09_02 log.txt,37,37
48,0,570.5795,1,437,2761,2975,4263,511,-12.8,200,1,1,574.2979,1,2,735937.382992818,04_12_2014 level23_spatial_Magnum 09_02 log.txt,37,37
49,0,582.3866,0,936,1551,2975,4263,507,-6,200,0,0,583.1948,1,3,735937.383129475,04_12_2014 level23_spatial_Magnum 09_02 log.txt,37,37
50,0,586.3497,1,437,2761,2975,4263,506,-12.8,200,1,1,588.2075,1,3,735937.383175344,04_12_2014 level23_spatial_Magnum 09_02 log.txt,37,37
51,0,595.9281,0,936,1551,2975,4263,505,-8.3,200,0,0,596.8823,1,1,735937.383286205,04_12_2014 level23_spatial_Magnum 09_02 log.txt,37,37
52,0,600.5492,1,936,1551,2975,4263,503,-10.5,200,0,0,602.1495,1,0,735937.38333969,04_12_2014 level23_spatial_Magnum 09_02 log.txt,37,37
53,0,605.3673,1,437,2761,2975,4263,502,-10.5,200,1,1,608.7842,1,4,735937.383395455,04_12_2014 level23_spatial_Magnum 09_02 log.txt,37,37
54,0,611.9463,0,936,1551,2975,4263,501,-12.8,200,0,0,612.9447,1,3,735937.383471601,04_12_2014 level23_spatial_Magnum 09_02 log.txt,37,37
55,0,616.1302,1,936,1551,2975,4263,510,-12.8,200,0,0,618.1557,1,0,735937.383520026,04_12_2014 level23_spatial_Magnum 09_02 log.txt,37,37
56,0,621.1101,0,936,1551,2975,4263,506,-8.3,200,0,0,622.2254,1,4,735937.383577663,04_12_2014 level23_spatial_Magnum 09_02 log.txt,37,37
57,0,625.3973,0,936,1551,2975,4263,509,-10.5,200,0,0,626.2486,1,2,735937.383627284,04_12_2014 level23_spatial_Magnum 09_02 log.txt,37,37
58,0,629.8587,0,437,2761,2975,4263,508,-8.3,200,1,1,632.405,1,5,735937.38367892,04_12_2014 level23_spatial_Magnum 09_02 log.txt,37,37
59,0,638.8043,0,936,1551,2975,4263,504,-6,200,0,0,639.6448,1,5,735937.383782457,04_12_2014 level23_spatial_Magnum 09_02 log.txt,37,37
60,0,642.9385,0,936,1551,2975,4263,507,-6,200,0,0,644.1661,1,1,735937.383830307,04_12_2014 level23_spatial_Magnum 09_02 log.txt,37,37
61,0,652.5939,1,936,1551,2975,4263,508,-15,200,0,0,654.3328,1,1,735937.383942059,04_12_2014 level23_spatial_Magnum 09_02 log.txt,37,37
62,0,657.4848,0,936,1551,2975,4263,505,-15,200,0,0,658.4839,1,0,735937.383998667,04_12_2014 level23_spatial_Magnum 09_02 log.txt,37,37
63,0,661.9252,0,936,1551,2975,4263,510,-12.8,200,0,0,662.9386,1,5,735937.38405006,04_12_2014 level23_spatial_Magnum 09_02 log.txt,37,37
64,0,667.0057,1,437,2761,2975,4263,502,-6,200,1,1,670.044,1,4,735937.384108862,04_12_2014 level23_spatial_Magnum 09_02 log.txt,37,37
65,0,674.8138,1,936,1551,2975,4263,506,-8.3,200,0,0,677.6187,1,3,735937.384199234,04_12_2014 level23_spatial_Magnum 09_02 log.txt,37,37
66,0,680.4375,0,437,2761,2975,4263,503,-6,200,1,1,682.8503,1,5,735937.384264323,04_12_2014 level23_spatial_Magnum 09_02 log.txt,37,37
67,0,686.3261,0,936,1551,2975,4263,504,-8.3,200,0,0,687.2826,1,2,735937.384332478,04_12_2014 level23_spatial_Magnum 09_02 log.txt,37,37
68,0,690.0456,0,437,2761,2975,4263,507,-10.5,200,1,0,691.1897,0,5,735937.384375528,04_12_2014 level23_spatial_Magnum 09_02 log.txt,37,37
69,1,696.8325,0,437,2761,2975,4263,507,-10.5,200,1,1,698.4268,1,5,735937.38445408,04_12_2014 level23_spatial_Magnum 09_02 log.txt,37,37
70,0,704.3004,1,437,2761,2975,4263,511,-6,200,1,1,708.0296,1,1,735937.384540514,04_12_2014 level23_spatial_Magnum 09_02 log.txt,37,37
71,0,713.1425,1,437,2761,2975,4263,509,-12.8,200,1,1,717.9389,1,0,735937.384642853,04_12_2014 level23_spatial_Magnum 09_02 log.txt,37,37
72,0,722.9753,1,936,1551,2975,4263,510,-6,200,0,0,726.0257,1,2,735937.384756659,04_12_2014 level23_spatial_Magnum 09_02 log.txt,37,37
73,0,729.9029,1,437,2761,2975,4263,508,-12.8,200,1,1,735.5514,1,0,735937.384836839,04_12_2014 level23_spatial_Magnum 09_02 log.txt,37,37
74,0,739.4252,1,936,1551,2975,4263,504,-6,200,0,0,741.9193,1,0,735937.384947051,04_12_2014 level23_spatial_Magnum 09_02 log.txt,37,37
75,0,748.8475,0,936,1551,2975,4263,506,-15,200,0,0,749.7423,1,4,735937.385056105,04_12_2014 level23_spatial_Magnum 09_02 log.txt,37,37
76,0,752.7376,0,437,2761,2975,4263,505,-8.3,200,1,1,754.961,1,3,735937.38510113,04_12_2014 level23_spatial_Magnum 09_02 log.txt,37,37
77,0,757.1312,0,936,1551,2975,4263,503,-15,200,0,0,757.9755,1,0,735937.385151981,04_12_2014 level23_spatial_Magnum 09_02 log.txt,37,37
78,0,761.0765,0,936,1551,2975,4263,502,-6,200,0,0,762.0302,1,3,735937.385197645,04_12_2014 level23_spatial_Magnum 09_02 log.txt,37,37
79,0,765.3279,0,437,2761,2975,4263,509,-8.3,200,1,1,767.6874,1,2,735937.385246851,04_12_2014 level23_spatial_Magnum 09_02 log.txt,37,37
80,0,777.1988,0,936,1551,2975,4263,507,-10.5,200,0,0,778.051,1,5,735937.385384245,04_12_2014 level23_spatial_Magnum 09_02 log.txt,37,37
81,0,781.1505,0,936,1551,2975,4263,501,-10.5,200,0,0,782.1577,1,3,735937.385429983,04_12_2014 level23_spatial_Magnum 09_02 log.txt,37,37
82,0,785.5992,0,437,2761,2975,4263,506,-12.8,200,1,1,787.4487,1,1,735937.385481472,04_12_2014 level23_spatial_Magnum 09_02 log.txt,37,37
83,0,791.1663,1,936,1551,2975,4263,508,-12.8,200,0,0,793.5057,1,0,735937.385545906,04_12_2014 level23_spatial_Magnum 09_02 log.txt,37,37
84,0,796.5856,1,437,2761,2975,4263,503,-6,200,1,1,802.5852,1,5,735937.38560863,04_12_2014 level23_spatial_Magnum 09_02 log.txt,37,37
85,0,804.1441,1,936,1551,2975,4263,509,-12.8,200,0,0,807.5701,1,1,735937.385696112,04_12_2014 level23_spatial_Magnum 09_02 log.txt,37,37
86,0,810.6606,0,936,1551,2975,4263,510,-12.8,200,0,0,811.5782,1,4,735937.385771535,04_12_2014 level23_spatial_Magnum 09_02 log.txt,37,37
87,0,814.6523,0,936,1551,2975,4263,505,-15,200,0,0,815.6706,1,2,735937.385817735,04_12_2014 level23_spatial_Magnum 09_02 log.txt,37,37
88,0,821.0983,1,437,2761,2975,4263,504,-15,200,1,1,824.2408,1,5,735937.385892341,04_12_2014 level23_spatial_Magnum 09_02 log.txt,37,37
89,0,827.3978,0,437,2761,2975,4263,511,-6,200,1,1,829.0447,1,0,735937.385965252,04_12_2014 level23_spatial_Magnum 09_02 log.txt,37,37
90,0,838.691,1,936,1551,2975,4263,502,-15,200,0,0,841.0755,1,1,735937.386095961,04_12_2014 level23_spatial_Magnum 09_02 log.txt,37,37
91,0,845.2668,1,437,2761,2975,4263,501,-15,200,1,1,851.4836,1,4,735937.386172069,04_12_2014 level23_spatial_Magnum 09_02 log.txt,37,37
92,0,853.7909,0,437,2761,2975,4263,511,-8.3,200,1,1,859.5426,1,4,735937.386270728,04_12_2014 level23_spatial_Magnum 09_02 log.txt,37,37
93,0,864.3047,1,936,1551,2975,4263,507,-8.3,200,0,0,866.9911,1,0,735937.386392416,04_12_2014 level23_spatial_Magnum 09_02 log.txt,37,37
94,0,870.5099,1,437,2761,2975,4263,501,-10.5,200,1,1,877.4083,1,2,735937.386464235,04_12_2014 level23_spatial_Magnum 09_02 log.txt,37,37
95,0,880.3634,0,936,1551,2975,4263,509,-12.8,200,0,0,881.2591,1,3,735937.38657828,04_12_2014 level23_spatial_Magnum 09_02 log.txt,37,37
96,0,883.8993,0,437,2761,2975,4263,505,-6,200,1,1,889.197,1,2,735937.386619205,04_12_2014 level23_spatial_Magnum 09_02 log.txt,37,37
97,0,897.6024,1,936,1551,2975,4263,503,-8.3,200,0,0,899.2068,1,3,735937.386777806,04_12_2014 level23_spatial_Magnum 09_02 log.txt,37,37
98,0,902.0332,1,936,1551,2975,4263,502,-10.5,200,0,0,904.3353,1,4,735937.386829088,04_12_2014 level23_spatial_Magnum 09_02 log.txt,37,37
99,0,907.7291,0,437,2761,2975,4263,504,-6,200,1,1,910.0065,1,4,735937.386895013,04_12_2014 level23_spatial_Magnum 09_02 log.txt,37,37
100,0,911.295,0,936,1551,2975,4263,510,-6,200,0,1,913.1736,0,1,735937.386936285,04_12_2014 level23_spatial_Magnum 09_02 log.txt,37,37
101,1,917.165,1,936,1551,2975,4263,510,-6,200,0,0,919.41,1,1,735937.387004225,04_12_2014 level23_spatial_Magnum 09_02 log.txt,37,37
102,0,922.4088,1,936,1551,2975,4263,508,-8.3,200,0,1,928.3414,0,1,735937.387064917,04_12_2014 level23_spatial_Magnum 09_02 log.txt,37,37
103,1,930.1642,0,936,1551,2975,4263,508,-8.3,200,0,1,931.6074,0,1,735937.387154678,04_12_2014 level23_spatial_Magnum 09_02 log.txt,37,37
104,1,933.6096,1,936,1551,2975,4263,508,-8.3,200,0,0,935.6331,1,1,735937.387194556,04_12_2014 level23_spatial_Magnum 09_02 log.txt,37,37
105,0,938.803,1,936,1551,2975,4263,510,-10.5,200,0,0,945.9862,1,1,735937.387254664,04_12_2014 level23_spatial_Magnum 09_02 log.txt,37,37
106,0,949.4687,1,437,2761,2975,4263,503,-10.5,200,1,1,954.0015,1,0,735937.38737811,04_12_2014 level23_spatial_Magnum 09_02 log.txt,37,37
107,0,955.4167,1,437,2761,2975,4263,511,-8.3,200,1,0,959.4216,0,5,735937.387446953,04_12_2014 level23_spatial_Magnum 09_02 log.txt,37,37
108,1,964.4956,0,437,2761,2975,4263,511,-8.3,200,1,0,965.5393,0,5,735937.387552032,04_12_2014 level23_spatial_Magnum 09_02 log.txt,37,37
109,1,968.5945,0,437,2761,2975,4263,511,-8.3,200,1,1,972.6727,1,5,735937.387599473,04_12_2014 level23_spatial_Magnum 09_02 log.txt,37,37
110,0,979.9062,1,437,2761,2975,4263,505,-12.8,200,1,1,983.0291,1,4,735937.387730396,04_12_2014 level23_spatial_Magnum 09_02 log.txt,37,37
111,0,987.1507,1,437,2761,2975,4263,506,-15,200,1,0,988.9949,0,3,735937.387814244,04_12_2014 level23_spatial_Magnum 09_02 log.txt,37,37
112,1,992.7037,1,437,2761,2975,4263,506,-15,200,1,1,996.8988,1,3,735937.387878515,04_12_2014 level23_spatial_Magnum 09_02 log.txt,37,37
113,0,998.9767,1,936,1551,2975,4263,504,-8.3,200,0,0,1000.9386,1,5,735937.387951119,04_12_2014 level23_spatial_Magnum 09_02 log.txt,37,37
114,0,1003.5401,0,936,1551,2975,4263,508,-6,200,0,0,1004.7314,1,4,735937.388003936,04_12_2014 level23_spatial_Magnum 09_02 log.txt,37,37
115,0,1008.6155,0,437,2761,2975,4263,501,-15,200,1,1,1013.5605,1,1,735937.388062679,04_12_2014 level23_spatial_Magnum 09_02 log.txt,37,37
116,0,1031.5918,1,437,2761,2975,4263,509,-8.3,200,1,0,1037.5739,0,1,735937.388328609,04_12_2014 level23_spatial_Magnum 09_02 log.txt,37,37
117,1,1042.4402,1,437,2761,2975,4263,509,-8.3,200,1,1,1049.3931,1,1,735937.388454169,04_12_2014 level23_spatial_Magnum 09_02 log.txt,37,37
118,0,1056.3545,1,936,1551,2975,4263,507,-12.8,200,0,0,1058.1598,1,2,735937.388615214,04_12_2014 level23_spatial_Magnum 09_02 log.txt,37,37
119,0,1076.259,1,437,2761,2975,4263,509,-15,200,1,0,1078.1078,0,0,735937.38884559,04_12_2014 level23_spatial_Magnum 09_02 log.txt,37,37
120,1,1081.7741,1,437,2761,2975,4263,509,-15,200,1,1,1086.1392,1,0,735937.388909422,04_12_2014 level23_spatial_Magnum 09_02 log.txt,37,37
121,0,1088.2158,1,437,2761,2975,4263,504,-10.5,200,1,1,1093.3986,1,1,735937.388983979,04_12_2014 level23_spatial_Magnum 09_02 log.txt,37,37
122,0,1095.6046,0,437,2761,2975,4263,503,-12.8,200,1,0,1096.3493,0,3,735937.389069498,04_12_2014 level23_spatial_Magnum 09_02 log.txt,37,37
123,1,1099.8308,1,437,2761,2975,4263,503,-12.8,200,1,1,1102.8356,1,3,735937.389118412,04_12_2014 level23_spatial_Magnum 09_02 log.txt,37,37
124,0,1108.8566,1,936,1551,2975,4263,511,-6,200,0,0,1111.0864,1,5,735937.389222877,04_12_2014 level23_spatial_Magnum 09_02 log.txt,37,37
125,0,1336.9571,0,936,1551,2975,4263,502,-15,200,0,0,1341.3779,1,5,735937.391862929,04_12_2014 level23_spatial_Magnum 09_02 log.txt,37,37
126,0,1345.3876,0,437,2761,2975,4263,508,-10.5,200,1,-1,-1,0,5,735937.391960505,04_12_2014 level23_spatial_Magnum 09_02 log.txt,37,37
127,0,1436.1177,0,936,1551,2975,4263,505,-12.8,200,0,0,1436.8724,1,5,735937.393010622,04_12_2014 level23_spatial_Magnum 09_02 log.txt,37,37
1,0,391.1621,0,936,1551,2975,4263,511,-15,200,0,0,392.4895,1,2,735937.649666228,04_12_2014 level23_spatial_Magnum 15_29 log.txt,12,35
2,0,401.8101,1,936,1551,2975,4263,509,-6,200,0,0,402.5979,1,5,735937.649789469,04_12_2014 level23_spatial_Magnum 15_29 log.txt,11,35
3,0,407.7508,1,936,1551,2975,4263,507,-6,200,0,0,408.9495,1,4,735937.649858227,04_12_2014 level23_spatial_Magnum 15_29 log.txt,11,35
4,0,412.9174,1,936,1551,2975,4263,506,-12.8,200,0,0,416.732,1,0,735937.649918025,04_12_2014 level23_spatial_Magnum 15_29 log.txt,11,35
5,0,420.4125,0,437,2761,2975,4263,510,-12.8,200,1,0,421.3572,0,3,735937.650004774,04_12_2014 level23_spatial_Magnum 15_29 log.txt,11,35
6,1,426.1809,0,437,2761,2975,4263,510,-12.8,200,1,1,428.0451,1,3,735937.650071538,04_12_2014 level23_spatial_Magnum 15_29 log.txt,11,35
7,0,430.8963,0,437,2761,2975,4263,501,-15,200,1,0,431.9019,0,0,735937.650126115,04_12_2014 level23_spatial_Magnum 15_29 log.txt,11,35
8,1,435.1527,1,437,2761,2975,4263,501,-15,200,1,0,437.7025,0,0,735937.650175378,04_12_2014 level23_spatial_Magnum 15_29 log.txt,11,35
9,1,441.2501,0,437,2761,2975,4263,501,-15,200,1,0,442.2366,0,0,735937.65024595,04_12_2014 level23_spatial_Magnum 15_29 log.txt,11,35
10,1,445.4939,1,437,2761,2975,4263,501,-15,200,1,1,450.335,1,0,735937.650295068,04_12_2014 level23_spatial_Magnum 15_29 log.txt,11,35
11,0,452.5685,1,936,1551,2975,4263,503,-10.5,200,0,0,456.1475,1,1,735937.65037695,04_12_2014 level23_spatial_Magnum 15_29 log.txt,11,35
12,0,459.5659,0,437,2761,2975,4263,502,-10.5,200,1,1,461.4862,1,4,735937.650457939,04_12_2014 level23_spatial_Magnum 15_29 log.txt,11,35
13,0,466.2883,1,936,1551,2975,4263,505,-8.3,200,0,0,468.2326,1,4,735937.650535744,04_12_2014 level23_spatial_Magnum 15_29 log.txt,11,35
14,0,471.4068,0,437,2761,2975,4263,504,-15,200,1,1,473.9956,1,3,735937.650594986,04_12_2014 level23_spatial_Magnum 15_29 log.txt,11,35
15,0,475.1426,0,936,1551,2975,4263,509,-6,200,0,0,476.1678,1,2,735937.650638225,04_12_2014 level23_spatial_Magnum 15_29 log.txt,11,35
16,0,479.5017,0,936,1551,2975,4263,504,-15,200,0,0,480.4105,1,4,735937.650688677,04_12_2014 level23_spatial_Magnum 15_29 log.txt,11,35
17,0,483.2269,0,936,1551,2975,4263,501,-8.3,200,0,0,484.3163,1,3,735937.650731793,04_12_2014 level23_spatial_Magnum 15_29 log.txt,11,35
18,0,490.8838,0,437,2761,2975,4263,503,-15,200,1,1,495.0767,1,2,735937.650820414,04_12_2014 level23_spatial_Magnum 15_29 log.txt,11,35
19,0,501.9227,1,936,1551,2975,4263,507,-8.3,200,0,0,505.0259,1,1,735937.650948179,04_12_2014 level23_spatial_Magnum 15_29 log.txt,11,35
20,0,508.1523,1,437,2761,2975,4263,508,-15,200,1,1,513.5364,1,4,735937.651020281,04_12_2014 level23_spatial_Magnum 15_29 log.txt,11,35
21,0,514.8957,1,437,2761,2975,4263,505,-8.3,200,1,1,518.7724,1,2,735937.65109833,04_12_2014 level23_spatial_Magnum 15_29 log.txt,11,35
22,0,522.2607,1,437,2761,2975,4263,511,-10.5,200,1,0,525.9384,0,3,735937.651183573,04_12_2014 level23_spatial_Magnum 15_29 log.txt,11,35
23,1,529.6288,0,437,2761,2975,4263,511,-10.5,200,1,1,531.6167,1,3,735937.651268852,04_12_2014 level23_spatial_Magnum 15_29 log.txt,11,35
24,0,540.2935,1,936,1551,2975,4263,506,-8.3,200,0,0,542.319,1,0,735937.651392286,04_12_2014 level23_spatial_Magnum 15_29 log.txt,11,35
25,0,545.5582,0,936,1551,2975,4263,510,-12.8,200,0,0,546.4953,1,4,735937.65145322,04_12_2014 level23_spatial_Magnum 15_29 log.txt,11,35
26,0,550.5143,1,437,2761,2975,4263,510,-15,200,1,1,554.638,1,5,735937.651510582,04_12_2014 level23_spatial_Magnum 15_29 log.txt,12,35
27,0,556.6155,0,437,2761,2975,4263,509,-6,200,1,1,562.9368,1,1,735937.651581198,04_12_2014 level23_spatial_Magnum 15_29 log.txt,12,35
28,0,566.4487,1,936,1551,2975,4263,504,-15,200,0,0,569.2106,1,1,735937.651695008,04_12_2014 level23_spatial_Magnum 15_29 log.txt,12,35
29,0,572.4762,1,936,1551,2975,4263,501,-6,200,0,0,573.1981,1,0,735937.651764771,04_12_2014 level23_spatial_Magnum 15_29 log.txt,12,35
30,0,576.9126,1,936,1551,2975,4263,511,-15,200,0,1,586.5684,0,0,735937.651816118,04_12_2014 level23_spatial_Magnum 15_29 log.txt,12,35
31,1,590.6362,1,936,1551,2975,4263,511,-15,200,0,0,592.8476,1,0,735937.651974956,04_12_2014 level23_spatial_Magnum 15_29 log.txt,12,35
32,0,596.7378,1,936,1551,2975,4263,503,-8.3,200,0,0,599.9963,1,2,735937.652045576,04_12_2014 level23_spatial_Magnum 15_29 log.txt,12,35
33,0,603.401,0,936,1551,2975,4263,508,-15,200,0,0,604.2626,1,5,735937.652122697,04_12_2014 level23_spatial_Magnum 15_29 log.txt,12,35
34,0,607.683,0,936,1551,2975,4263,506,-10.5,200,0,0,608.7086,1,4,735937.652172257,04_12_2014 level23_spatial_Magnum 15_29 log.txt,12,35
35,0,617.324,0,437,2761,2975,4263,502,-8.3,200,1,1,619.0918,1,5,735937.652283843,04_12_2014 level23_spatial_Magnum 15_29 log.txt,12,35
36,0,621.6221,1,936,1551,2975,4263,507,-15,200,0,0,623.8034,1,3,735937.652333589,04_12_2014 level23_spatial_Magnum 15_29 log.txt,12,35
37,0,627.154,0,936,1551,2975,4263,505,-12.8,200,0,0,628.0024,1,1,735937.652397616,04_12_2014 level23_spatial_Magnum 15_29 log.txt,13,35
38,0,631.3593,0,437,2761,2975,4263,501,-6,200,1,1,632.8021,1,5,735937.652446288,04_12_2014 level23_spatial_Magnum 15_29 log.txt,13,35
39,0,640.9086,1,936,1551,2975,4263,507,-12.8,200,0,0,643.286,1,3,735937.652556813,04_12_2014 level23_spatial_Magnum 15_29 log.txt,13,35
40,0,649.111,1,437,2761,2975,4263,510,-6,200,1,0,652.3605,0,2,735937.652651748,04_12_2014 level23_spatial_Magnum 15_29 log.txt,13,35
41,1,656.0263,1,437,2761,2975,4263,510,-6,200,1,1,660.1904,1,2,735937.652731786,04_12_2014 level23_spatial_Magnum 15_29 log.txt,13,35
42,0,662.3198,1,936,1551,2975,4263,504,-12.8,200,0,0,664.5471,1,2,735937.652804627,04_12_2014 level23_spatial_Magnum 15_29 log.txt,13,35
