Trial,CorrectionTrial,StartTime,CenterReward,F1,F2,F3,F4,HoldTime,Atten,Pitch,Side,Response,RespTime,Correct,SpatialMask,UniversalStartTime,originalFile,LeftTemperature,RightTemperature
1,0,105.1037,0,730,2058,2857,4205,507,-3.5,200,1,1,106.1627,1,3,736363.43184399,03_02_2016 level23_spatial_Robin 10_20_06.217 log.txt,37,37
2,0,134.3373,0,460,1105,2857,4205,501,-9.5,200,0,0,135.358,1,0,736363.432182341,03_02_2016 level23_spatial_Robin 10_20_06.217 log.txt,37,37
3,0,141.0749,0,730,2058,2857,4205,506,-3.5,200,1,1,141.8843,1,5,736363.432260323,03_02_2016 level23_spatial_Robin 10_20_06.217 log.txt,37,37
4,0,148.2831,1,460,1105,2857,4205,510,2.5,200,0,0,152.5579,1,3,736363.432343751,03_02_2016 level23_spatial_Robin 10_20_06.217 log.txt,37,37
5,0,156.9302,0,460,1105,2857,4205,508,-9.5,200,0,0,158.5277,1,3,736363.432443833,03_02_2016 level23_spatial_Robin 10_20_06.217 log.txt,37,37
6,0,164.3674,0,730,2058,2857,4205,504,-0.5,200,1,1,165.8945,1,1,736363.432529912,03_02_2016 level23_spatial_Robin 10_20_06.217 log.txt,37,37
7,0,173.9895,0,460,1105,2857,4205,502,-3.5,200,0,0,175.1143,1,2,736363.432641279,03_02_2016 level23_spatial_Robin 10_20_06.217 log.txt,37,37
8,0,180.0592,0,460,1105,2857,4205,505,2.5,200,0,0,181.0875,1,5,736363.43271153,03_02_2016 level23_spatial_Robin 10_20_06.217 log.txt,37,37
9,0,185.3892,0,730,2058,2857,4205,509,2.5,200,1,1,186.6331,1,3,736363.43277322,03_02_2016 level23_spatial_Robin 10_20_06.217 log.txt,37,37
10,0,192.3763,0,730,2058,2857,4205,503,-0.5,200,1,0,193.5661,0,0,736363.432854089,03_02_2016 level23_spatial_Robin 10_20_06.217 log.txt,37,37
11,1,198.885,0,730,2058,2857,4205,503,-0.5,200,1,1,200.4902,1,0,736363.432929421,03_02_2016 level23_spatial_Robin 10_20_06.217 log.txt,37,37
12,0,212.8085,0,460,1105,2857,4205,506,-6.5,200,0,0,214.1681,1,0,736363.433090573,03_02_2016 level23_spatial_Robin 10_20_06.217 log.txt,37,37
13,0,218.9304,0,730,2058,2857,4205,504,-3.5,200,1,1,220.3929,1,1,736363.433161428,03_02_2016 level23_spatial_Robin 10_20_06.217 log.txt,37,37
14,0,226.7965,0,460,1105,2857,4205,502,-12.5,200,0,0,228.1624,1,4,736363.433252471,03_02_2016 level23_spatial_Robin 10_20_06.217 log.txt,37,37
15,0,232.8639,0,460,1105,2857,4205,510,-6.5,200,0,0,233.9777,1,3,736363.433322696,03_02_2016 level23_spatial_Robin 10_20_06.217 log.txt,37,37
16,0,238.4338,0,460,1105,2857,4205,505,2.5,200,0,1,239.5157,0,0,736363.433387162,03_02_2016 level23_spatial_Robin 10_20_06.217 log.txt,37,37
17,1,243.1212,0,460,1105,2857,4205,505,2.5,200,0,0,243.9475,1,0,736363.433441414,03_02_2016 level23_spatial_Robin 10_20_06.217 log.txt,37,37
18,0,249.485,0,730,2058,2857,4205,511,-9.5,200,1,1,250.7412,1,5,736363.433515069,03_02_2016 level23_spatial_Robin 10_20_06.217 log.txt,37,37
19,0,256.7155,1,730,2058,2857,4205,501,-9.5,200,1,1,260.802,1,1,736363.433598756,03_02_2016 level23_spatial_Robin 10_20_06.217 log.txt,37,37
20,0,266.8992,0,730,2058,2857,4205,503,-3.5,200,1,0,268.3054,0,2,736363.433716623,03_02_2016 level23_spatial_Robin 10_20_06.217 log.txt,37,37
21,1,273.4977,0,730,2058,2857,4205,503,-3.5,200,1,1,274.6824,1,2,736363.433792994,03_02_2016 level23_spatial_Robin 10_20_06.217 log.txt,37,37
22,0,280.6862,0,460,1105,2857,4205,508,-9.5,200,0,0,281.8269,1,1,736363.433876194,03_02_2016 level23_spatial_Robin 10_20_06.217 log.txt,37,37
23,0,285.8663,0,460,1105,2857,4205,507,-3.5,200,0,0,286.9107,1,5,736363.433936149,03_02_2016 level23_spatial_Robin 10_20_06.217 log.txt,37,37
24,0,290.9748,0,730,2058,2857,4205,508,-6.5,200,1,1,292.2804,1,1,736363.433995276,03_02_2016 level23_spatial_Robin 10_20_06.217 log.txt,37,37
25,0,297.5161,0,730,2058,2857,4205,501,-9.5,200,1,1,298.5191,1,3,736363.434070985,03_02_2016 level23_spatial_Robin 10_20_06.217 log.txt,37,37
26,0,303.9434,1,730,2058,2857,4205,505,-12.5,200,1,1,307.969,1,3,736363.434145375,03_02_2016 level23_spatial_Robin 10_20_06.217 log.txt,37,37
27,0,314.7248,0,730,2058,2857,4205,510,2.5,200,1,0,315.7972,0,1,736363.43427016,03_02_2016 level23_spatial_Robin 10_20_06.217 log.txt,37,37
28,1,321.1508,0,730,2058,2857,4205,510,2.5,200,1,1,322.5669,1,1,736363.434344535,03_02_2016 level23_spatial_Robin 10_20_06.217 log.txt,37,37
29,0,328.1181,0,730,2058,2857,4205,503,-0.5,200,1,1,329.4968,1,4,736363.434425175,03_02_2016 level23_spatial_Robin 10_20_06.217 log.txt,37,37
30,0,335.4545,0,460,1105,2857,4205,507,-6.5,200,0,0,336.5554,1,5,736363.434510087,03_02_2016 level23_spatial_Robin 10_20_06.217 log.txt,37,37
31,0,340.6553,0,460,1105,2857,4205,506,2.5,200,0,0,341.8973,1,2,736363.434570281,03_02_2016 level23_spatial_Robin 10_20_06.217 log.txt,37,37
32,0,346.4373,0,730,2058,2857,4205,502,-6.5,200,1,0,346.5059,0,0,736363.434637203,03_02_2016 level23_spatial_Robin 10_20_06.217 log.txt,37,37
33,1,350.6174,1,730,2058,2857,4205,502,-6.5,200,1,0,350.6536,0,0,736363.434685583,03_02_2016 level23_spatial_Robin 10_20_06.217 log.txt,37,37
34,1,354.4002,0,730,2058,2857,4205,502,-6.5,200,1,0,354.4942,0,0,736363.434729366,03_02_2016 level23_spatial_Robin 10_20_06.217 log.txt,37,37
35,1,358.467,0,730,2058,2857,4205,502,-6.5,200,1,0,358.4883,0,0,736363.434776435,03_02_2016 level23_spatial_Robin 10_20_06.217 log.txt,37,37
36,1,362.7281,0,730,2058,2857,4205,502,-6.5,200,1,0,363.688,0,0,736363.434825753,03_02_2016 level23_spatial_Robin 10_20_06.217 log.txt,37,37
37,1,367.5806,0,730,2058,2857,4205,502,-6.5,200,1,0,368.5081,0,0,736363.434881917,03_02_2016 level23_spatial_Robin 10_20_06.217 log.txt,37,37
38,1,373.5206,0,730,2058,2857,4205,502,-6.5,200,1,1,374.6398,1,0,736363.434950667,03_02_2016 level23_spatial_Robin 10_20_06.217 log.txt,37,37
39,0,380.8195,0,730,2058,2857,4205,509,2.5,200,1,1,381.922,1,4,736363.435035145,03_02_2016 level23_spatial_Robin 10_20_06.217 log.txt,37,37
40,0,386.9056,0,730,2058,2857,4205,511,-9.5,200,1,1,388.1742,1,2,736363.435105586,03_02_2016 level23_spatial_Robin 10_20_06.217 log.txt,37,37
41,0,393.7676,0,730,2058,2857,4205,510,-6.5,200,1,1,395.3952,1,5,736363.435185007,03_02_2016 level23_spatial_Robin 10_20_06.217 log.txt,37,37
42,0,401.8212,0,730,2058,2857,4205,509,-9.5,200,1,1,402.9664,1,0,736363.43527822,03_02_2016 level23_spatial_Robin 10_20_06.217 log.txt,37,37
43,0,407.6363,0,460,1105,2857,4205,503,-12.5,200,0,0,408.6826,1,0,736363.435345524,03_02_2016 level23_spatial_Robin 10_20_06.217 log.txt,37,37
44,0,412.9198,0,460,1105,2857,4205,504,-3.5,200,0,1,414.2228,0,0,736363.435406676,03_02_2016 level23_spatial_Robin 10_20_06.217 log.txt,37,37
45,1,417.8608,0,460,1105,2857,4205,504,-3.5,200,0,1,419.1823,0,0,736363.435463863,03_02_2016 level23_spatial_Robin 10_20_06.217 log.txt,37,37
46,1,424.7173,0,460,1105,2857,4205,504,-3.5,200,0,1,426.1362,0,0,736363.435543221,03_02_2016 level23_spatial_Robin 10_20_06.217 log.txt,37,37
47,1,433.8257,0,460,1105,2857,4205,504,-3.5,200,0,0,434.6837,1,0,736363.435648642,03_02_2016 level23_spatial_Robin 10_20_06.217 log.txt,37,37
48,0,438.9608,0,730,2058,2857,4205,505,-9.5,200,1,1,440.3602,1,4,736363.435708076,03_02_2016 level23_spatial_Robin 10_20_06.217 log.txt,37,37
49,0,445.2522,1,460,1105,2857,4205,502,-3.5,200,0,0,449.8644,1,3,736363.435780894,03_02_2016 level23_spatial_Robin 10_20_06.217 log.txt,37,37
50,0,454.5001,0,460,1105,2857,4205,501,-0.5,200,0,1,456.1678,0,2,736363.435887929,03_02_2016 level23_spatial_Robin 10_20_06.217 log.txt,37,37
51,1,465.4275,0,460,1105,2857,4205,501,-0.5,200,0,0,466.5011,1,2,736363.436014404,03_02_2016 level23_spatial_Robin 10_20_06.217 log.txt,37,37
52,0,469.9272,0,730,2058,2857,4205,507,-0.5,200,1,1,471.4126,1,3,736363.436066484,03_02_2016 level23_spatial_Robin 10_20_06.217 log.txt,37,37
53,0,476.4606,0,730,2058,2857,4205,508,-6.5,200,1,1,477.9375,1,2,736363.436142102,03_02_2016 level23_spatial_Robin 10_20_06.217 log.txt,37,37
54,0,482.6873,1,730,2058,2857,4205,506,-0.5,200,1,1,487.9213,1,2,736363.43621417,03_02_2016 level23_spatial_Robin 10_20_06.217 log.txt,37,37
55,0,493.0338,0,730,2058,2857,4205,505,-0.5,200,1,0,494.5216,0,5,736363.436333921,03_02_2016 level23_spatial_Robin 10_20_06.217 log.txt,37,37
56,1,499.9297,1,730,2058,2857,4205,505,-0.5,200,1,1,503.7412,1,5,736363.436413735,03_02_2016 level23_spatial_Robin 10_20_06.217 log.txt,37,37
57,0,510.0422,0,730,2058,2857,4205,503,-12.5,200,1,1,511.4993,1,4,736363.436530778,03_02_2016 level23_spatial_Robin 10_20_06.217 log.txt,37,37
58,0,516.1902,0,460,1105,2857,4205,504,-3.5,200,0,0,517.4151,1,1,736363.436601935,03_02_2016 level23_spatial_Robin 10_20_06.217 log.txt,37,37
59,0,520.944,1,460,1105,2857,4205,501,-12.5,200,0,0,524.9138,1,3,736363.436656956,03_02_2016 level23_spatial_Robin 10_20_06.217 log.txt,37,37
60,0,528.2238,0,460,1105,2857,4205,506,-0.5,200,0,1,529.716,0,4,736363.436741213,03_02_2016 level23_spatial_Robin 10_20_06.217 log.txt,37,37
61,1,536.1913,0,460,1105,2857,4205,506,-0.5,200,0,0,537.4193,1,4,736363.436833429,03_02_2016 level23_spatial_Robin 10_20_06.217 log.txt,37,37
62,0,541.2114,0,460,1105,2857,4205,508,-12.5,200,0,0,542.4373,1,1,736363.436891532,03_02_2016 level23_spatial_Robin 10_20_06.217 log.txt,37,37
63,0,546.8545,0,730,2058,2857,4205,502,-6.5,200,1,1,548.0485,1,4,736363.436956846,03_02_2016 level23_spatial_Robin 10_20_06.217 log.txt,37,37
64,0,553.2577,0,730,2058,2857,4205,507,-12.5,200,1,1,554.5157,1,1,736363.437030957,03_02_2016 level23_spatial_Robin 10_20_06.217 log.txt,37,37
65,0,559.2878,0,460,1105,2857,4205,511,-0.5,200,0,0,560.2782,1,5,736363.43710075,03_02_2016 level23_spatial_Robin 10_20_06.217 log.txt,37,37
66,0,564.1649,0,730,2058,2857,4205,510,2.5,200,1,1,565.3758,1,2,736363.437157198,03_02_2016 level23_spatial_Robin 10_20_06.217 log.txt,37,37
67,0,570.293,1,730,2058,2857,4205,509,-12.5,200,1,1,574.5714,1,0,736363.437228125,03_02_2016 level23_spatial_Robin 10_20_06.217 log.txt,37,37
68,0,579.9344,0,730,2058,2857,4205,511,-3.5,200,1,1,581.3546,1,4,736363.437339715,03_02_2016 level23_spatial_Robin 10_20_06.217 log.txt,37,37
69,0,585.9838,0,460,1105,2857,4205,501,-0.5,200,0,1,587.4832,0,3,736363.437409731,03_02_2016 level23_spatial_Robin 10_20_06.217 log.txt,37,37
70,1,591.0629,0,460,1105,2857,4205,501,-0.5,200,0,0,592.1588,1,3,736363.437468517,03_02_2016 level23_spatial_Robin 10_20_06.217 log.txt,37,37
71,0,595.9003,0,730,2058,2857,4205,506,2.5,200,1,1,597.9528,1,5,736363.437524506,03_02_2016 level23_spatial_Robin 10_20_06.217 log.txt,37,37
72,0,602.5489,0,460,1105,2857,4205,503,2.5,200,0,1,603.8068,0,1,736363.437601457,03_02_2016 level23_spatial_Robin 10_20_06.217 log.txt,37,37
73,1,607.4548,0,460,1105,2857,4205,503,2.5,200,0,0,608.5771,1,1,736363.437658238,03_02_2016 level23_spatial_Robin 10_20_06.217 log.txt,37,37
74,0,612.6581,1,460,1105,2857,4205,508,-6.5,200,0,0,615.8972,1,2,736363.437718462,03_02_2016 level23_spatial_Robin 10_20_06.217 log.txt,37,37
75,0,619.3512,0,730,2058,2857,4205,504,2.5,200,1,1,620.673,1,0,736363.437795928,03_02_2016 level23_spatial_Robin 10_20_06.217 log.txt,37,37
76,0,624.754,0,460,1105,2857,4205,510,-0.5,200,0,1,626.4318,0,1,736363.437858461,03_02_2016 level23_spatial_Robin 10_20_06.217 log.txt,37,37
77,1,630.3018,0,460,1105,2857,4205,510,-0.5,200,0,0,631.6003,1,1,736363.437922671,03_02_2016 level23_spatial_Robin 10_20_06.217 log.txt,37,37
78,0,636.0177,0,460,1105,2857,4205,507,-9.5,200,0,0,637.0084,1,4,736363.437988828,03_02_2016 level23_spatial_Robin 10_20_06.217 log.txt,37,37
79,0,640.9073,0,460,1105,2857,4205,505,-6.5,200,0,1,642.1087,0,1,736363.43804542,03_02_2016 level23_spatial_Robin 10_20_06.217 log.txt,37,37
80,1,646.5124,1,460,1105,2857,4205,505,-6.5,200,0,1,651.1036,0,1,736363.438110294,03_02_2016 level23_spatial_Robin 10_20_06.217 log.txt,37,37
81,1,662.1316,1,460,1105,2857,4205,505,-6.5,200,0,0,664.9311,1,1,736363.438291072,03_02_2016 level23_spatial_Robin 10_20_06.217 log.txt,37,37
82,0,670.2408,0,460,1105,2857,4205,502,-12.5,200,0,0,671.2824,1,5,736363.438384928,03_02_2016 level23_spatial_Robin 10_20_06.217 log.txt,37,37
83,0,674.5421,1,460,1105,2857,4205,501,-0.5,200,0,1,678.6198,0,0,736363.438434712,03_02_2016 level23_spatial_Robin 10_20_06.217 log.txt,37,37
84,1,682.917,0,460,1105,2857,4205,501,-0.5,200,0,0,684.5496,1,0,736363.438531643,03_02_2016 level23_spatial_Robin 10_20_06.217 log.txt,37,37
85,0,688.219,0,730,2058,2857,4205,508,-3.5,200,1,1,690.0539,1,0,736363.438593009,03_02_2016 level23_spatial_Robin 10_20_06.217 log.txt,37,37
86,0,694.6041,1,460,1105,2857,4205,507,-12.5,200,0,1,698.7003,0,2,736363.438666911,03_02_2016 level23_spatial_Robin 10_20_06.217 log.txt,37,37
87,1,702.471,0,460,1105,2857,4205,507,-12.5,200,0,0,703.6937,1,2,736363.438757963,03_02_2016 level23_spatial_Robin 10_20_06.217 log.txt,37,37
88,0,707.2032,0,730,2058,2857,4205,506,-12.5,200,1,1,709.144,1,5,736363.438812734,03_02_2016 level23_spatial_Robin 10_20_06.217 log.txt,37,37
89,0,713.525,0,460,1105,2857,4205,505,-3.5,200,0,0,714.8145,1,4,736363.438885903,03_02_2016 level23_spatial_Robin 10_20_06.217 log.txt,37,37
90,0,718.3688,1,460,1105,2857,4205,510,2.5,200,0,1,722.9393,0,4,736363.438941965,03_02_2016 level23_spatial_Robin 10_20_06.217 log.txt,37,37
91,1,735.1634,0,460,1105,2857,4205,510,2.5,200,0,0,736.2551,1,4,736363.439136347,03_02_2016 level23_spatial_Robin 10_20_06.217 log.txt,37,37
92,0,740.05,0,460,1105,2857,4205,504,-6.5,200,0,1,741.3894,0,4,736363.439192905,03_02_2016 level23_spatial_Robin 10_20_06.217 log.txt,37,37
93,1,746.4276,0,460,1105,2857,4205,504,-6.5,200,0,1,747.5243,0,4,736363.43926672,03_02_2016 level23_spatial_Robin 10_20_06.217 log.txt,37,37
94,1,756.6875,0,460,1105,2857,4205,504,-6.5,200,0,0,757.5084,1,4,736363.439385469,03_02_2016 level23_spatial_Robin 10_20_06.217 log.txt,37,37
95,0,761.2332,0,730,2058,2857,4205,511,-6.5,200,1,1,762.6548,1,3,736363.439438081,03_02_2016 level23_spatial_Robin 10_20_06.217 log.txt,37,37
96,0,767.4206,1,460,1105,2857,4205,503,-9.5,200,0,1,772.5099,0,2,736363.439509694,03_02_2016 level23_spatial_Robin 10_20_06.217 log.txt,37,37
97,1,779.0337,0,460,1105,2857,4205,503,-9.5,200,0,0,780.0245,1,2,736363.439644105,03_02_2016 level23_spatial_Robin 10_20_06.217 log.txt,37,37
98,0,783.8157,0,730,2058,2857,4205,510,-12.5,200,1,1,785.0367,1,2,736363.439699453,03_02_2016 level23_spatial_Robin 10_20_06.217 log.txt,37,37
99,0,793.1326,0,460,1105,2857,4205,502,-9.5,200,0,0,794.1708,1,5,736363.439807287,03_02_2016 level23_spatial_Robin 10_20_06.217 log.txt,37,37
100,0,797.8194,0,730,2058,2857,4205,506,-12.5,200,1,1,799.0514,1,4,736363.439861532,03_02_2016 level23_spatial_Robin 10_20_06.217 log.txt,37,37
101,0,804.2554,0,460,1105,2857,4205,508,-6.5,200,0,1,806.2668,0,4,736363.439936023,03_02_2016 level23_spatial_Robin 10_20_06.217 log.txt,37,37
102,1,810.5403,1,460,1105,2857,4205,508,-6.5,200,0,0,814.8296,1,4,736363.440008765,03_02_2016 level23_spatial_Robin 10_20_06.217 log.txt,37,37
103,0,818.5724,1,460,1105,2857,4205,511,-0.5,200,0,0,821.8455,1,5,736363.440101729,03_02_2016 level23_spatial_Robin 10_20_06.217 log.txt,37,37
104,0,825.4086,0,460,1105,2857,4205,505,2.5,200,0,1,827.1042,0,4,736363.440180852,03_02_2016 level23_spatial_Robin 10_20_06.217 log.txt,37,37
105,1,831.3994,0,460,1105,2857,4205,505,2.5,200,0,0,832.9097,1,4,736363.44025019,03_02_2016 level23_spatial_Robin 10_20_06.217 log.txt,37,37
106,0,836.5571,0,730,2058,2857,4205,503,-0.5,200,1,1,838.0187,1,4,736363.440309885,03_02_2016 level23_spatial_Robin 10_20_06.217 log.txt,37,37
107,0,842.8963,0,730,2058,2857,4205,501,-3.5,200,1,1,844.1119,1,5,736363.440383256,03_02_2016 level23_spatial_Robin 10_20_06.217 log.txt,37,37
108,0,848.8401,0,730,2058,2857,4205,509,-0.5,200,1,1,850.8593,1,1,736363.44045205,03_02_2016 level23_spatial_Robin 10_20_06.217 log.txt,37,37
109,0,855.8596,0,460,1105,2857,4205,504,2.5,200,0,0,856.9846,1,1,736363.440533294,03_02_2016 level23_spatial_Robin 10_20_06.217 log.txt,37,37
110,0,859.9836,0,460,1105,2857,4205,504,-12.5,200,0,1,861.394,0,0,736363.440581025,03_02_2016 level23_spatial_Robin 10_20_06.217 log.txt,37,37
111,1,865.3431,0,460,1105,2857,4205,504,-12.5,200,0,1,866.7419,0,0,736363.440643057,03_02_2016 level23_spatial_Robin 10_20_06.217 log.txt,37,37
112,1,873.6222,0,460,1105,2857,4205,504,-12.5,200,0,0,874.3895,1,0,736363.44073888,03_02_2016 level23_spatial_Robin 10_20_06.217 log.txt,37,37
113,0,878.6585,0,730,2058,2857,4205,508,2.5,200,1,1,879.7559,1,5,736363.44079717,03_02_2016 level23_spatial_Robin 10_20_06.217 log.txt,37,37
114,0,884.6174,0,730,2058,2857,4205,505,-3.5,200,1,1,885.9415,1,0,736363.440866139,03_02_2016 level23_spatial_Robin 10_20_06.217 log.txt,37,37
115,0,894.9118,0,460,1105,2857,4205,501,-6.5,200,0,0,895.9898,1,0,736363.440985287,03_02_2016 level23_spatial_Robin 10_20_06.217 log.txt,37,37
116,0,899.3432,0,460,1105,2857,4205,509,-12.5,200,0,0,900.4089,1,3,736363.441036576,03_02_2016 level23_spatial_Robin 10_20_06.217 log.txt,37,37
117,0,903.7196,1,730,2058,2857,4205,510,-9.5,200,1,1,907.01,1,2,736363.441087229,03_02_2016 level23_spatial_Robin 10_20_06.217 log.txt,37,37
118,0,911.4274,0,730,2058,2857,4205,511,-3.5,200,1,0,915.8345,0,1,736363.44117644,03_02_2016 level23_spatial_Robin 10_20_06.217 log.txt,37,37
119,1,919.5991,0,730,2058,2857,4205,511,-3.5,200,1,1,920.9834,1,1,736363.44127102,03_02_2016 level23_spatial_Robin 10_20_06.217 log.txt,37,37
120,0,930.2641,0,730,2058,2857,4205,503,-12.5,200,1,1,931.6638,1,5,736363.441394457,03_02_2016 level23_spatial_Robin 10_20_06.217 log.txt,37,37
121,0,935.765,1,730,2058,2857,4205,502,2.5,200,1,1,940.0771,1,1,736363.441458125,03_02_2016 level23_spatial_Robin 10_20_06.217 log.txt,37,37
122,0,944.4644,0,730,2058,2857,4205,507,-0.5,200,1,1,946.1409,1,3,736363.441558813,03_02_2016 level23_spatial_Robin 10_20_06.217 log.txt,37,37
123,0,951.5777,0,730,2058,2857,4205,508,-9.5,200,1,1,953.0128,1,0,736363.441641142,03_02_2016 level23_spatial_Robin 10_20_06.217 log.txt,37,37
124,0,957.5259,1,460,1105,2857,4205,501,-0.5,200,0,0,962.0449,1,0,736363.441709987,03_02_2016 level23_spatial_Robin 10_20_06.217 log.txt,37,37
125,0,965.2362,1,730,2058,2857,4205,506,-9.5,200,1,0,968.7542,0,4,736363.441799227,03_02_2016 level23_spatial_Robin 10_20_06.217 log.txt,37,37
126,1,975.0443,0,730,2058,2857,4205,506,-9.5,200,1,1,976.4182,1,4,736363.441912747,03_02_2016 level23_spatial_Robin 10_20_06.217 log.txt,37,37
127,0,982.2738,0,460,1105,2857,4205,507,-0.5,200,0,1,983.6978,0,4,736363.441996421,03_02_2016 level23_spatial_Robin 10_20_06.217 log.txt,37,37
128,1,988.3387,0,460,1105,2857,4205,507,-0.5,200,0,0,989.587,1,4,736363.442066617,03_02_2016 level23_spatial_Robin 10_20_06.217 log.txt,37,37
129,0,993.4995,0,460,1105,2857,4205,503,-9.5,200,0,0,994.6758,1,1,736363.442126348,03_02_2016 level23_spatial_Robin 10_20_06.217 log.txt,37,37
130,0,998.0591,0,460,1105,2857,4205,502,2.5,200,0,1,999.4813,0,5,736363.442179122,03_02_2016 level23_spatial_Robin 10_20_06.217 log.txt,37,37
131,1,1003.1221,0,460,1105,2857,4205,502,2.5,200,0,1,1004.6474,0,5,736363.442237721,03_02_2016 level23_spatial_Robin 10_20_06.217 log.txt,37,37
132,1,1010.9135,0,460,1105,2857,4205,502,2.5,200,0,0,1011.9954,1,5,736363.442327899,03_02_2016 level23_spatial_Robin 10_20_06.217 log.txt,37,37
133,0,1016.0258,0,460,1105,2857,4205,510,2.5,200,0,1,1017.3879,0,3,736363.442387069,03_02_2016 level23_spatial_Robin 10_20_06.217 log.txt,37,37
134,1,1026.3249,1,460,1105,2857,4205,510,2.5,200,0,0,1030.2534,1,3,736363.442506272,03_02_2016 level23_spatial_Robin 10_20_06.217 log.txt,37,37
135,0,1033.9148,0,460,1105,2857,4205,511,-12.5,200,0,0,1035.2294,1,5,736363.442594118,03_02_2016 level23_spatial_Robin 10_20_06.217 log.txt,37,37
136,0,1038.7052,1,460,1105,2857,4205,505,-9.5,200,0,1,1042.0068,0,4,736363.442649562,03_02_2016 level23_spatial_Robin 10_20_06.217 log.txt,37,37
137,1,1045.7737,0,460,1105,2857,4205,505,-9.5,200,0,0,1046.9724,1,4,736363.442731374,03_02_2016 level23_spatial_Robin 10_20_06.217 log.txt,37,37
138,0,1050.5422,1,460,1105,2857,4205,504,-3.5,200,0,1,1053.6527,0,2,736363.442786565,03_02_2016 level23_spatial_Robin 10_20_06.217 log.txt,37,37
139,1,1057.8922,0,460,1105,2857,4205,504,-3.5,200,0,1,1059.2098,0,2,736363.442871634,03_02_2016 level23_spatial_Robin 10_20_06.217 log.txt,37,37
140,1,1064.9071,0,460,1105,2857,4205,504,-3.5,200,0,0,1065.9656,1,2,736363.442952825,03_02_2016 level23_spatial_Robin 10_20_06.217 log.txt,37,37
141,0,1069.7384,0,460,1105,2857,4205,509,-3.5,200,0,1,1071.5292,0,0,736363.443008743,03_02_2016 level23_spatial_Robin 10_20_06.217 log.txt,37,37
142,1,1076.4108,0,460,1105,2857,4205,509,-3.5,200,0,0,1077.473,1,0,736363.44308597,03_02_2016 level23_spatial_Robin 10_20_06.217 log.txt,37,37
143,0,1081.8756,0,460,1105,2857,4205,510,-3.5,200,0,0,1082.8819,1,3,736363.44314922,03_02_2016 level23_spatial_Robin 10_20_06.217 log.txt,37,37
144,0,1120.5614,0,730,2058,2857,4205,505,-0.5,200,1,1,1122.0263,1,5,736363.443596972,03_02_2016 level23_spatial_Robin 10_20_06.217 log.txt,37,37
1,0,10.6127,0,460,1105,2857,4205,509,-3.5,200,0,0,11.0831,1,4,736363.644637253,03_02_2016 level23_spatial_Robin 15_28_06.046 log.txt,37,37
2,0,17.0516,0,460,1105,2857,4205,501,-3.5,200,0,0,17.9945,1,2,736363.644711778,03_02_2016 level23_spatial_Robin 15_28_06.046 log.txt,37,37
3,0,23.668,0,460,1105,2857,4205,511,-9.5,200,0,0,24.5696,1,5,736363.644788356,03_02_2016 level23_spatial_Robin 15_28_06.046 log.txt,37,37
4,0,29.5226,0,460,1105,2857,4205,502,-0.5,200,0,1,30.542,0,2,736363.644856118,03_02_2016 level23_spatial_Robin 15_28_06.046 log.txt,37,37
5,1,36.042,0,460,1105,2857,4205,502,-0.5,200,0,0,36.9598,1,2,736363.644931574,03_02_2016 level23_spatial_Robin 15_28_06.046 log.txt,37,37
6,0,42.061,0,730,2058,2857,4205,505,-6.5,200,1,1,43.1904,1,3,736363.645001238,03_02_2016 level23_spatial_Robin 15_28_06.046 log.txt,37,37
7,0,56.6178,0,460,1105,2857,4205,504,-9.5,200,0,0,57.4625,1,2,736363.64516972,03_02_2016 level23_spatial_Robin 15_28_06.046 log.txt,37,37
8,0,62.2658,0,460,1105,2857,4205,510,2.5,200,0,0,63.2814,1,3,736363.64523509,03_02_2016 level23_spatial_Robin 15_28_06.046 log.txt,37,37
9,0,68.2999,0,730,2058,2857,4205,508,-12.5,200,1,0,69.4567,0,5,736363.645304929,03_02_2016 level23_spatial_Robin 15_28_06.046 log.txt,37,37
10,1,73.2964,0,730,2058,2857,4205,508,-12.5,200,1,1,74.3825,1,5,736363.645362759,03_02_2016 level23_spatial_Robin 15_28_06.046 log.txt,37,37
11,0,81.1578,0,460,1105,2857,4205,506,-0.5,200,0,1,82.4038,0,1,736363.645453748,03_02_2016 level23_spatial_Robin 15_28_06.046 log.txt,37,37
12,1,88.9434,0,460,1105,2857,4205,506,-0.5,200,0,0,89.8216,1,1,736363.645543859,03_02_2016 level23_spatial_Robin 15_28_06.046 log.txt,37,37
13,0,94.6258,0,460,1105,2857,4205,503,2.5,200,0,0,95.575,1,5,736363.645609627,03_02_2016 level23_spatial_Robin 15_28_06.046 log.txt,37,37
14,0,100.5131,0,730,2058,2857,4205,504,2.5,200,1,1,101.4875,1,0,736363.645677767,03_02_2016 level23_spatial_Robin 15_28_06.046 log.txt,37,37
15,0,107.7665,0,730,2058,2857,4205,503,-0.5,200,1,1,108.7693,1,0,736363.645761719,03_02_2016 level23_spatial_Robin 15_28_06.046 log.txt,37,37
16,0,113.999,0,460,1105,2857,4205,509,2.5,200,0,0,115.0259,1,0,736363.645833854,03_02_2016 level23_spatial_Robin 15_28_06.046 log.txt,37,37
17,0,118.8667,0,460,1105,2857,4205,501,-3.5,200,0,0,119.9172,1,3,736363.645890193,03_02_2016 level23_spatial_Robin 15_28_06.046 log.txt,37,37
18,0,123.7217,0,460,1105,2857,4205,506,-9.5,200,0,0,124.6796,1,1,736363.645946385,03_02_2016 level23_spatial_Robin 15_28_06.046 log.txt,37,37
19,0,128.315,0,730,2058,2857,4205,508,-9.5,200,1,1,129.4109,1,3,736363.645999549,03_02_2016 level23_spatial_Robin 15_28_06.046 log.txt,37,37
20,0,136.7993,0,730,2058,2857,4205,502,-3.5,200,1,1,137.7001,1,1,736363.646097747,03_02_2016 level23_spatial_Robin 15_28_06.046 log.txt,37,37
21,0,143.1503,0,730,2058,2857,4205,510,2.5,200,1,1,144.2828,1,3,736363.646171254,03_02_2016 level23_spatial_Robin 15_28_06.046 log.txt,37,37
22,0,149.8441,0,460,1105,2857,4205,507,-9.5,200,0,0,150.6489,1,3,736363.646248728,03_02_2016 level23_spatial_Robin 15_28_06.046 log.txt,37,37
23,0,154.4606,0,730,2058,2857,4205,511,-6.5,200,1,1,155.3953,1,1,736363.64630216,03_02_2016 level23_spatial_Robin 15_28_06.046 log.txt,37,37
24,0,160.7536,0,460,1105,2857,4205,503,-6.5,200,0,1,162.0602,0,4,736363.646374995,03_02_2016 level23_spatial_Robin 15_28_06.046 log.txt,37,37
25,1,171.5363,0,460,1105,2857,4205,503,-6.5,200,0,0,172.048,1,4,736363.646499795,03_02_2016 level23_spatial_Robin 15_28_06.046 log.txt,37,37
26,0,176.4756,0,730,2058,2857,4205,510,-0.5,200,1,1,177.625,1,4,736363.646556963,03_02_2016 level23_spatial_Robin 15_28_06.046 log.txt,37,37
27,0,183.0584,0,730,2058,2857,4205,511,-3.5,200,1,1,184.4263,1,4,736363.646633153,03_02_2016 level23_spatial_Robin 15_28_06.046 log.txt,37,37
28,0,189.1942,0,460,1105,2857,4205,504,-3.5,200,0,0,189.9249,1,1,736363.646704169,03_02_2016 level23_spatial_Robin 15_28_06.046 log.txt,37,37
29,0,193.66,0,460,1105,2857,4205,506,-12.5,200,0,0,194.772,1,2,736363.646755857,03_02_2016 level23_spatial_Robin 15_28_06.046 log.txt,37,37
30,0,198.109,0,730,2058,2857,4205,501,-9.5,200,1,1,199.3241,1,2,736363.64680735,03_02_2016 level23_spatial_Robin 15_28_06.046 log.txt,37,37
31,0,204.6527,1,460,1105,2857,4205,505,-12.5,200,0,1,208.4921,0,3,736363.646883087,03_02_2016 level23_spatial_Robin 15_28_06.046 log.txt,37,37
32,1,214.7935,0,460,1105,2857,4205,505,-12.5,200,0,0,215.8186,1,3,736363.647000457,03_02_2016 level23_spatial_Robin 15_28_06.046 log.txt,37,37
33,0,219.7146,0,460,1105,2857,4205,507,-12.5,200,0,0,220.6066,1,4,736363.647057414,03_02_2016 level23_spatial_Robin 15_28_06.046 log.txt,37,37
34,0,224.6288,0,730,2058,2857,4205,508,-6.5,200,1,1,225.709,1,5,736363.647114292,03_02_2016 level23_spatial_Robin 15_28_06.046 log.txt,37,37
35,0,231.0317,0,730,2058,2857,4205,502,-0.5,200,1,1,232.2814,1,3,736363.647188399,03_02_2016 level23_spatial_Robin 15_28_06.046 log.txt,37,37
36,0,236.8075,0,460,1105,2857,4205,504,2.5,200,0,0,237.776,1,1,736363.647255249,03_02_2016 level23_spatial_Robin 15_28_06.046 log.txt,37,37
37,0,241.3799,0,730,2058,2857,4205,509,-12.5,200,1,1,242.6469,1,2,736363.64730817,03_02_2016 level23_spatial_Robin 15_28_06.046 log.txt,37,37
38,0,247.488,0,460,1105,2857,4205,503,-6.5,200,0,1,248.7237,0,3,736363.647378866,03_02_2016 level23_spatial_Robin 15_28_06.046 log.txt,37,37
39,1,254.3291,0,460,1105,2857,4205,503,-6.5,200,0,0,255.2491,1,3,736363.647458045,03_02_2016 level23_spatial_Robin 15_28_06.046 log.txt,37,37
40,0,259.1272,0,460,1105,2857,4205,507,-3.5,200,0,0,260.0993,1,5,736363.647513579,03_02_2016 level23_spatial_Robin 15_28_06.046 log.txt,37,37
41,0,263.7102,0,460,1105,2857,4205,511,-6.5,200,0,1,264.875,0,1,736363.647566623,03_02_2016 level23_spatial_Robin 15_28_06.046 log.txt,37,37
42,1,273.1343,0,460,1105,2857,4205,511,-6.5,200,0,0,274.2376,1,1,736363.647675698,03_02_2016 level23_spatial_Robin 15_28_06.046 log.txt,37,37
43,0,277.9716,0,730,2058,2857,4205,501,2.5,200,1,1,279.018,1,4,736363.647731685,03_02_2016 level23_spatial_Robin 15_28_06.046 log.txt,37,37
44,0,284.53,0,730,2058,2857,4205,502,-0.5,200,1,1,285.8762,1,5,736363.647807593,03_02_2016 level23_spatial_Robin 15_28_06.046 log.txt,37,37
45,0,290.7993,0,730,2058,2857,4205,510,-3.5,200,1,0,291.6965,0,2,736363.647880154,03_02_2016 level23_spatial_Robin 15_28_06.046 log.txt,37,37
46,1,296.2558,0,730,2058,2857,4205,510,-3.5,200,1,1,297.3652,1,2,736363.647943308,03_02_2016 level23_spatial_Robin 15_28_06.046 log.txt,37,37
47,0,303.6549,0,460,1105,2857,4205,506,2.5,200,0,1,305.0177,0,4,736363.648028946,03_02_2016 level23_spatial_Robin 15_28_06.046 log.txt,37,37
48,1,311.062,0,460,1105,2857,4205,506,2.5,200,0,0,311.4743,1,4,736363.648114676,03_02_2016 level23_spatial_Robin 15_28_06.046 log.txt,37,37
49,0,315.6144,1,730,2058,2857,4205,508,-12.5,200,1,0,318.7927,0,1,736363.648167366,03_02_2016 level23_spatial_Robin 15_28_06.046 log.txt,37,37
50,1,323.9352,0,730,2058,2857,4205,508,-12.5,200,1,1,326.8511,1,1,736363.648263671,03_02_2016 level23_spatial_Robin 15_28_06.046 log.txt,37,37
51,0,331.9457,0,460,1105,2857,4205,506,-6.5,200,0,1,333.1211,0,5,736363.648356385,03_02_2016 level23_spatial_Robin 15_28_06.046 log.txt,37,37
52,1,338.6702,0,460,1105,2857,4205,506,-6.5,200,0,1,339.9584,0,5,736363.648434215,03_02_2016 level23_spatial_Robin 15_28_06.046 log.txt,37,37
53,1,346.7939,0,460,1105,2857,4205,506,-6.5,200,0,0,347.4892,1,5,736363.64852824,03_02_2016 level23_spatial_Robin 15_28_06.046 log.txt,37,37
54,0,351.8199,0,460,1105,2857,4205,508,-9.5,200,0,0,352.994,1,4,736363.648586411,03_02_2016 level23_spatial_Robin 15_28_06.046 log.txt,37,37
55,0,356.9356,1,460,1105,2857,4205,510,-6.5,200,0,1,360.3294,0,2,736363.64864562,03_02_2016 level23_spatial_Robin 15_28_06.046 log.txt,37,37
56,1,367.9131,0,460,1105,2857,4205,510,-6.5,200,0,0,369.2096,1,2,736363.648772675,03_02_2016 level23_spatial_Robin 15_28_06.046 log.txt,37,37
57,0,374.0186,0,730,2058,2857,4205,507,-6.5,200,1,1,375.7235,1,2,736363.64884334,03_02_2016 level23_spatial_Robin 15_28_06.046 log.txt,37,37
58,0,381.1534,1,730,2058,2857,4205,503,-12.5,200,1,1,385.0642,1,4,736363.648925919,03_02_2016 level23_spatial_Robin 15_28_06.046 log.txt,37,37
59,0,390.5955,0,460,1105,2857,4205,509,-12.5,200,0,0,391.6404,1,1,736363.649035203,03_02_2016 level23_spatial_Robin 15_28_06.046 log.txt,37,37
60,0,395.5489,0,730,2058,2857,4205,511,2.5,200,1,1,396.9289,1,1,736363.649092534,03_02_2016 level23_spatial_Robin 15_28_06.046 log.txt,37,37
61,0,401.8878,0,730,2058,2857,4205,505,-6.5,200,1,1,403.0278,1,4,736363.649165901,03_02_2016 level23_spatial_Robin 15_28_06.046 log.txt,37,37
62,0,408.4425,0,460,1105,2857,4205,501,-12.5,200,0,0,409.3266,1,5,736363.649241765,03_02_2016 level23_spatial_Robin 15_28_06.046 log.txt,37,37
63,0,412.8564,1,730,2058,2857,4205,504,-6.5,200,1,1,417.1332,1,0,736363.649292852,03_02_2016 level23_spatial_Robin 15_28_06.046 log.txt,37,37
64,0,423.7534,0,460,1105,2857,4205,506,-0.5,200,0,0,424.835,1,4,736363.649418975,03_02_2016 level23_spatial_Robin 15_28_06.046 log.txt,37,37
65,0,428.1333,0,730,2058,2857,4205,508,-0.5,200,1,1,429.5661,1,1,736363.649469668,03_02_2016 level23_spatial_Robin 15_28_06.046 log.txt,37,37
66,0,434.7431,0,730,2058,2857,4205,510,-3.5,200,1,1,436.015,1,5,736363.64954617,03_02_2016 level23_spatial_Robin 15_28_06.046 log.txt,37,37
67,0,440.7328,1,730,2058,2857,4205,501,-9.5,200,1,0,445.5884,0,1,736363.649615495,03_02_2016 level23_spatial_Robin 15_28_06.046 log.txt,37,37
68,1,451.591,0,730,2058,2857,4205,501,-9.5,200,1,1,452.7486,1,1,736363.649741169,03_02_2016 level23_spatial_Robin 15_28_06.046 log.txt,37,37
69,0,457.8085,1,730,2058,2857,4205,507,-9.5,200,1,1,461.6043,1,0,736363.649813131,03_02_2016 level23_spatial_Robin 15_28_06.046 log.txt,37,37
70,0,466.8366,1,730,2058,2857,4205,503,-0.5,200,1,1,470.6431,1,2,736363.649917623,03_02_2016 level23_spatial_Robin 15_28_06.046 log.txt,37,37
71,0,476.118,0,460,1105,2857,4205,511,-12.5,200,0,0,477.4514,1,0,736363.650025046,03_02_2016 level23_spatial_Robin 15_28_06.046 log.txt,37,37
72,0,480.8683,0,730,2058,2857,4205,505,2.5,200,1,1,482.5438,1,2,736363.650080027,03_02_2016 level23_spatial_Robin 15_28_06.046 log.txt,37,37
73,0,487.5755,1,730,2058,2857,4205,509,-3.5,200,1,1,491.7358,1,0,736363.650157656,03_02_2016 level23_spatial_Robin 15_28_06.046 log.txt,37,37
74,0,496.8145,0,460,1105,2857,4205,502,-0.5,200,0,0,498.0675,1,5,736363.650264589,03_02_2016 level23_spatial_Robin 15_28_06.046 log.txt,37,37
75,0,501.5994,0,730,2058,2857,4205,509,2.5,200,1,1,503.2393,1,5,736363.65031997,03_02_2016 level23_spatial_Robin 15_28_06.046 log.txt,37,37
76,0,507.771,0,460,1105,2857,4205,506,2.5,200,0,0,508.8827,1,2,736363.650391401,03_02_2016 level23_spatial_Robin 15_28_06.046 log.txt,37,37
77,0,512.5807,0,460,1105,2857,4205,508,-9.5,200,0,1,514.1667,0,0,736363.650447068,03_02_2016 level23_spatial_Robin 15_28_06.046 log.txt,37,37
78,1,517.8563,0,460,1105,2857,4205,508,-9.5,200,0,0,518.9197,1,0,736363.650508129,03_02_2016 level23_spatial_Robin 15_28_06.046 log.txt,37,37
79,0,522.8533,0,460,1105,2857,4205,511,-0.5,200,0,0,523.8762,1,3,736363.650565964,03_02_2016 level23_spatial_Robin 15_28_06.046 log.txt,37,37
80,0,527.7136,0,730,2058,2857,4205,505,-12.5,200,1,1,529,1,3,736363.650622218,03_02_2016 level23_spatial_Robin 15_28_06.046 log.txt,37,37
81,0,533.5305,1,460,1105,2857,4205,502,-3.5,200,0,1,537.8916,0,0,736363.650689543,03_02_2016 level23_spatial_Robin 15_28_06.046 log.txt,37,37
82,1,544.8769,0,460,1105,2857,4205,502,-3.5,200,0,0,546.133,1,0,736363.650820867,03_02_2016 level23_spatial_Robin 15_28_06.046 log.txt,37,37
83,0,550.1363,0,730,2058,2857,4205,503,-9.5,200,1,1,551.8046,1,5,736363.65088174,03_02_2016 level23_spatial_Robin 15_28_06.046 log.txt,37,37
84,0,555.9091,1,730,2058,2857,4205,501,-9.5,200,1,1,559.7017,1,4,736363.650948555,03_02_2016 level23_spatial_Robin 15_28_06.046 log.txt,37,37
85,0,564.6548,0,730,2058,2857,4205,504,-12.5,200,1,1,566.3131,1,0,736363.651049778,03_02_2016 level23_spatial_Robin 15_28_06.046 log.txt,37,37
86,0,571.7796,0,730,2058,2857,4205,507,-3.5,200,1,1,573.2062,1,3,736363.651132241,03_02_2016 level23_spatial_Robin 15_28_06.046 log.txt,37,37
87,0,578.9579,0,460,1105,2857,4205,506,-0.5,200,0,0,579.9264,1,0,736363.651215323,03_02_2016 level23_spatial_Robin 15_28_06.046 log.txt,37,37
88,0,583.9753,0,460,1105,2857,4205,504,-6.5,200,0,1,585.3944,0,0,736363.651273395,03_02_2016 level23_spatial_Robin 15_28_06.046 log.txt,37,37
89,1,589.9738,1,460,1105,2857,4205,504,-6.5,200,0,0,593.6725,1,0,736363.651342822,03_02_2016 level23_spatial_Robin 15_28_06.046 log.txt,37,37
90,0,597.8788,0,460,1105,2857,4205,502,-9.5,200,0,0,598.9725,1,4,736363.651434315,03_02_2016 level23_spatial_Robin 15_28_06.046 log.txt,37,37
91,0,602.9141,0,730,2058,2857,4205,503,-3.5,200,1,1,604.3435,1,0,736363.651492594,03_02_2016 level23_spatial_Robin 15_28_06.046 log.txt,37,37
92,0,609.1226,0,460,1105,2857,4205,509,-0.5,200,0,1,610.5824,0,2,736363.651564451,03_02_2016 level23_spatial_Robin 15_28_06.046 log.txt,37,37
93,1,624.1482,0,460,1105,2857,4205,509,-0.5,200,0,0,625.3795,1,2,736363.651738359,03_02_2016 level23_spatial_Robin 15_28_06.046 log.txt,37,37
94,0,629.3085,0,730,2058,2857,4205,508,-12.5,200,1,0,630.3438,0,4,736363.651798084,03_02_2016 level23_spatial_Robin 15_28_06.046 log.txt,37,37
95,1,634.2088,0,730,2058,2857,4205,508,-12.5,200,1,1,635.6816,1,4,736363.651854801,03_02_2016 level23_spatial_Robin 15_28_06.046 log.txt,37,37
96,0,640.257,0,460,1105,2857,4205,510,-9.5,200,0,1,641.4744,0,5,736363.651924803,03_02_2016 level23_spatial_Robin 15_28_06.046 log.txt,37,37
97,1,667.912,0,460,1105,2857,4205,510,-9.5,200,0,0,668.7461,1,5,736363.652244884,03_02_2016 level23_spatial_Robin 15_28_06.046 log.txt,37,37
98,0,673.6351,0,730,2058,2857,4205,507,-0.5,200,1,0,674.7543,0,1,736363.652311124,03_02_2016 level23_spatial_Robin 15_28_06.046 log.txt,37,37
99,1,681.9986,0,730,2058,2857,4205,507,-0.5,200,1,0,683.1426,0,1,736363.652407924,03_02_2016 level23_spatial_Robin 15_28_06.046 log.txt,37,37
100,1,687.7549,0,730,2058,2857,4205,507,-0.5,200,1,1,689.2311,1,1,736363.652474548,03_02_2016 level23_spatial_Robin 15_28_06.046 log.txt,37,37
101,0,693.4307,0,730,2058,2857,4205,505,-12.5,200,1,0,694.4926,0,0,736363.65254024,03_02_2016 level23_spatial_Robin 15_28_06.046 log.txt,37,37
102,1,702.2836,1,730,2058,2857,4205,505,-12.5,200,1,0,702.8251,0,0,736363.652642704,03_02_2016 level23_spatial_Robin 15_28_06.046 log.txt,37,37
103,1,710.8914,0,730,2058,2857,4205,505,-12.5,200,1,0,711.8796,0,0,736363.652742331,03_02_2016 level23_spatial_Robin 15_28_06.046 log.txt,37,37
1,0,11.1754,0,460,1105,2857,4205,510,2.5,200,0,0,11.2266,1,0,736364.350532065,04_02_2016 level23_spatial_Robin 08_24_34.795 log.txt,37,37
2,0,19.163,0,460,1105,2857,4205,507,2.5,200,0,0,20.0781,1,5,736364.350624514,04_02_2016 level23_spatial_Robin 08_24_34.795 log.txt,37,37
3,0,24.6518,0,460,1105,2857,4205,501,2.5,200,0,0,24.6867,1,4,736364.350688042,04_02_2016 level23_spatial_Robin 08_24_34.795 log.txt,37,37
4,0,29.8488,1,730,2058,2857,4205,506,-0.5,200,1,0,29.8805,0,2,736364.350748192,04_02_2016 level23_spatial_Robin 08_24_34.795 log.txt,37,37
5,1,34.7342,0,730,2058,2857,4205,506,-0.5,200,1,1,35.8895,1,2,736364.350804736,04_02_2016 level23_spatial_Robin 08_24_34.795 log.txt,37,37
6,0,39.0672,0,730,2058,2857,4205,504,-3.5,200,1,0,40.3268,0,3,736364.350854887,04_02_2016 level23_spatial_Robin 08_24_34.795 log.txt,37,37
7,1,50.4419,0,730,2058,2857,4205,504,-3.5,200,1,0,51.3473,0,3,736364.350986538,04_02_2016 level23_spatial_Robin 08_24_34.795 log.txt,37,37
8,1,58.2026,0,730,2058,2857,4205,504,-3.5,200,1,1,59.5494,1,3,736364.351076361,04_02_2016 level23_spatial_Robin 08_24_34.795 log.txt,37,37
9,0,66.7539,0,460,1105,2857,4205,502,-3.5,200,0,0,67.6147,1,4,736364.351175335,04_02_2016 level23_spatial_Robin 08_24_34.795 log.txt,37,37
10,0,72.1497,0,460,1105,2857,4205,503,-6.5,200,0,0,72.9413,1,4,736364.351237786,04_02_2016 level23_spatial_Robin 08_24_34.795 log.txt,37,37
11,0,77.3968,0,730,2058,2857,4205,508,-6.5,200,1,0,77.3963,0,3,736364.351298516,04_02_2016 level23_spatial_Robin 08_24_34.795 log.txt,37,37
12,1,80.9839,0,730,2058,2857,4205,508,-6.5,200,1,1,82.1244,1,3,736364.351340034,04_02_2016 level23_spatial_Robin 08_24_34.795 log.txt,37,37
13,0,88.1453,1,460,1105,2857,4205,511,-0.5,200,0,1,89.5667,0,3,736364.35142292,04_02_2016 level23_spatial_Robin 08_24_34.795 log.txt,37,37
14,1,94.0033,0,460,1105,2857,4205,511,-0.5,200,0,0,94.7938,1,3,736364.351490721,04_02_2016 level23_spatial_Robin 08_24_34.795 log.txt,37,37
15,0,99.2138,1,730,2058,2857,4205,505,2.5,200,1,0,99.2488,0,0,736364.351551028,04_02_2016 level23_spatial_Robin 08_24_34.795 log.txt,37,37
16,1,102.8855,0,730,2058,2857,4205,505,2.5,200,1,1,104.274,1,0,736364.351593524,04_02_2016 level23_spatial_Robin 08_24_34.795 log.txt,37,37
17,0,109.8322,0,460,1105,2857,4205,511,-9.5,200,0,0,110.797,1,1,736364.351673926,04_02_2016 level23_spatial_Robin 08_24_34.795 log.txt,37,37
18,0,114.8984,0,730,2058,2857,4205,508,2.5,200,1,1,116.0614,1,5,736364.351732563,04_02_2016 level23_spatial_Robin 08_24_34.795 log.txt,37,37
19,0,122.7154,0,460,1105,2857,4205,501,-0.5,200,0,1,123.9789,0,0,736364.351823037,04_02_2016 level23_spatial_Robin 08_24_34.795 log.txt,37,37
20,1,132.2221,0,460,1105,2857,4205,501,-0.5,200,0,0,132.851,1,0,736364.351933068,04_02_2016 level23_spatial_Robin 08_24_34.795 log.txt,37,37
21,0,136.5831,1,730,2058,2857,4205,509,-0.5,200,1,1,140.8736,1,5,736364.351983543,04_02_2016 level23_spatial_Robin 08_24_34.795 log.txt,37,37
22,0,150.8068,1,730,2058,2857,4205,504,-6.5,200,1,0,154.8899,0,1,736364.352148169,04_02_2016 level23_spatial_Robin 08_24_34.795 log.txt,37,37
23,1,160.2808,0,730,2058,2857,4205,504,-6.5,200,1,1,161.818,1,1,736364.352257822,04_02_2016 level23_spatial_Robin 08_24_34.795 log.txt,37,37
24,0,173.1959,0,730,2058,2857,4205,506,-9.5,200,1,0,174.3115,0,2,736364.352407302,04_02_2016 level23_spatial_Robin 08_24_34.795 log.txt,37,37
25,1,181.233,0,730,2058,2857,4205,506,-9.5,200,1,0,182.0336,0,2,736364.352500324,04_02_2016 level23_spatial_Robin 08_24_34.795 log.txt,37,37
26,1,185.6282,1,730,2058,2857,4205,506,-9.5,200,1,1,190.1873,1,2,736364.352551194,04_02_2016 level23_spatial_Robin 08_24_34.795 log.txt,37,37
27,0,200.343,0,730,2058,2857,4205,507,-9.5,200,1,0,201.3853,0,5,736364.352721505,04_02_2016 level23_spatial_Robin 08_24_34.795 log.txt,37,37
28,1,207.4695,0,730,2058,2857,4205,507,-9.5,200,1,1,208.6173,1,5,736364.352803987,04_02_2016 level23_spatial_Robin 08_24_34.795 log.txt,37,37
29,0,219.5727,0,460,1105,2857,4205,502,-9.5,200,0,0,220.5208,1,2,736364.352944071,04_02_2016 level23_spatial_Robin 08_24_34.795 log.txt,37,37
30,0,225.072,0,730,2058,2857,4205,510,2.5,200,1,1,226.4774,1,3,736364.35300772,04_02_2016 level23_spatial_Robin 08_24_34.795 log.txt,37,37
31,0,235.7093,0,730,2058,2857,4205,503,2.5,200,1,0,236.5167,0,4,736364.353130837,04_02_2016 level23_spatial_Robin 08_24_34.795 log.txt,37,37
32,1,242.5758,0,730,2058,2857,4205,503,2.5,200,1,0,243.5741,0,4,736364.35321031,04_02_2016 level23_spatial_Robin 08_24_34.795 log.txt,37,37
33,1,249.8744,0,730,2058,2857,4205,503,2.5,200,1,1,251.2628,1,4,736364.353294785,04_02_2016 level23_spatial_Robin 08_24_34.795 log.txt,37,37
34,0,263.5754,0,460,1105,2857,4205,509,-3.5,200,0,0,264.4592,1,1,736364.353453361,04_02_2016 level23_spatial_Robin 08_24_34.795 log.txt,37,37
35,0,269.0357,0,460,1105,2857,4205,510,-0.5,200,0,0,269.8526,1,4,736364.353516559,04_02_2016 level23_spatial_Robin 08_24_34.795 log.txt,37,37
36,0,273.9685,0,730,2058,2857,4205,508,-3.5,200,1,1,275.1877,1,2,736364.353573652,04_02_2016 level23_spatial_Robin 08_24_34.795 log.txt,37,37
37,0,284.1459,0,460,1105,2857,4205,511,-9.5,200,0,0,284.948,1,0,736364.353691446,04_02_2016 level23_spatial_Robin 08_24_34.795 log.txt,37,37
38,0,289.2088,0,460,1105,2857,4205,504,-0.5,200,0,0,289.2494,1,1,736364.353750044,04_02_2016 level23_spatial_Robin 08_24_34.795 log.txt,37,37
39,0,294.0906,1,460,1105,2857,4205,503,-12.5,200,0,0,297.5487,1,3,736364.353806546,04_02_2016 level23_spatial_Robin 08_24_34.795 log.txt,37,37
40,0,301.3191,0,460,1105,2857,4205,501,-3.5,200,0,1,302.669,0,3,736364.353890209,04_02_2016 level23_spatial_Robin 08_24_34.795 log.txt,37,37
41,1,312.0932,0,460,1105,2857,4205,501,-3.5,200,0,0,313.0012,1,3,736364.35401491,04_02_2016 level23_spatial_Robin 08_24_34.795 log.txt,37,37
42,0,316.5583,0,730,2058,2857,4205,505,-9.5,200,1,1,317.7734,1,3,736364.354066589,04_02_2016 level23_spatial_Robin 08_24_34.795 log.txt,37,37
43,0,328.6902,1,730,2058,2857,4205,506,-9.5,200,1,0,333.1649,0,1,736364.354207005,04_02_2016 level23_spatial_Robin 08_24_34.795 log.txt,37,37
44,1,336.783,0,730,2058,2857,4205,506,-9.5,200,1,0,337.9661,0,1,736364.354300671,04_02_2016 level23_spatial_Robin 08_24_34.795 log.txt,37,37
45,1,343.0053,0,730,2058,2857,4205,506,-9.5,200,1,1,344.4007,1,1,736364.354372689,04_02_2016 level23_spatial_Robin 08_24_34.795 log.txt,37,37
46,0,355.079,1,730,2058,2857,4205,502,-0.5,200,1,0,359.0509,0,4,736364.354512431,04_02_2016 level23_spatial_Robin 08_24_34.795 log.txt,37,37
47,1,367.8299,0,730,2058,2857,4205,502,-0.5,200,1,1,369.2131,1,4,736364.35466001,04_02_2016 level23_spatial_Robin 08_24_34.795 log.txt,37,37
48,0,382.9306,0,730,2058,2857,4205,510,-6.5,200,1,0,384.0135,0,2,736364.354834787,04_02_2016 level23_spatial_Robin 08_24_34.795 log.txt,37,37
49,1,388.4798,1,730,2058,2857,4205,510,-6.5,200,1,1,392.961,1,2,736364.354899014,04_02_2016 level23_spatial_Robin 08_24_34.795 log.txt,37,37
50,0,404.1759,0,460,1105,2857,4205,508,-9.5,200,0,0,405.3861,1,4,736364.355080682,04_02_2016 level23_spatial_Robin 08_24_34.795 log.txt,37,37
51,0,408.8341,1,730,2058,2857,4205,511,-3.5,200,1,1,413.3239,1,0,736364.355134596,04_02_2016 level23_spatial_Robin 08_24_34.795 log.txt,37,37
52,0,422.1369,0,730,2058,2857,4205,501,-0.5,200,1,0,424.592,0,3,736364.355288564,04_02_2016 level23_spatial_Robin 08_24_34.795 log.txt,37,37
53,1,429.7114,0,730,2058,2857,4205,501,-0.5,200,1,1,431.1153,1,3,736364.355376231,04_02_2016 level23_spatial_Robin 08_24_34.795 log.txt,37,37
54,0,442.8767,1,460,1105,2857,4205,502,-3.5,200,0,0,447.3217,1,0,736364.355528608,04_02_2016 level23_spatial_Robin 08_24_34.795 log.txt,37,37
55,0,451.4251,0,730,2058,2857,4205,504,-12.5,200,1,0,452.8146,0,2,736364.355627547,04_02_2016 level23_spatial_Robin 08_24_34.795 log.txt,37,37
56,1,456.9678,0,730,2058,2857,4205,504,-12.5,200,1,0,457.8589,0,2,736364.355691699,04_02_2016 level23_spatial_Robin 08_24_34.795 log.txt,37,37
57,1,461.7347,0,730,2058,2857,4205,504,-12.5,200,1,1,463.1217,1,2,736364.355746872,04_02_2016 level23_spatial_Robin 08_24_34.795 log.txt,37,37
58,0,475.1916,0,730,2058,2857,4205,503,-12.5,200,1,0,476.136,0,4,736364.355902623,04_02_2016 level23_spatial_Robin 08_24_34.795 log.txt,37,37
59,1,479.8362,0,730,2058,2857,4205,503,-12.5,200,1,0,480.859,0,4,736364.35595638,04_02_2016 level23_spatial_Robin 08_24_34.795 log.txt,37,37
60,1,486.073,0,730,2058,2857,4205,503,-12.5,200,1,1,487.1925,1,4,736364.356028565,04_02_2016 level23_spatial_Robin 08_24_34.795 log.txt,37,37
61,0,497.3315,0,730,2058,2857,4205,509,-12.5,200,1,0,498.4817,0,3,736364.356158872,04_02_2016 level23_spatial_Robin 08_24_34.795 log.txt,37,37
62,1,503.103,0,730,2058,2857,4205,509,-12.5,200,1,1,504.2826,1,3,736364.356225671,04_02_2016 level23_spatial_Robin 08_24_34.795 log.txt,37,37
63,0,514.8869,1,460,1105,2857,4205,506,-6.5,200,0,0,519.6936,1,2,736364.356362059,04_02_2016 level23_spatial_Robin 08_24_34.795 log.txt,37,37
64,0,523.932,0,730,2058,2857,4205,505,-6.5,200,1,1,525.2569,1,5,736364.356466748,04_02_2016 level23_spatial_Robin 08_24_34.795 log.txt,37,37
65,0,536.3452,0,730,2058,2857,4205,511,-12.5,200,1,1,537.7119,1,5,736364.356610419,04_02_2016 level23_spatial_Robin 08_24_34.795 log.txt,37,37
66,0,548.9328,1,460,1105,2857,4205,501,-9.5,200,0,0,552.0839,1,5,736364.356756109,04_02_2016 level23_spatial_Robin 08_24_34.795 log.txt,37,37
67,0,555.9438,1,460,1105,2857,4205,508,-6.5,200,0,0,560.0416,1,1,736364.356837255,04_02_2016 level23_spatial_Robin 08_24_34.795 log.txt,37,37
68,0,563.9012,1,460,1105,2857,4205,504,2.5,200,0,0,568.2546,1,2,736364.356929354,04_02_2016 level23_spatial_Robin 08_24_34.795 log.txt,37,37
69,0,571.8394,0,730,2058,2857,4205,507,-3.5,200,1,1,573.2391,1,4,736364.357021232,04_02_2016 level23_spatial_Robin 08_24_34.795 log.txt,37,37
70,0,585.4515,0,460,1105,2857,4205,503,2.5,200,0,0,586.5958,1,1,736364.357178779,04_02_2016 level23_spatial_Robin 08_24_34.795 log.txt,37,37
71,0,591.0914,1,730,2058,2857,4205,506,-3.5,200,1,0,594.8824,0,5,736364.357244056,04_02_2016 level23_spatial_Robin 08_24_34.795 log.txt,37,37
72,1,599.9508,0,730,2058,2857,4205,506,-3.5,200,1,1,601.5504,1,5,736364.357346595,04_02_2016 level23_spatial_Robin 08_24_34.795 log.txt,37,37
73,0,608.5988,0,730,2058,2857,4205,505,-0.5,200,1,1,609.9887,1,0,736364.357446688,04_02_2016 level23_spatial_Robin 08_24_34.795 log.txt,37,37
74,0,616.1448,0,460,1105,2857,4205,510,-6.5,200,0,0,617.2716,1,5,736364.357534025,04_02_2016 level23_spatial_Robin 08_24_34.795 log.txt,37,37
75,0,621.0861,0,460,1105,2857,4205,502,-12.5,200,0,0,622.0975,1,1,736364.357591216,04_02_2016 level23_spatial_Robin 08_24_34.795 log.txt,37,37
76,0,625.7963,0,460,1105,2857,4205,501,-12.5,200,0,0,626.7372,1,2,736364.357645733,04_02_2016 level23_spatial_Robin 08_24_34.795 log.txt,37,37
77,0,630.4254,0,730,2058,2857,4205,502,2.5,200,1,1,631.7003,1,1,736364.35769931,04_02_2016 level23_spatial_Robin 08_24_34.795 log.txt,37,37
78,0,637.1544,0,460,1105,2857,4205,508,-12.5,200,0,1,638.7526,0,4,736364.357777192,04_02_2016 level23_spatial_Robin 08_24_34.795 log.txt,37,37
79,1,646.9958,0,460,1105,2857,4205,508,-12.5,200,0,0,647.6639,1,4,736364.357891097,04_02_2016 level23_spatial_Robin 08_24_34.795 log.txt,37,37
80,0,651.4751,0,460,1105,2857,4205,507,-3.5,200,0,0,652.3865,1,2,736364.357942941,04_02_2016 level23_spatial_Robin 08_24_34.795 log.txt,37,37
81,0,656.4884,0,460,1105,2857,4205,510,-9.5,200,0,0,657.4481,1,3,736364.358000965,04_02_2016 level23_spatial_Robin 08_24_34.795 log.txt,37,37
82,0,660.9378,0,460,1105,2857,4205,503,-6.5,200,0,1,662.3411,0,0,736364.358052463,04_02_2016 level23_spatial_Robin 08_24_34.795 log.txt,37,37
83,1,667.3519,1,460,1105,2857,4205,503,-6.5,200,0,0,671.4904,1,0,736364.3581267,04_02_2016 level23_spatial_Robin 08_24_34.795 log.txt,37,37
84,0,675.637,0,460,1105,2857,4205,511,-0.5,200,0,0,676.8105,1,5,736364.358222593,04_02_2016 level23_spatial_Robin 08_24_34.795 log.txt,37,37
85,0,685.5757,0,730,2058,2857,4205,504,2.5,200,1,0,686.3783,0,2,736364.358337624,04_02_2016 level23_spatial_Robin 08_24_34.795 log.txt,37,37
86,1,692.2523,1,730,2058,2857,4205,504,2.5,200,1,1,696.8221,1,2,736364.358414899,04_02_2016 level23_spatial_Robin 08_24_34.795 log.txt,37,37
87,0,702.2858,0,730,2058,2857,4205,509,-9.5,200,1,1,703.9477,1,0,736364.358531028,04_02_2016 level23_spatial_Robin 08_24_34.795 log.txt,37,37
88,0,708.5466,0,730,2058,2857,4205,506,-9.5,200,1,1,709.9013,1,4,736364.358603491,04_02_2016 level23_spatial_Robin 08_24_34.795 log.txt,37,37
89,0,715.2413,0,730,2058,2857,4205,501,-12.5,200,1,0,716.1842,0,0,736364.358680976,04_02_2016 level23_spatial_Robin 08_24_34.795 log.txt,37,37
90,1,720.982,0,730,2058,2857,4205,501,-12.5,200,1,1,722.2154,1,0,736364.358747419,04_02_2016 level23_spatial_Robin 08_24_34.795 log.txt,37,37
91,0,726.7663,0,460,1105,2857,4205,505,-12.5,200,0,1,728.0012,0,5,736364.358814367,04_02_2016 level23_spatial_Robin 08_24_34.795 log.txt,37,37
92,1,734.5537,0,460,1105,2857,4205,505,-12.5,200,0,0,735.4746,1,5,736364.358904499,04_02_2016 level23_spatial_Robin 08_24_34.795 log.txt,37,37
93,0,760.5743,1,730,2058,2857,4205,502,-12.5,200,1,0,764.0037,0,1,736364.359205663,04_02_2016 level23_spatial_Robin 08_24_34.795 log.txt,37,37
1,0,768.8254,1,730,2058,2857,4205,509,-12.5,200,1,0,778.0823,0,4,736364.694997724,04_02_2016 level23_spatial_Robin_cooling 16_27_58.978 log.txt,36,36
2,1,791.4301,0,730,2058,2857,4205,509,-12.5,200,1,1,793.5665,1,4,736364.695259353,04_02_2016 level23_spatial_Robin_cooling 16_27_58.978 log.txt,28.5919071423542,28.5919071423542
3,0,805.1076,0,730,2058,2857,4205,510,-0.5,200,1,0,806.3219,0,5,736364.695417657,04_02_2016 level23_spatial_Robin_cooling 16_27_58.978 log.txt,27,27
4,1,811.8917,1,730,2058,2857,4205,510,-0.5,200,1,1,823.4919,1,5,736364.695496177,04_02_2016 level23_spatial_Robin_cooling 16_27_58.978 log.txt,27,27
5,0,833.8537,0,460,1105,2857,4205,502,2.5,200,0,0,835.1559,1,2,736364.695750367,04_02_2016 level23_spatial_Robin_cooling 16_27_58.978 log.txt,26,26
6,0,841.6378,0,730,2058,2857,4205,511,2.5,200,1,0,847.2309,0,4,736364.695840461,04_02_2016 level23_spatial_Robin_cooling 16_27_58.978 log.txt,25,25
7,1,851.7498,0,730,2058,2857,4205,511,2.5,200,1,0,853.0794,0,4,736364.695957498,04_02_2016 level23_spatial_Robin_cooling 16_27_58.978 log.txt,24,24
8,1,860.0469,0,730,2058,2857,4205,511,2.5,200,1,1,861.4974,1,4,736364.696053529,04_02_2016 level23_spatial_Robin_cooling 16_27_58.978 log.txt,23,23
9,0,877.0779,0,460,1105,2857,4205,508,-9.5,200,0,0,878.4696,1,0,736364.696250647,04_02_2016 level23_spatial_Robin_cooling 16_27_58.978 log.txt,22,22
10,0,885.3937,0,460,1105,2857,4205,507,-3.5,200,0,1,886.9312,0,0,736364.696346895,04_02_2016 level23_spatial_Robin_cooling 16_27_58.978 log.txt,21,21
11,1,894.8723,0,460,1105,2857,4205,507,-3.5,200,0,0,896.0513,1,0,736364.696456601,04_02_2016 level23_spatial_Robin_cooling 16_27_58.978 log.txt,21,21
12,0,901.8764,0,460,1105,2857,4205,505,-0.5,200,0,0,902.9271,1,5,736364.696537667,04_02_2016 level23_spatial_Robin_cooling 16_27_58.978 log.txt,20,20
13,0,909.0741,0,730,2058,2857,4205,501,-0.5,200,1,0,910.9558,0,0,736364.696620973,04_02_2016 level23_spatial_Robin_cooling 16_27_58.978 log.txt,20,20
14,1,917.4674,0,730,2058,2857,4205,501,-0.5,200,1,0,922.5391,0,0,736364.696718118,04_02_2016 level23_spatial_Robin_cooling 16_27_58.978 log.txt,20,20
15,1,930.3911,0,730,2058,2857,4205,501,-0.5,200,1,0,931.6436,0,0,736364.696867698,04_02_2016 level23_spatial_Robin_cooling 16_27_58.978 log.txt,19,19
16,1,944.2433,0,730,2058,2857,4205,501,-0.5,200,1,1,945.8759,1,0,736364.697028024,04_02_2016 level23_spatial_Robin_cooling 16_27_58.978 log.txt,18,18
17,0,952.0003,0,460,1105,2857,4205,504,-9.5,200,0,0,953.1309,1,3,736364.697117804,04_02_2016 level23_spatial_Robin_cooling 16_27_58.978 log.txt,18,18
18,0,957.9148,0,460,1105,2857,4205,503,-0.5,200,0,0,959.2042,1,1,736364.697186259,04_02_2016 level23_spatial_Robin_cooling 16_27_58.978 log.txt,18,18
19,0,963.3265,1,730,2058,2857,4205,506,-12.5,200,1,1,976.0667,1,1,736364.697248895,04_02_2016 level23_spatial_Robin_cooling 16_27_58.978 log.txt,18,18
20,0,982.8153,0,460,1105,2857,4205,508,-9.5,200,0,1,983.9196,0,1,736364.697474459,04_02_2016 level23_spatial_Robin_cooling 16_27_58.978 log.txt,17,17
21,1,987.5872,0,460,1105,2857,4205,508,-9.5,200,0,0,988.8504,1,1,736364.69752969,04_02_2016 level23_spatial_Robin_cooling 16_27_58.978 log.txt,17,17
22,0,994.0043,0,730,2058,2857,4205,502,-6.5,200,1,1,995.8478,1,1,736364.697603962,04_02_2016 level23_spatial_Robin_cooling 16_27_58.978 log.txt,17,17
23,0,1001.9289,0,730,2058,2857,4205,511,-3.5,200,1,1,1003.2398,1,5,736364.697695682,04_02_2016 level23_spatial_Robin_cooling 16_27_58.978 log.txt,17,17
24,0,1008.9173,0,730,2058,2857,4205,507,-6.5,200,1,1,1010.5018,1,2,736364.697776566,04_02_2016 level23_spatial_Robin_cooling 16_27_58.978 log.txt,17,17
25,0,1015.1339,0,460,1105,2857,4205,501,-12.5,200,0,0,1016.6622,1,2,736364.697848517,04_02_2016 level23_spatial_Robin_cooling 16_27_58.978 log.txt,17,17
26,0,1022.9302,0,730,2058,2857,4205,510,-6.5,200,1,1,1028.1693,1,3,736364.697938752,04_02_2016 level23_spatial_Robin_cooling 16_27_58.978 log.txt,16,16
27,0,1029.8199,0,460,1105,2857,4205,505,-0.5,200,0,1,1036.2082,0,3,736364.698018494,04_02_2016 level23_spatial_Robin_cooling 16_27_58.978 log.txt,16,16
28,1,1042.5337,0,460,1105,2857,4205,505,-0.5,200,0,1,1047.0383,0,3,736364.698165645,04_02_2016 level23_spatial_Robin_cooling 16_27_58.978 log.txt,16,16
29,1,1057.5322,1,460,1105,2857,4205,505,-0.5,200,0,1,1063.1433,0,3,736364.698339238,04_02_2016 level23_spatial_Robin_cooling 16_27_58.978 log.txt,16,16
30,1,1071.5933,0,460,1105,2857,4205,505,-0.5,200,0,1,1073.1676,0,3,736364.698501983,04_02_2016 level23_spatial_Robin_cooling 16_27_58.978 log.txt,16,16
31,1,1077.4813,0,460,1105,2857,4205,505,-0.5,200,0,0,1079.0851,1,3,736364.698570131,04_02_2016 level23_spatial_Robin_cooling 16_27_58.978 log.txt,16,16
32,0,1084.1459,0,730,2058,2857,4205,504,-6.5,200,1,1,1085.9174,1,0,736364.698647267,04_02_2016 level23_spatial_Robin_cooling 16_27_58.978 log.txt,16,16
33,0,1090.9135,0,730,2058,2857,4205,503,2.5,200,1,0,1092.7664,0,1,736364.698725596,04_02_2016 level23_spatial_Robin_cooling 16_27_58.978 log.txt,15,15
34,1,1099.0944,0,730,2058,2857,4205,503,2.5,200,1,0,1100.8971,0,1,736364.698820282,04_02_2016 level23_spatial_Robin_cooling 16_27_58.978 log.txt,15,15
35,1,1108.3542,1,730,2058,2857,4205,503,2.5,200,1,0,1116.2223,0,1,736364.698927456,04_02_2016 level23_spatial_Robin_cooling 16_27_58.978 log.txt,15,15
36,1,1120.0256,0,730,2058,2857,4205,503,2.5,200,1,1,1122.9505,1,1,736364.699062542,04_02_2016 level23_spatial_Robin_cooling 16_27_58.978 log.txt,15,15
37,0,1133.6317,1,730,2058,2857,4205,502,-6.5,200,1,0,1139.0779,0,4,736364.69922002,04_02_2016 level23_spatial_Robin_cooling 16_27_58.978 log.txt,15,15
38,1,1145.367,0,730,2058,2857,4205,502,-6.5,200,1,0,1146.6097,0,4,736364.699355845,04_02_2016 level23_spatial_Robin_cooling 16_27_58.978 log.txt,14,14
39,1,1153.1701,0,730,2058,2857,4205,502,-6.5,200,1,1,1153.9715,1,4,736364.699446158,04_02_2016 level23_spatial_Robin_cooling 16_27_58.978 log.txt,14,14
40,0,1163.1986,0,730,2058,2857,4205,510,-0.5,200,1,0,1165.1415,0,2,736364.699562229,04_02_2016 level23_spatial_Robin_cooling 16_27_58.978 log.txt,14,14
41,1,1169.7781,0,730,2058,2857,4205,510,-0.5,200,1,0,1171.5178,0,2,736364.699638381,04_02_2016 level23_spatial_Robin_cooling 16_27_58.978 log.txt,14,14
42,1,1178.4495,1,730,2058,2857,4205,510,-0.5,200,1,1,1184.3718,1,2,736364.699738744,04_02_2016 level23_spatial_Robin_cooling 16_27_58.978 log.txt,14,14
43,0,1190.7915,0,730,2058,2857,4205,504,-3.5,200,1,1,1192.6858,1,3,736364.699881591,04_02_2016 level23_spatial_Robin_cooling 16_27_58.978 log.txt,14,14
44,0,1197.4442,0,460,1105,2857,4205,509,2.5,200,0,0,1199.0349,1,3,736364.69995859,04_02_2016 level23_spatial_Robin_cooling 16_27_58.978 log.txt,13,13
45,0,1205.7406,0,460,1105,2857,4205,503,2.5,200,0,1,1207.5881,0,1,736364.700054613,04_02_2016 level23_spatial_Robin_cooling 16_27_58.978 log.txt,13,13
46,1,1211.1934,0,460,1105,2857,4205,503,2.5,200,0,0,1213.0904,1,1,736364.700117724,04_02_2016 level23_spatial_Robin_cooling 16_27_58.978 log.txt,13,13
47,0,1225.6073,0,460,1105,2857,4205,508,-6.5,200,0,0,1227.2852,1,4,736364.700284552,04_02_2016 level23_spatial_Robin_cooling 16_27_58.978 log.txt,13,13
48,0,1232.5574,0,460,1105,2857,4205,506,-3.5,200,0,0,1234.1604,1,4,736364.700364993,04_02_2016 level23_spatial_Robin_cooling 16_27_58.978 log.txt,13,13
49,0,1240.4251,0,730,2058,2857,4205,505,-9.5,200,1,1,1241.8494,1,3,736364.700456054,04_02_2016 level23_spatial_Robin_cooling 16_27_58.978 log.txt,13,13
50,0,1246.9322,0,460,1105,2857,4205,501,-3.5,200,0,0,1248.6587,1,1,736364.700531368,04_02_2016 level23_spatial_Robin_cooling 16_27_58.978 log.txt,12,12
51,0,1257.7135,1,730,2058,2857,4205,511,-12.5,200,1,1,1264.3707,1,3,736364.700656152,04_02_2016 level23_spatial_Robin_cooling 16_27_58.978 log.txt,12,12
52,0,1278.4344,0,730,2058,2857,4205,505,-12.5,200,1,1,1280.1467,1,5,736364.700895977,04_02_2016 level23_spatial_Robin_cooling 16_27_58.978 log.txt,12,12
53,0,1285.0302,1,460,1105,2857,4205,506,2.5,200,0,1,1289.9297,0,0,736364.700972317,04_02_2016 level23_spatial_Robin_cooling 16_27_58.978 log.txt,12,12
54,1,1293.8081,0,460,1105,2857,4205,506,2.5,200,0,1,1295.5917,0,0,736364.701073913,04_02_2016 level23_spatial_Robin_cooling 16_27_58.978 log.txt,12,12
55,1,1303.5521,0,460,1105,2857,4205,506,2.5,200,0,1,1304.5815,0,0,736364.701186691,04_02_2016 level23_spatial_Robin_cooling 16_27_58.978 log.txt,12,12
56,1,1315.4745,0,460,1105,2857,4205,506,2.5,200,0,0,1317.4012,1,0,736364.701324682,04_02_2016 level23_spatial_Robin_cooling 16_27_58.978 log.txt,12,12
1,0,22.7634,1,730,2058,2857,4205,510,-0.5,200,1,0,27.2125,0,0,736365.369546301,05_02_2016 level23_spatial_Robin 08_51_46.037 log.txt,37,37
2,1,36.7904,0,730,2058,2857,4205,510,-0.5,200,1,0,37.5222,0,0,736365.36970865,05_02_2016 level23_spatial_Robin 08_51_46.037 log.txt,37,37
3,1,42.2831,0,730,2058,2857,4205,510,-0.5,200,1,1,43.6176,1,0,736365.369772223,05_02_2016 level23_spatial_Robin 08_51_46.037 log.txt,37,37
4,0,50.1278,0,730,2058,2857,4205,511,-12.5,200,1,0,50.8979,0,4,736365.369863019,05_02_2016 level23_spatial_Robin 08_51_46.037 log.txt,37,37
5,1,56.8887,0,730,2058,2857,4205,511,-12.5,200,1,1,58.0045,1,4,736365.36994127,05_02_2016 level23_spatial_Robin 08_51_46.037 log.txt,37,37
6,0,63.966,0,460,1105,2857,4205,503,2.5,200,0,0,64.7983,1,1,736365.370023183,05_02_2016 level23_spatial_Robin 08_51_46.037 log.txt,37,37
7,0,67.4556,0,730,2058,2857,4205,504,2.5,200,1,1,71.959,1,3,736365.370063572,05_02_2016 level23_spatial_Robin 08_51_46.037 log.txt,37,37
8,0,81.3249,0,460,1105,2857,4205,508,-0.5,200,0,0,81.9201,1,5,736365.370224096,05_02_2016 level23_spatial_Robin 08_51_46.037 log.txt,37,37
9,0,85.0677,1,460,1105,2857,4205,506,-3.5,200,0,0,88.0589,1,4,736365.370267416,05_02_2016 level23_spatial_Robin 08_51_46.037 log.txt,37,37
10,0,92.5008,0,730,2058,2857,4205,507,-9.5,200,1,0,93.8259,0,3,736365.370353447,05_02_2016 level23_spatial_Robin 08_51_46.037 log.txt,37,37
11,1,97.7513,0,730,2058,2857,4205,507,-9.5,200,1,1,99.2013,1,3,736365.370414216,05_02_2016 level23_spatial_Robin 08_51_46.037 log.txt,37,37
12,0,104.9217,1,460,1105,2857,4205,501,2.5,200,0,1,108.8776,0,0,736365.370497207,05_02_2016 level23_spatial_Robin 08_51_46.037 log.txt,37,37
13,1,113.878,0,460,1105,2857,4205,501,2.5,200,0,0,114.7356,1,0,736365.370600868,05_02_2016 level23_spatial_Robin 08_51_46.037 log.txt,37,37
14,0,118.7515,0,460,1105,2857,4205,505,-12.5,200,0,0,119.7793,1,5,736365.370657274,05_02_2016 level23_spatial_Robin 08_51_46.037 log.txt,37,37
15,0,123.6101,0,460,1105,2857,4205,502,-3.5,200,0,0,124.468,1,5,736365.370713508,05_02_2016 level23_spatial_Robin 08_51_46.037 log.txt,37,37
16,0,128.4354,0,730,2058,2857,4205,501,-6.5,200,1,0,129.4799,0,0,736365.370769356,05_02_2016 level23_spatial_Robin 08_51_46.037 log.txt,37,37
17,1,135.3558,1,730,2058,2857,4205,501,-6.5,200,1,0,139.5022,0,0,736365.370849454,05_02_2016 level23_spatial_Robin 08_51_46.037 log.txt,37,37
18,1,143.1557,0,730,2058,2857,4205,501,-6.5,200,1,1,144.3561,1,0,736365.37093973,05_02_2016 level23_spatial_Robin 08_51_46.037 log.txt,37,37
19,0,153.6819,0,460,1105,2857,4205,510,-9.5,200,0,0,154.8388,1,3,736365.371061561,05_02_2016 level23_spatial_Robin 08_51_46.037 log.txt,37,37
20,0,158.3038,0,730,2058,2857,4205,507,-9.5,200,1,1,159.7524,1,5,736365.371115056,05_02_2016 level23_spatial_Robin 08_51_46.037 log.txt,37,37
21,0,171.2913,1,730,2058,2857,4205,511,-0.5,200,1,1,175.7598,1,3,736365.371265374,05_02_2016 level23_spatial_Robin 08_51_46.037 log.txt,37,37
22,0,181.3794,0,730,2058,2857,4205,505,-3.5,200,1,1,182.8943,1,5,736365.371382134,05_02_2016 level23_spatial_Robin 08_51_46.037 log.txt,37,37
23,0,189.2801,0,730,2058,2857,4205,502,-3.5,200,1,0,190.3721,0,2,736365.371473578,05_02_2016 level23_spatial_Robin 08_51_46.037 log.txt,37,37
24,1,194.7958,0,730,2058,2857,4205,502,-3.5,200,1,0,195.7454,0,2,736365.371537417,05_02_2016 level23_spatial_Robin 08_51_46.037 log.txt,37,37
25,1,203.0236,0,730,2058,2857,4205,502,-3.5,200,1,1,204.206,1,2,736365.371632646,05_02_2016 level23_spatial_Robin 08_51_46.037 log.txt,37,37
26,0,216.4498,1,460,1105,2857,4205,504,-3.5,200,0,0,220.6657,1,3,736365.371788042,05_02_2016 level23_spatial_Robin 08_51_46.037 log.txt,37,37
27,0,224.9269,0,730,2058,2857,4205,506,2.5,200,1,1,226.3313,1,5,736365.371886156,05_02_2016 level23_spatial_Robin 08_51_46.037 log.txt,37,37
28,0,236.0755,1,460,1105,2857,4205,509,-3.5,200,0,0,239.9961,1,2,736365.372015191,05_02_2016 level23_spatial_Robin 08_51_46.037 log.txt,37,37
29,0,243.9008,0,730,2058,2857,4205,503,-0.5,200,1,0,245.4819,0,2,736365.372105762,05_02_2016 level23_spatial_Robin 08_51_46.037 log.txt,37,37
30,1,249.2348,0,730,2058,2857,4205,503,-0.5,200,1,1,250.4194,1,2,736365.372167498,05_02_2016 level23_spatial_Robin 08_51_46.037 log.txt,37,37
31,0,261.086,0,730,2058,2857,4205,509,-9.5,200,1,0,262.2747,0,0,736365.372304664,05_02_2016 level23_spatial_Robin 08_51_46.037 log.txt,37,37
32,1,265.9441,0,730,2058,2857,4205,509,-9.5,200,1,1,267.3848,1,0,736365.372360892,05_02_2016 level23_spatial_Robin 08_51_46.037 log.txt,37,37
33,0,278.8241,0,460,1105,2857,4205,504,-6.5,200,0,0,279.727,1,0,736365.372509966,05_02_2016 level23_spatial_Robin 08_51_46.037 log.txt,37,37
34,0,283.6779,0,730,2058,2857,4205,511,2.5,200,1,0,284.6517,0,1,736365.372566145,05_02_2016 level23_spatial_Robin 08_51_46.037 log.txt,37,37
35,1,293.4584,0,730,2058,2857,4205,511,2.5,200,1,0,294.5633,0,1,736365.372679345,05_02_2016 level23_spatial_Robin 08_51_46.037 log.txt,37,37
36,1,300.9935,0,730,2058,2857,4205,511,2.5,200,1,1,302.9101,1,1,736365.372766557,05_02_2016 level23_spatial_Robin 08_51_46.037 log.txt,37,37
37,0,312.7104,0,730,2058,2857,4205,502,-6.5,200,1,0,313.567,0,4,736365.372902169,05_02_2016 level23_spatial_Robin 08_51_46.037 log.txt,37,37
38,1,319.8062,1,730,2058,2857,4205,502,-6.5,200,1,1,323.7406,1,4,736365.372984296,05_02_2016 level23_spatial_Robin 08_51_46.037 log.txt,37,37
39,0,333.5377,0,730,2058,2857,4205,508,-12.5,200,1,0,334.9308,0,2,736365.373143226,05_02_2016 level23_spatial_Robin 08_51_46.037 log.txt,37,37
40,1,339.8079,0,730,2058,2857,4205,508,-12.5,200,1,1,341.0555,1,2,736365.373215797,05_02_2016 level23_spatial_Robin 08_51_46.037 log.txt,37,37
41,0,352.6035,0,460,1105,2857,4205,506,-6.5,200,0,0,353.5643,1,4,736365.373363895,05_02_2016 level23_spatial_Robin 08_51_46.037 log.txt,37,37
42,0,357.2362,0,730,2058,2857,4205,505,-6.5,200,1,0,358.3558,0,5,736365.373417514,05_02_2016 level23_spatial_Robin 08_51_46.037 log.txt,37,37
43,1,362.4709,0,730,2058,2857,4205,505,-6.5,200,1,1,363.6179,1,5,736365.373478101,05_02_2016 level23_spatial_Robin 08_51_46.037 log.txt,37,37
44,0,373.61,0,460,1105,2857,4205,507,-6.5,200,0,0,374.3674,1,5,736365.373607025,05_02_2016 level23_spatial_Robin 08_51_46.037 log.txt,37,37
45,0,378.3305,0,460,1105,2857,4205,501,2.5,200,0,0,379.2353,1,4,736365.373661661,05_02_2016 level23_spatial_Robin 08_51_46.037 log.txt,37,37
46,0,383.6059,1,460,1105,2857,4205,503,2.5,200,0,0,386.6148,1,5,736365.373722719,05_02_2016 level23_spatial_Robin 08_51_46.037 log.txt,37,37
47,0,390.1256,1,730,2058,2857,4205,503,-0.5,200,1,1,394.3261,1,1,736365.373798178,05_02_2016 level23_spatial_Robin 08_51_46.037 log.txt,37,37
48,0,402.925,1,730,2058,2857,4205,502,-3.5,200,1,1,408.0278,1,3,736365.373946319,05_02_2016 level23_spatial_Robin 08_51_46.037 log.txt,37,37
49,0,414.0028,0,730,2058,2857,4205,507,-12.5,200,1,0,415.19,0,1,736365.374074535,05_02_2016 level23_spatial_Robin 08_51_46.037 log.txt,37,37
50,1,421.1069,0,730,2058,2857,4205,507,-12.5,200,1,1,422.6862,1,1,736365.374156758,05_02_2016 level23_spatial_Robin 08_51_46.037 log.txt,37,37
51,0,427.9646,0,460,1105,2857,4205,504,-9.5,200,0,0,429.2275,1,2,736365.37423613,05_02_2016 level23_spatial_Robin 08_51_46.037 log.txt,37,37
52,0,433.0221,1,730,2058,2857,4205,511,-0.5,200,1,0,436.7066,0,5,736365.374294666,05_02_2016 level23_spatial_Robin 08_51_46.037 log.txt,37,37
53,1,441.6342,1,730,2058,2857,4205,511,-0.5,200,1,1,446.191,1,5,736365.374394343,05_02_2016 level23_spatial_Robin 08_51_46.037 log.txt,37,37
54,0,451.8127,0,460,1105,2857,4205,505,-9.5,200,0,1,453.2072,0,1,736365.374512149,05_02_2016 level23_spatial_Robin 08_51_46.037 log.txt,37,37
55,1,460.7124,0,460,1105,2857,4205,505,-9.5,200,0,0,461.8634,1,1,736365.374615155,05_02_2016 level23_spatial_Robin 08_51_46.037 log.txt,37,37
56,0,465.3763,0,460,1105,2857,4205,506,-0.5,200,0,1,466.8439,0,3,736365.374669135,05_02_2016 level23_spatial_Robin 08_51_46.037 log.txt,37,37
57,1,473.6998,0,460,1105,2857,4205,506,-0.5,200,0,0,474.8025,1,3,736365.374765472,05_02_2016 level23_spatial_Robin 08_51_46.037 log.txt,37,37
58,0,478.4207,0,460,1105,2857,4205,508,-3.5,200,0,1,479.8749,0,1,736365.374820112,05_02_2016 level23_spatial_Robin 08_51_46.037 log.txt,37,37
59,1,483.521,0,460,1105,2857,4205,508,-3.5,200,0,0,484.5735,1,1,736365.374879144,05_02_2016 level23_spatial_Robin 08_51_46.037 log.txt,37,37
60,0,488.2143,0,730,2058,2857,4205,501,-3.5,200,1,1,489.5893,1,1,736365.374933464,05_02_2016 level23_spatial_Robin 08_51_46.037 log.txt,37,37
61,0,495.5989,1,730,2058,2857,4205,510,-12.5,200,1,1,499.8508,1,5,736365.375018934,05_02_2016 level23_spatial_Robin 08_51_46.037 log.txt,37,37
62,0,505.6339,0,730,2058,2857,4205,510,2.5,200,1,1,507.0028,1,2,736365.37513508,05_02_2016 level23_spatial_Robin 08_51_46.037 log.txt,37,37
63,0,511.2002,0,460,1105,2857,4205,509,-6.5,200,0,0,512.4077,1,2,736365.375199505,05_02_2016 level23_spatial_Robin 08_51_46.037 log.txt,37,37
64,0,515.4855,0,460,1105,2857,4205,503,2.5,200,0,1,517.3371,0,2,736365.375249103,05_02_2016 level23_spatial_Robin 08_51_46.037 log.txt,37,37
65,1,523.6474,1,460,1105,2857,4205,503,2.5,200,0,0,527.3713,1,2,736365.375343569,05_02_2016 level23_spatial_Robin 08_51_46.037 log.txt,37,37
66,0,530.8844,1,730,2058,2857,4205,511,-6.5,200,1,1,535.4211,1,1,736365.375427331,05_02_2016 level23_spatial_Robin 08_51_46.037 log.txt,37,37
67,0,540.6327,0,730,2058,2857,4205,506,-12.5,200,1,1,542.0231,1,0,736365.375540159,05_02_2016 level23_spatial_Robin 08_51_46.037 log.txt,37,37
68,0,546.4883,1,460,1105,2857,4205,508,-9.5,200,0,0,550.3888,1,0,736365.375607932,05_02_2016 level23_spatial_Robin 08_51_46.037 log.txt,37,37
69,0,553.5044,0,460,1105,2857,4205,507,-6.5,200,0,1,555.1618,0,1,736365.375689137,05_02_2016 level23_spatial_Robin 08_51_46.037 log.txt,37,37
70,1,563.0038,0,460,1105,2857,4205,507,-6.5,200,0,0,564.0769,1,1,736365.375799083,05_02_2016 level23_spatial_Robin 08_51_46.037 log.txt,37,37
71,0,567.1489,0,460,1105,2857,4205,504,-0.5,200,0,0,568.2872,1,4,736365.375847059,05_02_2016 level23_spatial_Robin 08_51_46.037 log.txt,37,37
72,0,571.6283,0,730,2058,2857,4205,502,-0.5,200,1,1,573.1576,1,4,736365.375898904,05_02_2016 level23_spatial_Robin 08_51_46.037 log.txt,37,37
73,0,576.9269,0,460,1105,2857,4205,505,-6.5,200,0,1,578.1251,0,3,736365.37596023,05_02_2016 level23_spatial_Robin 08_51_46.037 log.txt,37,37
74,1,586.3645,0,460,1105,2857,4205,505,-6.5,200,0,0,587.2963,1,3,736365.376069462,05_02_2016 level23_spatial_Robin 08_51_46.037 log.txt,37,37
75,0,591.1683,0,460,1105,2857,4205,507,-12.5,200,0,0,592.4214,1,3,736365.376125061,05_02_2016 level23_spatial_Robin 08_51_46.037 log.txt,37,37
76,0,595.8696,0,460,1105,2857,4205,508,-0.5,200,0,1,597.3313,0,0,736365.376179475,05_02_2016 level23_spatial_Robin 08_51_46.037 log.txt,37,37
77,1,602.7572,1,460,1105,2857,4205,508,-0.5,200,0,0,607.2187,1,0,736365.376259192,05_02_2016 level23_spatial_Robin 08_51_46.037 log.txt,37,37
78,0,610.4837,0,730,2058,2857,4205,511,-9.5,200,1,1,612.1343,1,2,736365.376348619,05_02_2016 level23_spatial_Robin 08_51_46.037 log.txt,37,37
79,0,616.4549,0,460,1105,2857,4205,505,-12.5,200,0,1,617.9365,0,0,736365.37641773,05_02_2016 level23_spatial_Robin 08_51_46.037 log.txt,37,37
80,1,625.7834,0,460,1105,2857,4205,505,-12.5,200,0,0,626.8007,1,0,736365.376525699,05_02_2016 level23_spatial_Robin 08_51_46.037 log.txt,37,37
81,0,629.9748,1,460,1105,2857,4205,501,-0.5,200,0,0,633.1628,1,1,736365.376574211,05_02_2016 level23_spatial_Robin 08_51_46.037 log.txt,37,37
82,0,636.5524,1,730,2058,2857,4205,503,2.5,200,1,1,640.8664,1,4,736365.37665034,05_02_2016 level23_spatial_Robin 08_51_46.037 log.txt,37,37
83,0,645.3046,1,730,2058,2857,4205,506,2.5,200,1,1,649.7372,1,0,736365.376751639,05_02_2016 level23_spatial_Robin 08_51_46.037 log.txt,37,37
84,0,654.0632,0,730,2058,2857,4205,509,-6.5,200,1,0,655.5338,0,2,736365.376853012,05_02_2016 level23_spatial_Robin 08_51_46.037 log.txt,37,37
85,1,662.7714,0,730,2058,2857,4205,509,-6.5,200,1,1,663.8808,1,2,736365.376953801,05_02_2016 level23_spatial_Robin 08_51_46.037 log.txt,37,37
86,0,668.2293,1,730,2058,2857,4205,504,-3.5,200,1,1,672.6771,1,0,736365.377016971,05_02_2016 level23_spatial_Robin 08_51_46.037 log.txt,37,37
87,0,677.098,0,730,2058,2857,4205,510,-9.5,200,1,1,678.6032,1,4,736365.377119618,05_02_2016 level23_spatial_Robin 08_51_46.037 log.txt,37,37
88,0,685.1799,0,460,1105,2857,4205,509,-12.5,200,0,0,686.3265,1,4,736365.377213159,05_02_2016 level23_spatial_Robin 08_51_46.037 log.txt,37,37
89,0,689.5813,0,460,1105,2857,4205,506,-3.5,200,0,0,690.6113,1,0,736365.377264101,05_02_2016 level23_spatial_Robin 08_51_46.037 log.txt,37,37
90,0,694.2405,0,730,2058,2857,4205,507,-3.5,200,1,1,695.4331,1,4,736365.377318027,05_02_2016 level23_spatial_Robin 08_51_46.037 log.txt,37,37
91,0,700.0306,0,730,2058,2857,4205,501,-9.5,200,1,1,701.1864,1,1,736365.377385042,05_02_2016 level23_spatial_Robin 08_51_46.037 log.txt,37,37
92,0,705.2228,0,460,1105,2857,4205,504,-9.5,200,0,0,706.3912,1,5,736365.377445137,05_02_2016 level23_spatial_Robin 08_51_46.037 log.txt,37,37
93,0,709.4737,0,460,1105,2857,4205,505,-12.5,200,0,0,710.5909,1,1,736365.377494337,05_02_2016 level23_spatial_Robin 08_51_46.037 log.txt,37,37
94,0,714.5927,0,730,2058,2857,4205,503,-12.5,200,1,1,716.0961,1,3,736365.377553585,05_02_2016 level23_spatial_Robin 08_51_46.037 log.txt,37,37
95,0,724.3167,0,460,1105,2857,4205,508,-12.5,200,0,0,726.0371,1,2,736365.377666131,05_02_2016 level23_spatial_Robin 08_51_46.037 log.txt,37,37
96,0,729.3463,0,460,1105,2857,4205,502,-9.5,200,0,0,730.5718,1,4,736365.377724344,05_02_2016 level23_spatial_Robin 08_51_46.037 log.txt,37,37
97,0,733.8921,0,460,1105,2857,4205,511,-0.5,200,0,1,735.3598,0,2,736365.377776957,05_02_2016 level23_spatial_Robin 08_51_46.037 log.txt,37,37
98,1,749.3268,0,460,1105,2857,4205,511,-0.5,200,0,0,750.0151,1,2,736365.3779556,05_02_2016 level23_spatial_Robin 08_51_46.037 log.txt,37,37
99,0,754.6402,1,460,1105,2857,4205,508,2.5,200,0,1,758.3276,0,3,736365.378017097,05_02_2016 level23_spatial_Robin 08_51_46.037 log.txt,37,37
100,1,787.198,0,460,1105,2857,4205,508,2.5,200,0,0,788.562,1,3,736365.378393924,05_02_2016 level23_spatial_Robin 08_51_46.037 log.txt,37,37
1,0,1.8175,0,460,1105,2857,4205,511,-3.5,200,0,0,2.6372,1,4,736365.597628096,05_02_2016 level23_spatial_Robin 14_20_33.250 log.txt,37,37
2,0,7.8234,0,460,1105,2857,4205,502,-6.5,200,0,0,8.776,1,5,736365.597697609,05_02_2016 level23_spatial_Robin 14_20_33.250 log.txt,37,37
3,0,13.2597,0,730,2058,2857,4205,506,-6.5,200,1,0,14.2454,0,1,736365.597760529,05_02_2016 level23_spatial_Robin 14_20_33.250 log.txt,37,37
4,1,19.1518,0,730,2058,2857,4205,506,-6.5,200,1,1,20.7226,1,1,736365.597828725,05_02_2016 level23_spatial_Robin 14_20_33.250 log.txt,37,37
5,0,31.757,0,730,2058,2857,4205,509,-0.5,200,1,0,32.7864,0,2,736365.597974618,05_02_2016 level23_spatial_Robin 14_20_33.250 log.txt,37,37
6,1,38.483,0,730,2058,2857,4205,509,-0.5,200,1,1,43.0806,1,2,736365.598052465,05_02_2016 level23_spatial_Robin 14_20_33.250 log.txt,37,37
7,0,54.4445,0,730,2058,2857,4205,507,-0.5,200,1,1,55.8721,1,4,736365.598237205,05_02_2016 level23_spatial_Robin 14_20_33.250 log.txt,37,37
8,0,67.7991,1,460,1105,2857,4205,510,-12.5,200,0,0,71.1551,1,0,736365.598391772,05_02_2016 level23_spatial_Robin 14_20_33.250 log.txt,37,37
9,0,75.339,0,730,2058,2857,4205,503,2.5,200,1,1,76.9047,1,1,736365.598479039,05_02_2016 level23_spatial_Robin 14_20_33.250 log.txt,37,37
10,0,87.2145,0,460,1105,2857,4205,508,2.5,200,0,0,88.3902,1,4,736365.598616487,05_02_2016 level23_spatial_Robin 14_20_33.250 log.txt,37,37
11,0,92.5479,0,460,1105,2857,4205,505,-12.5,200,0,0,93.6703,1,1,736365.598678216,05_02_2016 level23_spatial_Robin 14_20_33.250 log.txt,37,37
12,0,98.0348,0,460,1105,2857,4205,501,-0.5,200,0,0,98.9525,1,1,736365.598741722,05_02_2016 level23_spatial_Robin 14_20_33.250 log.txt,37,37
13,0,103.3475,0,460,1105,2857,4205,502,-12.5,200,0,0,104.5204,1,5,736365.598803212,05_02_2016 level23_spatial_Robin 14_20_33.250 log.txt,37,37
14,0,108.6905,1,460,1105,2857,4205,508,-0.5,200,0,0,111.8513,1,5,736365.598865052,05_02_2016 level23_spatial_Robin 14_20_33.250 log.txt,37,37
15,0,116.1068,1,730,2058,2857,4205,510,-9.5,200,1,0,120.8307,0,3,736365.598950889,05_02_2016 level23_spatial_Robin 14_20_33.250 log.txt,37,37
16,1,126.5285,0,730,2058,2857,4205,510,-9.5,200,1,1,133.2484,1,3,736365.59907151,05_02_2016 level23_spatial_Robin 14_20_33.250 log.txt,37,37
17,0,145.9786,0,730,2058,2857,4205,511,-3.5,200,1,0,147.1847,0,0,736365.599296627,05_02_2016 level23_spatial_Robin 14_20_33.250 log.txt,37,37
18,1,152.2167,0,730,2058,2857,4205,511,-3.5,200,1,0,156.4391,0,0,736365.599368828,05_02_2016 level23_spatial_Robin 14_20_33.250 log.txt,37,37
19,1,161.7122,0,730,2058,2857,4205,511,-3.5,200,1,0,162.8002,0,0,736365.599478729,05_02_2016 level23_spatial_Robin 14_20_33.250 log.txt,37,37
20,1,166.931,0,730,2058,2857,4205,511,-3.5,200,1,1,168.3446,1,0,736365.599539132,05_02_2016 level23_spatial_Robin 14_20_33.250 log.txt,37,37
21,0,179.1779,0,730,2058,2857,4205,509,-6.5,200,1,1,180.6327,1,0,736365.599680878,05_02_2016 level23_spatial_Robin 14_20_33.250 log.txt,37,37
22,0,192.1979,0,460,1105,2857,4205,506,-6.5,200,0,0,193.1286,1,1,736365.599831573,05_02_2016 level23_spatial_Robin 14_20_33.250 log.txt,37,37
23,0,197.1343,1,730,2058,2857,4205,507,-9.5,200,1,0,200.5798,0,5,736365.599888707,05_02_2016 level23_spatial_Robin 14_20_33.250 log.txt,37,37
24,1,206.0314,0,730,2058,2857,4205,507,-9.5,200,1,1,207.539,1,5,736365.599991683,05_02_2016 level23_spatial_Robin 14_20_33.250 log.txt,37,37
25,0,218.0156,0,460,1105,2857,4205,503,2.5,200,0,0,219.1133,1,3,736365.600130389,05_02_2016 level23_spatial_Robin 14_20_33.250 log.txt,37,37
26,0,223.9502,0,730,2058,2857,4205,504,-9.5,200,1,0,224.9931,0,4,736365.600199076,05_02_2016 level23_spatial_Robin 14_20_33.250 log.txt,37,37
27,1,230.3892,0,730,2058,2857,4205,504,-9.5,200,1,1,231.7536,1,4,736365.600273602,05_02_2016 level23_spatial_Robin 14_20_33.250 log.txt,37,37
28,0,243.778,1,730,2058,2857,4205,505,-12.5,200,1,0,247.9154,0,3,736365.600428565,05_02_2016 level23_spatial_Robin 14_20_33.250 log.txt,37,37
29,1,253.6345,0,730,2058,2857,4205,505,-12.5,200,1,0,254.8629,0,3,736365.600542645,05_02_2016 level23_spatial_Robin 14_20_33.250 log.txt,37,37
30,1,259.6734,0,730,2058,2857,4205,505,-12.5,200,1,1,260.7826,1,3,736365.600612539,05_02_2016 level23_spatial_Robin 14_20_33.250 log.txt,37,37
31,0,274.4012,1,730,2058,2857,4205,505,-9.5,200,1,0,279.1059,0,2,736365.600783,05_02_2016 level23_spatial_Robin 14_20_33.250 log.txt,37,37
32,1,286.4269,1,730,2058,2857,4205,505,-9.5,200,1,1,292.078,1,2,736365.600922186,05_02_2016 level23_spatial_Robin 14_20_33.250 log.txt,37,37
33,0,302.414,0,460,1105,2857,4205,508,2.5,200,0,0,303.5773,1,5,736365.601107222,05_02_2016 level23_spatial_Robin 14_20_33.250 log.txt,37,37
34,0,307.3608,1,730,2058,2857,4205,503,2.5,200,1,1,312.4952,1,5,736365.601164477,05_02_2016 level23_spatial_Robin 14_20_33.250 log.txt,37,37
35,0,319.7183,0,460,1105,2857,4205,507,-3.5,200,0,0,321.0314,1,1,736365.601307504,05_02_2016 level23_spatial_Robin 14_20_33.250 log.txt,37,37
36,0,325.194,0,460,1105,2857,4205,504,-6.5,200,0,1,327.3186,0,0,736365.60137088,05_02_2016 level23_spatial_Robin 14_20_33.250 log.txt,37,37
37,1,332.7783,0,460,1105,2857,4205,504,-6.5,200,0,0,334.0013,1,0,736365.601458661,05_02_2016 level23_spatial_Robin 14_20_33.250 log.txt,37,37
38,0,338.6245,0,730,2058,2857,4205,509,-0.5,200,1,0,339.7863,0,3,736365.601526325,05_02_2016 level23_spatial_Robin 14_20_33.250 log.txt,37,37
39,1,344.5413,0,730,2058,2857,4205,509,-0.5,200,1,0,345.5379,0,3,736365.601594807,05_02_2016 level23_spatial_Robin 14_20_33.250 log.txt,37,37
40,1,355.9247,0,730,2058,2857,4205,509,-0.5,200,1,1,357.6361,1,3,736365.601726559,05_02_2016 level23_spatial_Robin 14_20_33.250 log.txt,37,37
41,0,369.4619,0,730,2058,2857,4205,501,-3.5,200,1,0,370.4957,0,3,736365.60188324,05_02_2016 level23_spatial_Robin 14_20_33.250 log.txt,37,37
42,1,374.8875,0,730,2058,2857,4205,501,-3.5,200,1,0,376.0018,0,3,736365.601946036,05_02_2016 level23_spatial_Robin 14_20_33.250 log.txt,37,37
43,1,380.4506,0,730,2058,2857,4205,501,-3.5,200,1,1,382.0231,1,3,736365.602010424,05_02_2016 level23_spatial_Robin 14_20_33.250 log.txt,37,37
44,0,393.785,0,460,1105,2857,4205,506,-9.5,200,0,0,394.7188,1,1,736365.602164757,05_02_2016 level23_spatial_Robin 14_20_33.250 log.txt,37,37
45,0,399.039,0,730,2058,2857,4205,510,-6.5,200,1,0,400.2026,0,2,736365.602225567,05_02_2016 level23_spatial_Robin 14_20_33.250 log.txt,37,37
46,1,405.3402,0,730,2058,2857,4205,510,-6.5,200,1,1,406.9215,1,2,736365.602298498,05_02_2016 level23_spatial_Robin 14_20_33.250 log.txt,37,37
47,0,416.8653,0,460,1105,2857,4205,511,-12.5,200,0,0,418.0056,1,2,736365.60243189,05_02_2016 level23_spatial_Robin 14_20_33.250 log.txt,37,37
48,0,422.0629,0,460,1105,2857,4205,507,-9.5,200,0,1,423.6481,0,2,736365.602492047,05_02_2016 level23_spatial_Robin 14_20_33.250 log.txt,37,37
49,1,430.0596,0,460,1105,2857,4205,507,-9.5,200,0,0,430.9928,1,2,736365.602584602,05_02_2016 level23_spatial_Robin 14_20_33.250 log.txt,37,37
50,0,436.134,1,460,1105,2857,4205,511,-3.5,200,0,0,439.176,1,5,736365.602654907,05_02_2016 level23_spatial_Robin 14_20_33.250 log.txt,37,37
51,0,443.1575,1,460,1105,2857,4205,510,-6.5,200,0,0,447.7106,1,4,736365.602736198,05_02_2016 level23_spatial_Robin 14_20_33.250 log.txt,37,37
52,0,451.5598,0,730,2058,2857,4205,505,2.5,200,1,0,460.2656,0,2,736365.602833447,05_02_2016 level23_spatial_Robin 14_20_33.250 log.txt,37,37
53,1,467.2965,0,730,2058,2857,4205,505,2.5,200,1,1,468.8841,1,2,736365.603015585,05_02_2016 level23_spatial_Robin 14_20_33.250 log.txt,37,37
54,0,478.4522,0,460,1105,2857,4205,509,-9.5,200,0,0,479.4572,1,5,736365.603144701,05_02_2016 level23_spatial_Robin 14_20_33.250 log.txt,37,37
55,0,483.2618,0,460,1105,2857,4205,501,-0.5,200,0,0,484.2832,1,2,736365.603200368,05_02_2016 level23_spatial_Robin 14_20_33.250 log.txt,37,37
56,0,488.204,0,730,2058,2857,4205,508,-9.5,200,1,1,489.7172,1,0,736365.603257569,05_02_2016 level23_spatial_Robin 14_20_33.250 log.txt,37,37
57,0,497.925,0,730,2058,2857,4205,503,-3.5,200,1,1,499.1396,1,1,736365.603370081,05_02_2016 level23_spatial_Robin 14_20_33.250 log.txt,37,37
58,0,504.6428,0,730,2058,2857,4205,504,-0.5,200,1,1,507.4806,1,5,736365.603447833,05_02_2016 level23_spatial_Robin 14_20_33.250 log.txt,37,37
59,0,512.6396,0,460,1105,2857,4205,506,-9.5,200,0,0,513.8178,1,3,736365.603540389,05_02_2016 level23_spatial_Robin 14_20_33.250 log.txt,37,37
60,0,517.2598,0,730,2058,2857,4205,509,-12.5,200,1,1,518.861,1,0,736365.603593863,05_02_2016 level23_spatial_Robin 14_20_33.250 log.txt,37,37
61,0,525.1767,0,460,1105,2857,4205,502,-3.5,200,0,1,526.622,0,0,736365.603685494,05_02_2016 level23_spatial_Robin 14_20_33.250 log.txt,37,37
62,1,532.7136,0,460,1105,2857,4205,502,-3.5,200,0,0,533.9166,1,0,736365.603772727,05_02_2016 level23_spatial_Robin 14_20_33.250 log.txt,37,37
63,0,538.3074,0,730,2058,2857,4205,508,2.5,200,1,1,539.7978,1,4,736365.60383747,05_02_2016 level23_spatial_Robin 14_20_33.250 log.txt,37,37
64,0,544.9044,0,460,1105,2857,4205,506,-6.5,200,0,1,546.5772,0,3,736365.603913824,05_02_2016 level23_spatial_Robin 14_20_33.250 log.txt,37,37
65,1,555.1989,0,460,1105,2857,4205,506,-6.5,200,0,0,556.0067,1,3,736365.604032973,05_02_2016 level23_spatial_Robin 14_20_33.250 log.txt,37,37
66,0,560.0908,0,730,2058,2857,4205,510,-12.5,200,1,1,561.7459,1,1,736365.604089593,05_02_2016 level23_spatial_Robin 14_20_33.250 log.txt,37,37
67,0,566.2725,0,460,1105,2857,4205,505,-0.5,200,0,1,567.5884,0,0,736365.60416114,05_02_2016 level23_spatial_Robin 14_20_33.250 log.txt,37,37
68,1,574.1398,0,460,1105,2857,4205,505,-0.5,200,0,0,574.9072,1,0,736365.604252197,05_02_2016 level23_spatial_Robin 14_20_33.250 log.txt,37,37
69,0,578.7455,0,460,1105,2857,4205,507,-3.5,200,0,0,579.873,1,2,736365.604305504,05_02_2016 level23_spatial_Robin 14_20_33.250 log.txt,37,37
70,0,584.347,0,730,2058,2857,4205,504,-12.5,200,1,0,592.9532,0,2,736365.604370336,05_02_2016 level23_spatial_Robin 14_20_33.250 log.txt,37,37
71,1,596.9418,1,730,2058,2857,4205,504,-12.5,200,1,0,599.9584,0,2,736365.604516109,05_02_2016 level23_spatial_Robin 14_20_33.250 log.txt,37,37
72,1,606.1973,0,730,2058,2857,4205,504,-12.5,200,1,1,607.7474,1,2,736365.604623233,05_02_2016 level23_spatial_Robin 14_20_33.250 log.txt,37,37
73,0,612.3859,0,730,2058,2857,4205,511,-3.5,200,1,1,613.9373,1,4,736365.60469486,05_02_2016 level23_spatial_Robin 14_20_33.250 log.txt,37,37
74,0,618.5184,1,460,1105,2857,4205,501,-0.5,200,0,1,622.7332,0,3,736365.604765838,05_02_2016 level23_spatial_Robin 14_20_33.250 log.txt,37,37
75,1,631.4132,1,460,1105,2857,4205,501,-0.5,200,0,0,635.0481,1,3,736365.604915083,05_02_2016 level23_spatial_Robin 14_20_33.250 log.txt,37,37
76,0,639.2341,0,730,2058,2857,4205,509,-6.5,200,1,0,640.6631,0,5,736365.605005603,05_02_2016 level23_spatial_Robin 14_20_33.250 log.txt,37,37
77,1,645.4301,0,730,2058,2857,4205,509,-6.5,200,1,0,646.5003,0,5,736365.605077316,05_02_2016 level23_spatial_Robin 14_20_33.250 log.txt,37,37
78,1,651.0117,0,730,2058,2857,4205,509,-6.5,200,1,0,655.5304,0,5,736365.605141918,05_02_2016 level23_spatial_Robin 14_20_33.250 log.txt,37,37
79,1,660.736,0,730,2058,2857,4205,509,-6.5,200,1,0,666.0354,0,5,736365.605254468,05_02_2016 level23_spatial_Robin 14_20_33.250 log.txt,37,37
80,1,677.5634,0,730,2058,2857,4205,509,-6.5,200,1,0,683.2957,0,5,736365.605449229,05_02_2016 level23_spatial_Robin 14_20_33.250 log.txt,37,37
81,1,689.9972,0,730,2058,2857,4205,509,-6.5,200,1,0,693.1123,0,5,736365.605593139,05_02_2016 level23_spatial_Robin 14_20_33.250 log.txt,37,37
82,1,699.2993,0,730,2058,2857,4205,509,-6.5,200,1,1,705.422,1,5,736365.605700802,05_02_2016 level23_spatial_Robin 14_20_33.250 log.txt,37,37
83,0,710.5179,0,460,1105,2857,4205,504,-6.5,200,0,1,712.0572,0,2,736365.605830647,05_02_2016 level23_spatial_Robin 14_20_33.250 log.txt,37,37
84,1,721.1654,0,460,1105,2857,4205,504,-6.5,200,0,0,722.309,1,2,736365.605953882,05_02_2016 level23_spatial_Robin 14_20_33.250 log.txt,37,37
85,0,726.731,0,730,2058,2857,4205,506,-6.5,200,1,0,727.6967,0,3,736365.606018299,05_02_2016 level23_spatial_Robin 14_20_33.250 log.txt,37,37
86,1,734.3022,0,730,2058,2857,4205,506,-6.5,200,1,1,735.7979,1,3,736365.606105928,05_02_2016 level23_spatial_Robin 14_20_33.250 log.txt,37,37
87,0,740.3046,0,730,2058,2857,4205,508,-6.5,200,1,0,741.3557,0,4,736365.606175401,05_02_2016 level23_spatial_Robin 14_20_33.250 log.txt,37,37
88,1,749.0988,0,730,2058,2857,4205,508,-6.5,200,1,0,750.006,0,4,736365.606277185,05_02_2016 level23_spatial_Robin 14_20_33.250 log.txt,37,37
89,1,754.4972,0,730,2058,2857,4205,508,-6.5,200,1,0,755.5467,0,4,736365.606339667,05_02_2016 level23_spatial_Robin 14_20_33.250 log.txt,37,37
90,1,760.5811,0,730,2058,2857,4205,508,-6.5,200,1,1,762.9472,1,4,736365.606410082,05_02_2016 level23_spatial_Robin 14_20_33.250 log.txt,37,37
91,0,767.6093,0,730,2058,2857,4205,503,2.5,200,1,1,769.1868,1,0,736365.606491427,05_02_2016 level23_spatial_Robin 14_20_33.250 log.txt,37,37
92,0,773.8267,0,730,2058,2857,4205,511,2.5,200,1,0,775.1859,0,3,736365.606563388,05_02_2016 level23_spatial_Robin 14_20_33.250 log.txt,37,37
93,1,778.9387,0,730,2058,2857,4205,511,2.5,200,1,0,779.9262,0,3,736365.606622554,05_02_2016 level23_spatial_Robin 14_20_33.250 log.txt,37,37
94,1,784.1948,1,730,2058,2857,4205,511,2.5,200,1,1,788.8903,1,3,736365.606683389,05_02_2016 level23_spatial_Robin 14_20_33.250 log.txt,37,37
95,0,794.784,0,460,1105,2857,4205,507,-12.5,200,0,0,795.8734,1,3,736365.606805949,05_02_2016 level23_spatial_Robin 14_20_33.250 log.txt,37,37
96,0,799.3559,0,460,1105,2857,4205,502,-9.5,200,0,0,800.3981,1,4,736365.606858865,05_02_2016 level23_spatial_Robin 14_20_33.250 log.txt,37,37
97,0,804.1138,0,730,2058,2857,4205,501,-12.5,200,1,0,805.2426,0,4,736365.606913933,05_02_2016 level23_spatial_Robin 14_20_33.250 log.txt,37,37
98,1,811.5034,1,730,2058,2857,4205,501,-12.5,200,1,0,815.705,0,4,736365.606999461,05_02_2016 level23_spatial_Robin 14_20_33.250 log.txt,37,37
1,0,32.0979,0,460,1105,2857,4205,504,2.5,200,0,0,41.5717,1,0,736337.612659258,08_01_2016 level23_spatial_Robin 14_41_41.662 log.txt,37,37
2,0,55.2828,0,460,1105,2857,4205,505,-6.5,200,0,0,58.9619,1,4,736337.612927602,08_01_2016 level23_spatial_Robin 14_41_41.662 log.txt,37,37
3,0,67.5962,1,460,1105,2857,4205,509,-6.5,200,0,1,74.3097,0,2,736337.613070118,08_01_2016 level23_spatial_Robin 14_41_41.662 log.txt,37,37
4,1,78.0482,1,460,1105,2857,4205,509,-6.5,200,0,0,79.7611,1,2,736337.61319109,08_01_2016 level23_spatial_Robin 14_41_41.662 log.txt,37,37
5,0,86.4332,1,730,2058,2857,4205,510,-3.5,200,1,1,94.2308,1,3,736337.613288139,08_01_2016 level23_spatial_Robin 14_41_41.662 log.txt,37,37
6,0,103.3422,1,730,2058,2857,4205,501,-3.5,200,1,0,110.561,0,1,736337.613483845,08_01_2016 level23_spatial_Robin 14_41_41.662 log.txt,37,37
7,1,117.0622,0,730,2058,2857,4205,501,-3.5,200,1,0,120.975,0,1,736337.613642641,08_01_2016 level23_spatial_Robin 14_41_41.662 log.txt,37,37
8,1,132.918,1,730,2058,2857,4205,501,-3.5,200,1,1,138.7648,1,1,736337.613826157,08_01_2016 level23_spatial_Robin 14_41_41.662 log.txt,37,37
9,0,149.9272,0,730,2058,2857,4205,506,-6.5,200,1,0,153.958,0,3,736337.614023023,08_01_2016 level23_spatial_Robin 14_41_41.662 log.txt,37,37
10,1,162.6424,1,730,2058,2857,4205,506,-6.5,200,1,1,169.6317,1,3,736337.61417019,08_01_2016 level23_spatial_Robin 14_41_41.662 log.txt,37,37
11,0,181.3602,0,730,2058,2857,4205,503,-0.5,200,1,0,182.5797,0,5,736337.614386831,08_01_2016 level23_spatial_Robin 14_41_41.662 log.txt,37,37
12,1,189.5806,0,730,2058,2857,4205,503,-0.5,200,1,1,192.8167,1,5,736337.614481975,08_01_2016 level23_spatial_Robin 14_41_41.662 log.txt,37,37
13,0,202.6204,0,460,1105,2857,4205,511,-3.5,200,0,0,204.7846,1,5,736337.614632898,08_01_2016 level23_spatial_Robin 14_41_41.662 log.txt,37,37
14,0,210.4512,0,730,2058,2857,4205,507,2.5,200,1,0,213.6794,0,5,736337.614723532,08_01_2016 level23_spatial_Robin 14_41_41.662 log.txt,37,37
15,1,219.4427,1,730,2058,2857,4205,507,2.5,200,1,1,225.7086,1,5,736337.614827601,08_01_2016 level23_spatial_Robin 14_41_41.662 log.txt,37,37
16,0,236.0845,0,730,2058,2857,4205,502,-9.5,200,1,0,239.2895,0,4,736337.615020214,08_01_2016 level23_spatial_Robin 14_41_41.662 log.txt,37,37
17,1,245.8544,1,730,2058,2857,4205,502,-9.5,200,1,1,253.4904,1,4,736337.615133292,08_01_2016 level23_spatial_Robin 14_41_41.662 log.txt,37,37
18,0,263.5974,0,460,1105,2857,4205,501,-12.5,200,0,0,267.5253,1,0,736337.615338651,08_01_2016 level23_spatial_Robin 14_41_41.662 log.txt,37,37
19,0,272.0736,1,460,1105,2857,4205,510,-9.5,200,0,0,278.03,1,3,736337.615436755,08_01_2016 level23_spatial_Robin 14_41_41.662 log.txt,37,37
20,0,282.335,0,460,1105,2857,4205,511,-3.5,200,0,1,285.7171,0,0,736337.615555521,08_01_2016 level23_spatial_Robin 14_41_41.662 log.txt,37,37
21,1,289.9538,1,460,1105,2857,4205,511,-3.5,200,0,1,295.7519,0,0,736337.615643701,08_01_2016 level23_spatial_Robin 14_41_41.662 log.txt,37,37
22,1,299.8912,0,460,1105,2857,4205,511,-3.5,200,0,0,302.6982,1,0,736337.615758718,08_01_2016 level23_spatial_Robin 14_41_41.662 log.txt,37,37
23,0,309.8623,1,730,2058,2857,4205,509,-12.5,200,1,0,315.9087,0,2,736337.615874124,08_01_2016 level23_spatial_Robin 14_41_41.662 log.txt,37,37
24,1,321.197,0,730,2058,2857,4205,509,-12.5,200,1,1,324.2768,1,2,736337.616005313,08_01_2016 level23_spatial_Robin 14_41_41.662 log.txt,37,37
25,0,329.9892,1,730,2058,2857,4205,508,-0.5,200,1,0,336.1802,0,1,736337.616107074,08_01_2016 level23_spatial_Robin 14_41_41.662 log.txt,37,37
26,1,342.3461,0,730,2058,2857,4205,508,-0.5,200,1,0,344.6124,0,1,736337.616250094,08_01_2016 level23_spatial_Robin 14_41_41.662 log.txt,37,37
27,1,348.5405,1,730,2058,2857,4205,508,-0.5,200,1,0,354.9656,0,1,736337.616321788,08_01_2016 level23_spatial_Robin 14_41_41.662 log.txt,37,37
28,1,358.6585,1,730,2058,2857,4205,508,-0.5,200,1,1,365.7403,1,1,736337.616438895,08_01_2016 level23_spatial_Robin 14_41_41.662 log.txt,37,37
29,0,373.0318,1,460,1105,2857,4205,507,-9.5,200,0,0,379.9946,1,5,736337.616605252,08_01_2016 level23_spatial_Robin 14_41_41.662 log.txt,37,37
30,0,384.5682,1,730,2058,2857,4205,504,-9.5,200,1,1,395.5938,1,5,736337.616738776,08_01_2016 level23_spatial_Robin 14_41_41.662 log.txt,37,37
31,0,401.0074,0,730,2058,2857,4205,503,-6.5,200,1,1,404.4516,1,4,736337.616929044,08_01_2016 level23_spatial_Robin 14_41_41.662 log.txt,37,37
32,0,410.816,1,730,2058,2857,4205,505,-3.5,200,1,1,416.3078,1,0,736337.617042569,08_01_2016 level23_spatial_Robin 14_41_41.662 log.txt,37,37
33,0,433.0859,1,460,1105,2857,4205,506,-0.5,200,0,0,439.5614,1,4,736337.617300323,08_01_2016 level23_spatial_Robin 14_41_41.662 log.txt,37,37
34,0,443.6469,1,730,2058,2857,4205,507,-9.5,200,1,1,449.6042,1,3,736337.617422557,08_01_2016 level23_spatial_Robin 14_41_41.662 log.txt,37,37
35,0,454.8973,0,460,1105,2857,4205,510,-9.5,200,0,1,458.1064,0,0,736337.61755277,08_01_2016 level23_spatial_Robin 14_41_41.662 log.txt,37,37
36,1,462.4932,1,460,1105,2857,4205,510,-9.5,200,0,1,468.4997,0,0,736337.617640685,08_01_2016 level23_spatial_Robin 14_41_41.662 log.txt,37,37
37,1,472.3775,0,460,1105,2857,4205,510,-9.5,200,0,1,478.1206,0,0,736337.617755087,08_01_2016 level23_spatial_Robin 14_41_41.662 log.txt,37,37
38,1,487.2101,1,460,1105,2857,4205,510,-9.5,200,0,0,493.5771,1,0,736337.61792676,08_01_2016 level23_spatial_Robin 14_41_41.662 log.txt,37,37
39,0,499.5789,1,460,1105,2857,4205,506,-12.5,200,0,0,505.4229,1,3,736337.618069918,08_01_2016 level23_spatial_Robin 14_41_41.662 log.txt,37,37
40,0,509.5312,0,460,1105,2857,4205,511,-0.5,200,0,1,514.8839,0,5,736337.618185107,08_01_2016 level23_spatial_Robin 14_41_41.662 log.txt,37,37
41,1,518.6861,0,460,1105,2857,4205,511,-0.5,200,0,0,520.5299,1,5,736337.618291066,08_01_2016 level23_spatial_Robin 14_41_41.662 log.txt,37,37
42,0,524.8706,0,460,1105,2857,4205,508,-9.5,200,0,0,526.7179,1,4,736337.618362646,08_01_2016 level23_spatial_Robin 14_41_41.662 log.txt,37,37
43,0,538.8132,0,460,1105,2857,4205,502,-0.5,200,0,1,540.9121,0,3,736337.618524019,08_01_2016 level23_spatial_Robin 14_41_41.662 log.txt,37,37
44,1,546.8118,0,460,1105,2857,4205,502,-0.5,200,0,1,549.2483,0,3,736337.618616595,08_01_2016 level23_spatial_Robin 14_41_41.662 log.txt,37,37
45,1,555.4389,1,460,1105,2857,4205,502,-0.5,200,0,1,562.0286,0,3,736337.618716446,08_01_2016 level23_spatial_Robin 14_41_41.662 log.txt,37,37
46,1,567.8403,0,460,1105,2857,4205,502,-0.5,200,0,1,569.8614,0,3,736337.61885998,08_01_2016 level23_spatial_Robin 14_41_41.662 log.txt,37,37
47,1,576.4631,1,460,1105,2857,4205,502,-0.5,200,0,0,581.8654,1,3,736337.618959781,08_01_2016 level23_spatial_Robin 14_41_41.662 log.txt,37,37
48,0,586.2814,1,730,2058,2857,4205,504,-12.5,200,1,1,593.3267,1,1,736337.619073419,08_01_2016 level23_spatial_Robin 14_41_41.662 log.txt,37,37
49,0,598.0495,0,460,1105,2857,4205,503,-3.5,200,0,0,602.9071,1,2,736337.619209624,08_01_2016 level23_spatial_Robin 14_41_41.662 log.txt,37,37
50,0,607.4555,0,730,2058,2857,4205,509,-6.5,200,1,1,610.7641,1,5,736337.61931849,08_01_2016 level23_spatial_Robin 14_41_41.662 log.txt,37,37
51,0,615.6252,1,460,1105,2857,4205,501,-9.5,200,0,1,620.868,0,2,736337.619413046,08_01_2016 level23_spatial_Robin 14_41_41.662 log.txt,37,37
52,1,625.1152,0,460,1105,2857,4205,501,-9.5,200,0,0,627.9823,1,2,736337.619522884,08_01_2016 level23_spatial_Robin 14_41_41.662 log.txt,37,37
53,0,633.4567,1,730,2058,2857,4205,509,-9.5,200,1,1,639.5288,1,1,736337.619619429,08_01_2016 level23_spatial_Robin 14_41_41.662 log.txt,37,37
54,0,645.5816,0,730,2058,2857,4205,502,2.5,200,1,1,648.5288,1,0,736337.619759764,08_01_2016 level23_spatial_Robin 14_41_41.662 log.txt,37,37
55,0,654.104,0,460,1105,2857,4205,504,-12.5,200,0,0,655.904,1,2,736337.619858403,08_01_2016 level23_spatial_Robin 14_41_41.662 log.txt,37,37
56,0,660.1451,0,460,1105,2857,4205,501,-12.5,200,0,0,662.3845,1,1,736337.619928323,08_01_2016 level23_spatial_Robin 14_41_41.662 log.txt,37,37
57,0,666.6806,1,730,2058,2857,4205,503,-0.5,200,1,1,671.4976,1,4,736337.620003965,08_01_2016 level23_spatial_Robin 14_41_41.662 log.txt,37,37
58,0,679.1533,1,460,1105,2857,4205,505,-9.5,200,0,0,680.5657,1,1,736337.620148325,08_01_2016 level23_spatial_Robin 14_41_41.662 log.txt,37,37
59,0,686.8412,0,460,1105,2857,4205,508,-6.5,200,0,0,693.2189,1,0,736337.620237306,08_01_2016 level23_spatial_Robin 14_41_41.662 log.txt,37,37
60,0,698.2074,1,730,2058,2857,4205,510,-6.5,200,1,1,704.549,1,1,736337.620368859,08_01_2016 level23_spatial_Robin 14_41_41.662 log.txt,37,37
61,0,713.7814,0,730,2058,2857,4205,506,-9.5,200,1,0,717.0739,0,2,736337.620549113,08_01_2016 level23_spatial_Robin 14_41_41.662 log.txt,37,37
62,1,721.8855,0,730,2058,2857,4205,506,-9.5,200,1,1,723.7616,1,2,736337.620642911,08_01_2016 level23_spatial_Robin 14_41_41.662 log.txt,37,37
63,0,728.9401,1,730,2058,2857,4205,511,-3.5,200,1,1,734.9663,1,2,736337.620724561,08_01_2016 level23_spatial_Robin 14_41_41.662 log.txt,37,37
64,0,740.5949,0,460,1105,2857,4205,507,2.5,200,0,0,742.5177,1,3,736337.620859455,08_01_2016 level23_spatial_Robin 14_41_41.662 log.txt,37,37
65,0,747.1427,0,460,1105,2857,4205,508,-3.5,200,0,0,749.3634,1,4,736337.62093524,08_01_2016 level23_spatial_Robin 14_41_41.662 log.txt,37,37
66,0,757.2399,0,460,1105,2857,4205,511,-12.5,200,0,1,758.9982,0,5,736337.621052105,08_01_2016 level23_spatial_Robin 14_41_41.662 log.txt,37,37
67,1,763.4072,0,460,1105,2857,4205,511,-12.5,200,0,1,765.4244,0,5,736337.621123486,08_01_2016 level23_spatial_Robin 14_41_41.662 log.txt,37,37
68,1,770.3167,0,460,1105,2857,4205,511,-12.5,200,0,0,772.4807,1,5,736337.621203457,08_01_2016 level23_spatial_Robin 14_41_41.662 log.txt,37,37
69,0,775.4725,1,730,2058,2857,4205,503,-3.5,200,1,1,781.8484,1,4,736337.621263131,08_01_2016 level23_spatial_Robin 14_41_41.662 log.txt,37,37
70,0,790.15,0,460,1105,2857,4205,509,-6.5,200,0,0,791.7631,1,1,736337.621433009,08_01_2016 level23_spatial_Robin 14_41_41.662 log.txt,37,37
71,0,794.7526,0,730,2058,2857,4205,504,-12.5,200,1,1,798.0415,1,3,736337.62148628,08_01_2016 level23_spatial_Robin 14_41_41.662 log.txt,37,37
72,0,803.636,1,460,1105,2857,4205,506,-3.5,200,0,1,808.9294,0,1,736337.621589097,08_01_2016 level23_spatial_Robin 14_41_41.662 log.txt,37,37
73,1,812.8795,1,460,1105,2857,4205,506,-3.5,200,0,0,819.4112,1,1,736337.621696082,08_01_2016 level23_spatial_Robin 14_41_41.662 log.txt,37,37
74,0,821.5663,1,730,2058,2857,4205,510,-0.5,200,1,1,827.5135,1,3,736337.621796624,08_01_2016 level23_spatial_Robin 14_41_41.662 log.txt,37,37
75,0,838.2783,1,730,2058,2857,4205,502,-0.5,200,1,1,843.1674,1,0,736337.62199005,08_01_2016 level23_spatial_Robin 14_41_41.662 log.txt,37,37
76,0,850.4425,0,730,2058,2857,4205,501,-6.5,200,1,1,853.0664,1,0,736337.622130839,08_01_2016 level23_spatial_Robin 14_41_41.662 log.txt,37,37
77,0,864.0175,0,730,2058,2857,4205,506,-9.5,200,1,1,866.9939,1,0,736337.622287957,08_01_2016 level23_spatial_Robin 14_41_41.662 log.txt,37,37
78,0,877.6546,1,460,1105,2857,4205,511,-12.5,200,0,0,882.6234,1,4,736337.622445794,08_01_2016 level23_spatial_Robin 14_41_41.662 log.txt,37,37
79,0,884.6417,0,730,2058,2857,4205,505,2.5,200,1,1,886.5978,1,1,736337.622526663,08_01_2016 level23_spatial_Robin 14_41_41.662 log.txt,37,37
80,0,891.7659,0,460,1105,2857,4205,501,-6.5,200,0,1,893.8925,0,3,736337.622609119,08_01_2016 level23_spatial_Robin 14_41_41.662 log.txt,37,37
81,1,898.0604,1,460,1105,2857,4205,501,-6.5,200,0,1,904.3964,0,3,736337.622681972,08_01_2016 level23_spatial_Robin 14_41_41.662 log.txt,37,37
82,1,908.6066,1,460,1105,2857,4205,501,-6.5,200,0,1,914.6069,0,3,736337.622804035,08_01_2016 level23_spatial_Robin 14_41_41.662 log.txt,37,37
83,1,919.3933,1,460,1105,2857,4205,501,-6.5,200,0,0,926.8788,1,3,736337.622928881,08_01_2016 level23_spatial_Robin 14_41_41.662 log.txt,37,37
84,0,932.5205,1,730,2058,2857,4205,504,-12.5,200,1,1,943.2811,1,4,736337.623080816,08_01_2016 level23_spatial_Robin 14_41_41.662 log.txt,37,37
85,0,948.5771,0,460,1105,2857,4205,502,-0.5,200,0,1,951.8289,0,0,736337.623266656,08_01_2016 level23_spatial_Robin 14_41_41.662 log.txt,37,37
86,1,955.4439,1,460,1105,2857,4205,502,-0.5,200,0,1,961.5208,0,0,736337.623346133,08_01_2016 level23_spatial_Robin 14_41_41.662 log.txt,37,37
87,1,966.0602,0,460,1105,2857,4205,502,-0.5,200,0,0,969.303,1,0,736337.623469007,08_01_2016 level23_spatial_Robin 14_41_41.662 log.txt,37,37
88,0,973.5968,1,460,1105,2857,4205,509,-0.5,200,0,0,979.0253,1,1,736337.623556236,08_01_2016 level23_spatial_Robin 14_41_41.662 log.txt,37,37
89,0,983.8586,0,460,1105,2857,4205,508,-3.5,200,0,1,986.1103,0,3,736337.623675007,08_01_2016 level23_spatial_Robin 14_41_41.662 log.txt,37,37
90,1,989.9808,0,460,1105,2857,4205,508,-3.5,200,0,1,992.451,0,3,736337.623745866,08_01_2016 level23_spatial_Robin 14_41_41.662 log.txt,37,37
91,1,999.1614,0,460,1105,2857,4205,508,-3.5,200,0,0,1001.5423,1,3,736337.623852123,08_01_2016 level23_spatial_Robin 14_41_41.662 log.txt,37,37
92,0,1006.1132,1,460,1105,2857,4205,503,2.5,200,0,1,1011.7782,0,2,736337.623932583,08_01_2016 level23_spatial_Robin 14_41_41.662 log.txt,37,37
93,1,1019.9641,1,460,1105,2857,4205,503,2.5,200,0,0,1023.9792,1,2,736337.624092895,08_01_2016 level23_spatial_Robin 14_41_41.662 log.txt,37,37
94,0,1027.9883,0,460,1105,2857,4205,510,2.5,200,0,1,1032.3963,0,5,736337.624185767,08_01_2016 level23_spatial_Robin 14_41_41.662 log.txt,37,37
95,1,1036.3569,1,460,1105,2857,4205,510,2.5,200,0,0,1042.3652,1,5,736337.624282626,08_01_2016 level23_spatial_Robin 14_41_41.662 log.txt,37,37
96,0,1046.8454,0,460,1105,2857,4205,508,-0.5,200,0,1,1049.7538,0,2,736337.624404021,08_01_2016 level23_spatial_Robin 14_41_41.662 log.txt,37,37
97,1,1054.0741,1,460,1105,2857,4205,508,-0.5,200,0,0,1060.1562,1,2,736337.624487686,08_01_2016 level23_spatial_Robin 14_41_41.662 log.txt,37,37
98,0,1064.0001,1,730,2058,2857,4205,501,2.5,200,1,0,1070.5877,0,3,736337.624602571,08_01_2016 level23_spatial_Robin 14_41_41.662 log.txt,37,37
99,1,1077.4354,1,730,2058,2857,4205,501,2.5,200,1,1,1083.0898,1,3,736337.624758072,08_01_2016 level23_spatial_Robin 14_41_41.662 log.txt,37,37
100,0,1087.9406,0,730,2058,2857,4205,506,-12.5,200,1,0,1091.4979,0,5,736337.62487966,08_01_2016 level23_spatial_Robin 14_41_41.662 log.txt,37,37
101,1,1099.1919,1,730,2058,2857,4205,506,-12.5,200,1,1,1109.0058,1,5,736337.625009883,08_01_2016 level23_spatial_Robin 14_41_41.662 log.txt,37,37
102,0,1121.5887,1,730,2058,2857,4205,504,-0.5,200,1,0,1126.5849,0,2,736337.625269105,08_01_2016 level23_spatial_Robin 14_41_41.662 log.txt,37,37
103,1,1132.1082,0,730,2058,2857,4205,504,-0.5,200,1,1,1134.0304,1,2,736337.625390859,08_01_2016 level23_spatial_Robin 14_41_41.662 log.txt,37,37
104,0,1140.8146,0,730,2058,2857,4205,503,-6.5,200,1,1,1142.6488,1,2,736337.625491627,08_01_2016 level23_spatial_Robin 14_41_41.662 log.txt,37,37
105,0,1152.1791,1,460,1105,2857,4205,509,2.5,200,0,0,1155.5659,1,4,736337.625623161,08_01_2016 level23_spatial_Robin 14_41_41.662 log.txt,37,37
106,0,1159.3646,1,730,2058,2857,4205,507,2.5,200,1,1,1165.8337,1,4,736337.625706326,08_01_2016 level23_spatial_Robin 14_41_41.662 log.txt,37,37
107,0,1171.1535,0,730,2058,2857,4205,505,-3.5,200,1,1,1173.0865,1,5,736337.625842772,08_01_2016 level23_spatial_Robin 14_41_41.662 log.txt,37,37
