Trial	CorrectionTrial?	StartTime	CenterReward?	SpkrIdx	SpkrPos	duration	HoldTime	Atten	Response	RespTime	Correct	ComputerTime	SoundOrLED	
1	0	1181.294	0	8	90	250	751	4.5	8	1182.255	1	736133.712611	1	
2	0	1191.790	0	8	90	250	901	0.0	8	1192.534	1	736133.712731	0	
3	0	1215.425	0	5	0	250	501	4.5	8	1216.980	0	736133.713013	0	
4	0	1231.852	0	5	0	250	701	9.0	8	1233.244	0	736133.713201	1	
5	0	1241.454	0	3	-60	250	601	4.5	3	1242.450	1	736133.713309	1	
6	0	1249.654	0	7	60	250	951	0.0	8	1250.335	0	736133.713401	0	
7	0	1264.456	0	3	-60	250	651	0.0	2	1265.311	0	736133.713573	0	
8	0	1277.183	0	6	30	250	551	4.5	7	1278.492	0	736133.713725	1	
9	0	1285.621	0	4	-30	250	851	0.0	4	1286.998	1	736133.713823	1	
10	0	1298.481	0	8	90	250	801	4.5	8	1299.613	1	736133.713969	0	
11	0	1307.803	0	4	-30	250	851	4.5	3	1308.705	0	736133.714075	0	
12	0	1315.392	0	3	-60	250	601	9.0	3	1316.122	1	736133.714162	1	
13	0	1323.349	0	7	60	250	1001	9.0	8	1324.153	0	736133.714253	1	
14	0	1336.591	0	6	30	250	701	0.0	7	1337.720	0	736133.714410	0	
15	0	1349.168	0	2	-90	250	901	4.5	2	1350.037	1	736133.714553	0	
16	0	1367.356	0	7	60	250	801	9.0	7	1368.431	1	736133.714766	0	
17	0	1372.362	0	6	30	250	751	9.0	8	1373.389	0	736133.714824	1	
18	0	1379.901	0	5	0	250	651	0.0	3	1381.292	0	736133.714915	1	
19	0	1388.971	0	2	-90	250	551	0.0	2	1389.832	1	736133.715014	1	
20	0	1400.577	0	5	0	250	501	9.0	8	1401.797	0	736133.715152	0	
21	0	1419.384	0	4	-30	250	951	9.0	4	1420.310	1	736133.715366	0	
22	0	1430.702	0	2	-90	250	901	0.0	2	1431.604	1	736133.715498	1	
23	0	1442.710	0	8	90	250	701	9.0	8	1443.776	1	736133.715638	1	
24	0	1453.162	0	7	60	250	501	0.0	8	1453.934	0	736133.715756	1	
25	0	1463.895	0	3	-60	250	601	9.0	3	1464.725	1	736133.715881	0	
26	0	1473.585	0	2	-90	250	1001	0.0	3	1474.201	0	736133.715993	0	
27	0	1479.558	0	4	-30	250	551	0.0	4	1481.091	1	736133.716070	1	
28	0	1491.977	0	6	30	250	751	4.5	4	1493.763	0	736133.716217	0	
29	0	1499.587	0	7	60	250	851	9.0	8	1500.359	0	736133.716294	0	
30	0	1506.638	0	5	0	250	651	4.5	4	1507.617	0	736133.716377	1	
31	0	1516.251	0	2	-90	250	1001	9.0	3	1517.234	0	736133.716488	1	
32	0	1529.914	0	5	0	250	651	0.0	6	1530.992	0	736133.716648	1	
33	0	1534.502	0	6	30	250	551	4.5	7	1535.411	0	736133.716698	0	
34	0	1543.229	1	2	-90	250	501	9.0	3	1544.156	0	736133.716799	0	
35	0	1550.065	0	3	-60	250	951	0.0	4	1551.252	0	736133.716883	0	
36	0	1554.546	0	8	90	250	701	4.5	8	1555.254	1	736133.716930	0	
37	0	1562.881	0	4	-30	250	801	9.0	4	1563.991	1	736133.717029	1	
38	0	1571.290	0	8	90	250	851	4.5	8	1572.498	1	736133.717128	1	
39	0	1581.243	0	6	30	250	901	9.0	8	1581.791	0	736133.717239	1	
40	0	1589.870	0	5	0	250	751	4.5	4	1591.053	0	736133.717343	0	
41	0	1597.357	0	2	-90	250	801	4.5	3	1598.084	0	736133.717425	0	
42	0	1629.645	0	4	-30	250	751	0.0	3	1634.721	0	736133.717848	1	
43	0	1641.760	0	2	-90	250	701	0.0	8	1642.940	0	736133.717943	1	
44	0	1661.084	0	5	0	250	951	9.0	7	1662.082	0	736133.718165	0	
45	0	1676.341	0	3	-60	250	851	9.0	3	1677.158	1	736133.718339	1	
46	0	1688.163	0	8	90	250	651	0.0	8	1689.221	1	736133.718479	0	
47	0	1696.880	0	3	-60	250	601	9.0	3	1697.632	1	736133.718577	0	
48	0	1709.393	0	6	30	250	551	0.0	3	1710.937	0	736133.718730	1	
49	0	1719.381	0	7	60	250	501	9.0	7	1720.493	1	736133.718841	0	
50	0	1724.075	0	7	60	250	1001	4.5	8	1725.069	0	736133.718894	1	
51	0	1732.933	1	4	-30	250	551	0.0	4	1733.811	1	736133.718995	0	
52	0	1751.116	0	3	-60	250	851	9.0	3	1751.994	1	736133.719206	1	
53	0	1760.043	0	4	-30	250	501	0.0	4	1760.995	1	736133.719310	0	
54	0	1769.392	0	7	60	250	1001	9.0	8	1770.392	0	736133.719419	1	
55	0	1777.137	0	8	90	250	751	0.0	8	1778.255	1	736133.719510	1	
56	0	1786.965	0	6	30	250	601	9.0	8	1789.171	0	736133.719636	0	
57	0	1795.528	0	6	30	250	951	4.5	4	1796.845	0	736133.719725	0	
58	0	1802.438	0	2	-90	250	701	9.0	3	1803.802	0	736133.719805	0	
59	0	1808.853	0	6	30	250	651	0.0	4	1811.179	0	736133.719891	1	
60	0	1815.887	0	2	-90	250	801	9.0	2	1816.819	1	736133.719955	1	
61	0	1824.849	0	3	-60	250	701	0.0	3	1825.736	1	736133.720059	1	
62	0	1833.658	0	8	90	250	551	9.0	8	1834.609	1	736133.720161	0	
63	0	1843.556	0	8	90	250	901	9.0	8	1845.154	1	736133.720283	1	
64	0	1853.668	0	5	0	250	951	4.5	3	1854.593	0	736133.720393	1	
65	0	1862.185	0	3	-60	250	651	9.0	3	1862.929	1	736133.720490	0	
66	0	1870.556	0	7	60	250	851	0.0	8	1871.338	0	736133.720588	0	
67	0	1877.782	1	4	-30	250	501	0.0	4	1878.686	1	736133.720672	0	
68	0	1893.389	0	3	-60	250	601	9.0	3	1894.349	1	736133.720853	1	
69	0	1907.574	0	7	60	250	751	4.5	8	1908.521	0	736133.721017	1	
70	0	1919.616	0	8	90	250	801	0.0	8	1920.705	1	736133.721158	1	
71	0	1927.645	0	6	30	250	601	9.0	6	1929.184	1	736133.721256	1	
72	0	1931.485	0	4	-30	250	801	0.0	4	1932.658	1	736133.721297	1	
73	0	1939.284	0	8	90	250	1001	4.5	8	1940.052	1	736133.721383	0	
74	0	1947.449	0	5	0	250	651	0.0	3	1948.512	0	736133.721480	0	
75	0	1956.309	0	5	0	250	551	0.0	4	1957.318	0	736133.721582	0	
76	0	1964.239	0	7	60	250	701	9.0	7	1965.425	1	736133.721675	1	
77	0	1967.826	0	5	0	250	901	9.0	3	1968.679	0	736133.721714	1	
78	0	1974.957	1	4	-30	250	851	0.0	4	1976.035	1	736133.721798	1	
79	0	1990.421	0	7	60	250	951	9.0	8	1991.164	0	736133.721974	0	
80	0	2000.378	0	2	-90	250	501	4.5	2	2001.264	1	736133.722090	0	
81	0	2011.224	0	2	-90	250	1001	4.5	2	2012.163	1	736133.722217	1	
82	0	2024.343	0	4	-30	250	701	9.0	4	2025.329	1	736133.722369	0	
83	0	2032.884	0	3	-60	250	651	0.0	3	2033.571	1	736133.722466	0	
84	0	2041.566	0	6	30	250	551	4.5	3	2042.985	0	736133.722574	0	
85	0	2050.971	0	6	30	250	951	0.0	4	2051.970	0	736133.722678	1	
86	0	2059.220	0	4	-30	250	601	9.0	4	2060.234	1	736133.722773	1	
87	0	2069.390	0	6	30	250	901	0.0	3	2072.304	0	736133.722913	0	
88	0	2078.461	0	5	0	250	501	4.5	4	2079.641	0	736133.722998	1	
89	0	2084.189	0	7	60	250	851	9.0	8	2085.193	0	736133.723062	1	
90	0	2094.843	0	7	60	250	751	4.5	3	2107.245	0	736133.723318	0	
91	0	2164.603	0	2	-90	250	701	9.0	3	2173.022	0	736133.724078	1	
92	0	2180.394	0	5	0	250	901	0.0	3	2181.264	0	736133.724174	1	
93	0	2286.138	0	7	60	250	551	0.0	-1	-1.000	0	736133.725561	1	
