Trial	CorrectionTrial?	StartTime	CenterReward?	SpkrIdx	SpkrPos	duration	HoldTime	Atten	Response	RespTime	Correct	ComputerTime	SoundOrLED	
1	0	1042.034	0	6	30	100	501	9.0	8	1048.827	0	736179.677975	0	
2	0	1069.459	0	5	0	100	601	4.5	8	1070.945	0	736179.678230	0	
3	0	1080.328	0	7	60	100	701	0.0	8	1081.674	0	736179.678354	0	
4	0	1094.908	0	4	-30	100	901	4.5	5	1100.093	0	736179.678568	0	
5	0	1109.999	0	5	0	100	801	0.0	3	1113.805	0	736179.678727	0	
6	0	1132.862	0	2	-90	100	951	4.5	2	1135.592	1	736179.678979	0	
7	0	1143.285	1	8	90	100	851	0.0	8	1145.005	1	736179.679087	0	
8	0	1155.839	0	3	-60	100	551	9.0	2	1160.829	0	736179.679271	0	
9	0	1175.368	0	3	-60	100	651	9.0	4	1176.996	0	736179.679458	0	
10	0	1186.977	0	7	60	100	1001	0.0	8	1188.331	0	736179.679589	0	
11	0	1198.724	0	8	90	100	501	4.5	8	1199.594	1	736179.679719	0	
12	0	1209.708	0	4	-30	100	1001	9.0	2	1211.305	0	736179.679855	0	
13	0	1218.374	0	6	30	100	651	9.0	6	1219.747	1	736179.679952	0	
14	0	1230.384	0	2	-90	100	601	4.5	8	1231.988	0	736179.680095	0	
15	0	1238.770	0	8	90	100	551	9.0	8	1239.644	1	736179.680183	0	
16	0	1248.932	0	2	-90	100	901	4.5	3	1249.656	0	736179.680300	0	
17	0	1260.249	0	8	90	100	801	4.5	8	1261.030	1	736179.680431	0	
18	0	1269.512	0	7	60	100	851	9.0	8	1270.254	0	736179.680539	0	
19	0	1280.480	0	4	-30	100	951	4.5	5	1281.633	0	736179.680669	0	
20	0	1288.003	0	4	-30	100	701	0.0	3	1288.781	0	736179.680753	0	
21	0	1297.750	0	6	30	100	601	0.0	6	1298.583	1	736179.680865	0	
22	0	1308.841	0	3	-60	100	801	4.5	3	1309.635	1	736179.680993	0	
23	0	1331.388	0	5	0	100	1001	9.0	2	1332.618	0	736179.681259	0	
24	0	1341.305	0	7	60	100	851	4.5	7	1342.165	1	736179.681369	0	
25	0	1349.238	0	3	-60	100	701	9.0	6	1350.489	0	736179.681466	0	
26	0	1358.770	0	6	30	100	751	4.5	3	1364.192	0	736179.681624	0	
27	0	1374.628	0	5	0	100	551	0.0	5	1375.784	1	736179.681759	0	
28	0	1387.676	0	2	-90	100	651	9.0	2	1389.294	1	736179.681916	0	
29	0	1402.221	0	2	-90	100	501	9.0	2	1403.350	1	736179.682078	0	
30	0	1414.294	0	5	0	100	951	4.5	5	1415.269	1	736179.682215	0	
31	0	1425.865	0	6	30	100	751	9.0	7	1427.176	0	736179.682353	0	
32	0	1435.772	0	6	30	100	701	0.0	6	1436.750	1	736179.682464	0	
33	0	1446.428	0	3	-60	100	601	0.0	2	1447.896	0	736179.682594	0	
34	0	1454.305	0	8	90	100	501	4.5	8	1455.198	1	736179.682678	0	
35	0	1462.467	0	2	-90	100	901	0.0	3	1463.343	0	736179.682772	0	
36	0	1473.811	0	3	-60	100	651	4.5	2	1474.679	0	736179.682903	0	
37	0	1486.465	0	4	-30	100	951	0.0	2	1487.174	0	736179.683049	0	
38	0	1495.593	0	5	0	100	551	4.5	5	1496.532	1	736179.683156	0	
39	0	1571.815	0	4	-30	100	801	0.0	8	1573.148	0	736179.684043	0	
40	0	1582.548	0	7	60	100	851	9.0	8	1583.568	0	736179.684163	0	
41	0	1598.873	0	7	60	100	751	4.5	8	1599.872	0	736179.684352	0	
42	0	1607.330	0	8	90	100	701	0.0	8	1608.911	1	736179.684456	0	
43	0	1617.366	0	7	60	100	951	0.0	8	1618.179	0	736179.684564	0	
44	0	1626.609	0	4	-30	100	1001	4.5	4	1628.122	1	736179.684679	0	
45	0	1643.076	0	5	0	100	551	0.0	6	1644.082	0	736179.684865	0	
46	0	1657.021	0	8	90	100	601	4.5	8	1657.928	1	736179.685024	0	
47	0	1669.966	0	7	60	100	851	0.0	7	1671.132	1	736179.685177	0	
48	0	1678.972	0	3	-60	100	901	4.5	3	1679.816	1	736179.685277	0	
49	0	1686.633	0	2	-90	100	801	4.5	2	1687.965	1	736179.685371	0	
50	0	1698.011	0	2	-90	100	501	9.0	2	1698.754	1	736179.685497	0	
51	0	1708.214	0	8	90	100	951	0.0	8	1709.631	1	736179.685623	0	
52	0	1717.931	0	5	0	100	601	9.0	3	1719.109	0	736179.685733	0	
53	0	1731.107	0	6	30	100	851	0.0	6	1732.169	1	736179.685883	0	
54	0	1741.943	0	4	-30	100	901	9.0	2	1743.171	0	736179.686011	0	
55	0	1751.126	0	6	30	100	801	0.0	6	1752.527	1	736179.686120	0	
56	0	1762.704	0	3	-60	100	701	9.0	2	1764.515	0	736179.686258	0	
57	0	1773.278	0	6	30	100	1001	9.0	7	1774.443	0	736179.686373	0	
58	0	1780.907	0	8	90	100	651	4.5	8	1781.812	1	736179.686458	0	
59	0	1790.622	0	2	-90	100	551	0.0	2	1792.039	1	736179.686576	0	
60	0	1803.457	0	4	-30	100	751	4.5	2	1804.689	0	736179.686723	0	
61	0	1815.153	0	6	30	100	951	0.0	6	1816.016	1	736179.686854	0	
62	0	1828.840	0	5	0	100	701	9.0	3	1829.723	0	736179.687012	0	
63	0	1837.872	0	3	-60	100	801	0.0	2	1838.582	0	736179.687116	0	
64	0	1845.932	0	8	90	100	751	4.5	8	1847.328	1	736179.687217	0	
65	0	1856.381	0	2	-90	100	601	4.5	2	1858.092	1	736179.687341	0	
66	0	1868.568	0	3	-60	100	901	0.0	4	1869.492	0	736179.687473	0	
67	0	1877.455	0	5	0	100	651	4.5	6	1878.330	0	736179.687576	0	
68	0	1885.189	0	7	60	100	851	0.0	8	1886.730	0	736179.687673	0	
69	0	1894.883	0	4	-30	100	551	9.0	3	1895.897	0	736179.687779	0	
70	0	1909.430	0	7	60	100	1001	0.0	8	1912.144	0	736179.687966	0	
71	0	1920.478	0	6	30	100	901	0.0	7	1921.479	0	736179.688074	0	
72	0	1931.376	0	6	30	100	951	9.0	8	1932.318	0	736179.688200	0	
73	0	1940.287	0	8	90	100	651	0.0	8	1941.297	1	736179.688304	0	
74	0	1949.271	0	5	0	100	1001	4.5	5	1950.320	1	736179.688409	0	
75	0	1960.182	0	2	-90	100	801	9.0	4	1961.233	0	736179.688535	0	
76	0	1968.363	0	3	-60	100	751	0.0	2	1969.519	0	736179.688631	0	
77	0	1984.588	0	3	-60	100	501	9.0	2	1986.180	0	736179.688823	0	
78	0	1993.782	0	4	-30	100	701	4.5	3	1996.458	0	736179.688942	0	
79	0	2013.449	0	8	90	100	601	0.0	8	2014.288	1	736179.689149	0	
80	0	2021.802	0	2	-90	100	551	9.0	2	2023.981	1	736179.689261	0	
81	0	2035.705	0	5	0	100	701	0.0	2	2037.002	0	736179.689412	0	
82	0	2046.024	0	7	60	100	901	9.0	8	2046.889	0	736179.689526	0	
83	0	2065.161	0	4	-30	100	1001	4.5	5	2065.871	0	736179.689747	0	
84	0	2070.406	0	7	60	100	951	9.0	2	2071.595	0	736179.689813	0	
85	0	2082.003	0	4	-30	100	651	0.0	2	2088.521	0	736179.690008	0	
86	0	2096.895	0	8	90	100	501	4.5	8	2098.603	1	736179.690125	0	
87	0	2114.640	0	6	30	100	601	4.5	6	2115.703	1	736179.690322	0	
88	0	2128.693	0	3	-60	100	801	9.0	2	2130.128	0	736179.690489	0	
89	0	2138.288	0	3	-60	100	751	4.5	3	2139.139	1	736179.690594	0	
90	0	2147.360	0	7	60	100	551	0.0	6	2148.728	0	736179.690705	0	
91	0	2160.959	0	8	90	100	901	0.0	8	2161.856	1	736179.690857	0	
92	0	2170.808	1	4	-30	100	651	9.0	5	2171.915	0	736179.690973	0	
93	0	2179.442	0	5	0	100	551	0.0	3	2182.790	0	736179.691099	0	
94	0	2189.208	0	5	0	100	1001	9.0	5	2192.837	1	736179.691216	0	
95	0	2202.876	0	6	30	100	951	9.0	7	2204.779	0	736179.691353	0	
96	0	2220.776	0	2	-90	100	701	4.5	2	2221.510	1	736179.691548	0	
97	0	2233.247	0	2	-90	100	751	4.5	2	2234.474	1	736179.691697	0	
98	0	2245.338	0	7	60	100	501	0.0	7	2246.836	1	736179.691840	0	
99	0	2253.717	0	8	90	100	801	4.5	8	2254.593	1	736179.691930	0	
100	0	2264.211	0	5	0	100	601	9.0	2	2265.405	0	736179.692055	0	
101	0	2275.113	0	2	-90	100	901	0.0	2	2275.840	1	736179.692178	0	
102	0	2295.007	0	2	-90	100	501	4.5	2	2295.839	1	736179.692408	0	
103	0	2307.626	0	6	30	100	851	9.0	3	2308.570	0	736179.692554	0	
104	0	2317.472	0	4	-30	100	551	0.0	4	2318.805	1	736179.692673	0	
105	0	2327.502	0	7	60	100	651	0.0	7	2328.500	1	736179.692786	0	
106	0	2336.037	0	5	0	100	601	9.0	2	2337.393	0	736179.692888	0	
107	0	2344.956	0	3	-60	100	751	4.5	2	2346.280	0	736179.692991	0	
108	0	2356.291	0	7	60	100	801	0.0	7	2357.149	1	736179.693117	0	
109	0	2363.430	0	3	-60	100	951	0.0	3	2364.239	1	736179.693199	0	
110	0	2373.895	0	6	30	100	701	4.5	6	2374.860	1	736179.693322	0	
111	0	2384.816	0	4	-30	100	801	4.5	2	2385.703	0	736179.693447	0	
112	0	2396.303	0	8	90	100	601	0.0	8	2397.830	1	736179.693588	0	
113	0	2404.366	1	8	90	100	651	0.0	8	2405.186	1	736179.693673	0	
114	0	2419.644	0	6	30	100	851	4.5	8	2420.842	0	736179.693854	0	
115	0	2430.456	0	5	0	100	751	0.0	5	2431.385	1	736179.693976	0	
116	0	2444.881	0	7	60	100	701	4.5	8	2445.643	0	736179.694142	0	
117	0	2455.716	0	2	-90	100	551	4.5	2	2456.610	1	736179.694268	0	
118	0	2469.923	0	4	-30	100	901	0.0	3	2470.741	0	736179.694432	0	
119	0	2478.352	0	4	-30	100	1001	0.0	2	2479.021	0	736179.694529	0	
120	0	2492.547	0	8	90	100	501	4.5	8	2493.286	1	736179.694693	0	
121	0	2500.647	0	7	60	100	701	0.0	8	2501.323	0	736179.694788	0	
122	0	2512.009	0	6	30	100	551	4.5	6	2512.956	1	736179.694920	0	
123	0	2523.964	0	3	-60	100	801	9.0	2	2524.716	0	736179.695057	0	
124	0	2531.464	1	5	0	100	1001	0.0	5	2532.371	1	736179.695145	0	
125	0	2541.933	0	3	-60	100	751	4.5	2	2546.063	0	736179.695303	0	
126	0	2556.870	0	2	-90	100	901	0.0	2	2557.623	1	736179.695438	0	
127	0	2570.002	0	7	60	100	501	9.0	8	2570.830	0	736179.695591	0	
128	0	2579.669	0	4	-30	100	651	4.5	2	2580.789	0	736179.695705	0	
129	0	2587.982	0	7	60	100	851	0.0	6	2588.763	0	736179.695798	0	
130	0	2598.243	0	2	-90	100	951	9.0	3	2599.592	0	736179.695922	0	
131	0	2606.583	0	8	90	100	651	9.0	8	2607.577	1	736179.696015	0	
132	0	2614.668	0	6	30	100	601	0.0	8	2615.531	0	736179.696107	0	
133	0	2623.816	0	5	0	100	701	9.0	5	2624.823	1	736179.696215	0	
134	0	2634.835	1	3	-60	100	751	0.0	2	2635.557	0	736179.696341	0	
135	0	2653.103	0	4	-30	100	801	4.5	2	2653.972	0	736179.696553	0	
136	0	2662.049	0	8	90	100	901	0.0	8	2662.808	1	736179.696656	0	
137	0	2670.031	0	6	30	100	951	4.5	7	2671.216	0	736179.696752	0	
138	0	2680.281	0	2	-90	100	1001	9.0	5	2681.326	0	736179.696869	0	
139	0	2687.605	0	5	0	100	501	0.0	5	2688.812	1	736179.696955	0	
140	0	2699.370	0	3	-60	100	851	4.5	2	2700.064	0	736179.697087	0	
141	0	2708.035	1	7	60	100	551	9.0	8	2709.137	0	736179.697191	0	
142	0	2717.604	0	2	-90	100	801	4.5	2	2718.713	1	736179.697302	0	
143	0	2732.050	0	8	90	100	1001	4.5	7	2733.042	0	736179.697467	0	
144	0	2741.381	0	4	-30	100	851	9.0	5	2742.252	0	736179.697574	0	
145	0	2750.033	0	2	-90	100	501	0.0	3	2751.559	0	736179.697682	0	
146	0	2764.791	0	3	-60	100	651	4.5	2	2766.296	0	736179.697852	0	
147	0	2776.041	0	6	30	100	601	9.0	8	2778.254	0	736179.697991	0	
